onset	duration	sample	trial_type	value	block.thisRepN	block.thisTrialN	block.thisN	block.thisIndex	reps.thisRepN	reps.thisTrialN	reps.thisN	reps.thisIndex	afrec_start	rec_start	key_resp.keys	key_resp.rt	wait_time_text.started	wait_time_text.stopped	therm_loca_text.started	subResponse	keyResp.keys	keyResp.rt	ITI_wait	wait_trigger	loca_thermode	Hz_condition	temp_condition	temp_valeur	text.started	text.stopped	therm_loca_text.stopped	participant	brightness	num_part	low	high	com_svr	com_thermode	com_eeg	date	expName	psychopyVersion	frameRate	Unnamed: 39	distance_from_previous	file	step	index	time	type	temp1	temp2	temp3	temp4	temp5	step_num	time_sync
76.903	0	76903	wait	10004	0	0	0	0	0.0	0.0	0.0	0.0	37.99791289982386	37.91698779980652	p	76.79163460014388	114.80754039995372	122.70483109983616	122.70483109983616	5.0	['5', 'return']	[4.8281018999405205, 5.58947049989365]	7.89	5.75	0.0	40hz	low_pain	48.0				sub-049	250	49	48	49	COM5	COM15	COM3	2024-11-15_14h48.19.807	001-EEG_SVR_Officel	2022.2.5	239.89674810025187		76.903	0_sub-pilot049_SVR_EEG_block1-2.protocol.csv	step3	1106	110.428	STIMULATE	48.2	47.9	48.0	48.0	48.3	3	97.178
84.792	0	84792	40hz	10003	0	0	0	0	0.0	0.0	0.0	0.0	37.99791289982386	37.91698779980652	p	76.79163460014388	114.80754039995372	122.70483109983616	122.70483109983616	5.0	['5', 'return']	[4.8281018999405205, 5.58947049989365]	7.89	5.75	0.0	40hz	low_pain	48.0				sub-049	250	49	48	49	COM5	COM15	COM3	2024-11-15_14h48.19.807	001-EEG_SVR_Officel	2022.2.5	239.89674810025187		7.888999999999996	0_sub-pilot049_SVR_EEG_block1-2.protocol.csv	step3	1106	110.428	STIMULATE	48.2	47.9	48.0	48.0	48.3	3	97.178
91.295	0	91295	40/Lo	10001	0	0	0	0	0.0	0.0	0.0	0.0	37.99791289982386	37.91698779980652	p	76.79163460014388	114.80754039995372	122.70483109983616	122.70483109983616	5.0	['5', 'return']	[4.8281018999405205, 5.58947049989365]	7.89	5.75	0.0	40hz	low_pain	48.0				sub-049	250	49	48	49	COM5	COM15	COM3	2024-11-15_14h48.19.807	001-EEG_SVR_Officel	2022.2.5	239.89674810025187		5.753	0_sub-pilot049_SVR_EEG_block1-2.protocol.csv	step3	1106	110.428	STIMULATE	48.2	47.9	48.0	48.0	48.3	3	97.178
103.403	0	103403	wait	10004	0	0	0	0	1.0	0.0	1.0	0.0					141.30787249980494	147.61204549996182	147.61204549996182	6.0	['6', 'return']	[3.0322854998521507, 3.8487152999732643]	6.3	5.56	1.0	controle	high_pain	49.0				sub-049	250	49	48	49	COM5	COM15	COM3	2024-11-15_14h48.19.807	001-EEG_SVR_Officel	2022.2.5	239.89674810025187		12.858000000000004	0_sub-pilot049_SVR_EEG_block1-2.protocol.csv	step5	1355	135.163	STIMULATE	49.1	49.0	49.0	49.0	49.3	5	121.91300000000001
109.699	0	109699	CNhz	10003	0	0	0	0	1.0	0.0	1.0	0.0					141.30787249980494	147.61204549996182	147.61204549996182	6.0	['6', 'return']	[3.0322854998521507, 3.8487152999732643]	6.3	5.56	1.0	controle	high_pain	49.0				sub-049	250	49	48	49	COM5	COM15	COM3	2024-11-15_14h48.19.807	001-EEG_SVR_Officel	2022.2.5	239.89674810025187		6.295999999999992	0_sub-pilot049_SVR_EEG_block1-2.protocol.csv	step5	1355	135.163	STIMULATE	49.1	49.0	49.0	49.0	49.3	5	121.91300000000001
116.011	0	116011	CN/Hi	10001	0	0	0	0	1.0	0.0	1.0	0.0					141.30787249980494	147.61204549996182	147.61204549996182	6.0	['6', 'return']	[3.0322854998521507, 3.8487152999732643]	6.3	5.56	1.0	controle	high_pain	49.0				sub-049	250	49	48	49	COM5	COM15	COM3	2024-11-15_14h48.19.807	001-EEG_SVR_Officel	2022.2.5	239.89674810025187		5.561999999999998	0_sub-pilot049_SVR_EEG_block1-2.protocol.csv	step5	1355	135.163	STIMULATE	49.1	49.0	49.0	49.0	49.3	5	121.91300000000001
126.57	0	126570	wait	10004	0	0	0	0	2.0	0.0	2.0	0.0					164.47421469981782	169.4737221999094	169.4737221999094	6.5	['6', 'a', '5', 'return']	[3.3302555000409484, 3.6338666998781264, 3.8659818000160158, 4.762844600016251]	5.0	5.76	2.0	40hz	high_pain	49.0				sub-049	250	49	48	49	COM5	COM15	COM3	2024-11-15_14h48.19.807	001-EEG_SVR_Officel	2022.2.5	239.89674810025187		11.308999999999997	0_sub-pilot049_SVR_EEG_block1-2.protocol.csv	step7	1578	157.26	STIMULATE	49.2	49.0	49.0	49.0	49.1	7	144.01
131.565	0	131565	40hz	10003	0	0	0	0	2.0	0.0	2.0	0.0					164.47421469981782	169.4737221999094	169.4737221999094	6.5	['6', 'a', '5', 'return']	[3.3302555000409484, 3.6338666998781264, 3.8659818000160158, 4.762844600016251]	5.0	5.76	2.0	40hz	high_pain	49.0				sub-049	250	49	48	49	COM5	COM15	COM3	2024-11-15_14h48.19.807	001-EEG_SVR_Officel	2022.2.5	239.89674810025187		4.9950000000000045	0_sub-pilot049_SVR_EEG_block1-2.protocol.csv	step7	1578	157.26	STIMULATE	49.2	49.0	49.0	49.0	49.1	7	144.01
138.079	0	138079	40/Hi	10001	0	0	0	0	2.0	0.0	2.0	0.0					164.47421469981782	169.4737221999094	169.4737221999094	6.5	['6', 'a', '5', 'return']	[3.3302555000409484, 3.6338666998781264, 3.8659818000160158, 4.762844600016251]	5.0	5.76	2.0	40hz	high_pain	49.0				sub-049	250	49	48	49	COM5	COM15	COM3	2024-11-15_14h48.19.807	001-EEG_SVR_Officel	2022.2.5	239.89674810025187		5.76400000000001	0_sub-pilot049_SVR_EEG_block1-2.protocol.csv	step7	1578	157.26	STIMULATE	49.2	49.0	49.0	49.0	49.1	7	144.01
149.349	0	149349	wait	10004	0	0	0	0	3.0	0.0	3.0	0.0					187.25329399993643	192.60816810000688	192.60816810000688	6.0	['6', 'return']	[2.9007389000616968, 3.685108100064099]	5.35	6.04	3.0	controle	low_pain	48.0				sub-049	250	49	48	49	COM5	COM15	COM3	2024-11-15_14h48.19.807	001-EEG_SVR_Officel	2022.2.5	239.89674810025187		12.019999999999982	0_sub-pilot049_SVR_EEG_block1-2.protocol.csv	step9	1813	180.516	STIMULATE	48.0	48.0	48.0	48.0	48.1	9	167.266
154.695	0	154695	CNhz	10003	0	0	0	0	3.0	0.0	3.0	0.0					187.25329399993643	192.60816810000688	192.60816810000688	6.0	['6', 'return']	[2.9007389000616968, 3.685108100064099]	5.35	6.04	3.0	controle	low_pain	48.0				sub-049	250	49	48	49	COM5	COM15	COM3	2024-11-15_14h48.19.807	001-EEG_SVR_Officel	2022.2.5	239.89674810025187		5.346000000000004	0_sub-pilot049_SVR_EEG_block1-2.protocol.csv	step9	1813	180.516	STIMULATE	48.0	48.0	48.0	48.0	48.1	9	167.266
161.486	0	161486	CN/Lo	10001	0	0	0	0	3.0	0.0	3.0	0.0					187.25329399993643	192.60816810000688	192.60816810000688	6.0	['6', 'return']	[2.9007389000616968, 3.685108100064099]	5.35	6.04	3.0	controle	low_pain	48.0				sub-049	250	49	48	49	COM5	COM15	COM3	2024-11-15_14h48.19.807	001-EEG_SVR_Officel	2022.2.5	239.89674810025187		6.040999999999997	0_sub-pilot049_SVR_EEG_block1-2.protocol.csv	step9	1813	180.516	STIMULATE	48.0	48.0	48.0	48.0	48.1	9	167.266
171.403	0	171403	wait	10004	0	0	0	0	4.0	0.0	4.0	0.0					209.30723349982875	216.2238129999023	216.2238129999023	6.5	['6', 'a', '5', 'return']	[2.5725620000157505, 3.0126926000230014, 3.2205759999342263, 4.188519600080326]	6.91	5.18	0.0	40hz	high_pain	49.0				sub-049	250	49	48	49	COM5	COM15	COM3	2024-11-15_14h48.19.807	001-EEG_SVR_Officel	2022.2.5	239.89674810025187		10.667000000000002	0_sub-pilot049_SVR_EEG_block1-2.protocol.csv	step11	2043	203.315	STIMULATE	49.0	48.9	49.0	49.0	49.3	11	190.065
178.311	0	178311	40hz	10003	0	0	0	0	4.0	0.0	4.0	0.0					209.30723349982875	216.2238129999023	216.2238129999023	6.5	['6', 'a', '5', 'return']	[2.5725620000157505, 3.0126926000230014, 3.2205759999342263, 4.188519600080326]	6.91	5.18	0.0	40hz	high_pain	49.0				sub-049	250	49	48	49	COM5	COM15	COM3	2024-11-15_14h48.19.807	001-EEG_SVR_Officel	2022.2.5	239.89674810025187		6.9080000000000155	0_sub-pilot049_SVR_EEG_block1-2.protocol.csv	step11	2043	203.315	STIMULATE	49.0	48.9	49.0	49.0	49.3	11	190.065
184.244	0	184244	40/Hi	10001	0	0	0	0	4.0	0.0	4.0	0.0					209.30723349982875	216.2238129999023	216.2238129999023	6.5	['6', 'a', '5', 'return']	[2.5725620000157505, 3.0126926000230014, 3.2205759999342263, 4.188519600080326]	6.91	5.18	0.0	40hz	high_pain	49.0				sub-049	250	49	48	49	COM5	COM15	COM3	2024-11-15_14h48.19.807	001-EEG_SVR_Officel	2022.2.5	239.89674810025187		5.182999999999993	0_sub-pilot049_SVR_EEG_block1-2.protocol.csv	step11	2043	203.315	STIMULATE	49.0	48.9	49.0	49.0	49.3	11	190.065
195.523	0	195523	wait	10004	0	0	0	0	5.0	0.0	5.0	0.0					233.42780069983564	240.0944123999216	240.0944123999216	5.0	['5', 'return']	[3.0293520998675376, 3.8292864998802543]	6.66	6.17	1.0	10hz	low_pain	48.0				sub-049	250	49	48	49	COM5	COM15	COM3	2024-11-15_14h48.19.807	001-EEG_SVR_Officel	2022.2.5	239.89674810025187		12.028999999999996	0_sub-pilot049_SVR_EEG_block1-2.protocol.csv	step13	2294	228.279	STIMULATE	48.0	47.9	47.9	48.0	48.2	13	215.029
202.181	0	202181	10hz	10003	0	0	0	0	5.0	0.0	5.0	0.0					233.42780069983564	240.0944123999216	240.0944123999216	5.0	['5', 'return']	[3.0293520998675376, 3.8292864998802543]	6.66	6.17	1.0	10hz	low_pain	48.0				sub-049	250	49	48	49	COM5	COM15	COM3	2024-11-15_14h48.19.807	001-EEG_SVR_Officel	2022.2.5	239.89674810025187		6.6580000000000155	0_sub-pilot049_SVR_EEG_block1-2.protocol.csv	step13	2294	228.279	STIMULATE	48.0	47.9	47.9	48.0	48.2	13	215.029
209.107	0	209107	10/Lo	10001	0	0	0	0	5.0	0.0	5.0	0.0					233.42780069983564	240.0944123999216	240.0944123999216	5.0	['5', 'return']	[3.0293520998675376, 3.8292864998802543]	6.66	6.17	1.0	10hz	low_pain	48.0				sub-049	250	49	48	49	COM5	COM15	COM3	2024-11-15_14h48.19.807	001-EEG_SVR_Officel	2022.2.5	239.89674810025187		6.175999999999988	0_sub-pilot049_SVR_EEG_block1-2.protocol.csv	step13	2294	228.279	STIMULATE	48.0	47.9	47.9	48.0	48.2	13	215.029
219.035	0	219035	wait	10004	0	0	0	0	6.0	0.0	6.0	0.0					256.9402435999364	264.908049199963	264.908049199963	5.5	['5', 'a', '5', 'return']	[3.193339900113642, 3.3773060000967234, 3.576939200051129, 4.554311400046572]	7.96	6.4	2.0	20hz	low_pain	48.0				sub-049	250	49	48	49	COM5	COM15	COM3	2024-11-15_14h48.19.807	001-EEG_SVR_Officel	2022.2.5	239.89674810025187		10.677999999999997	0_sub-pilot049_SVR_EEG_block1-2.protocol.csv	step15	2546	253.241	STIMULATE	48.1	48.0	48.0	48.0	48.1	15	239.99100000000004
226.995	0	226995	20hz	10003	0	0	0	0	6.0	0.0	6.0	0.0					256.9402435999364	264.908049199963	264.908049199963	5.5	['5', 'a', '5', 'return']	[3.193339900113642, 3.3773060000967234, 3.576939200051129, 4.554311400046572]	7.96	6.4	2.0	20hz	low_pain	48.0				sub-049	250	49	48	49	COM5	COM15	COM3	2024-11-15_14h48.19.807	001-EEG_SVR_Officel	2022.2.5	239.89674810025187		7.960000000000008	0_sub-pilot049_SVR_EEG_block1-2.protocol.csv	step15	2546	253.241	STIMULATE	48.1	48.0	48.0	48.0	48.1	15	239.99100000000004
234.148	0	234148	20/Lo	10001	0	0	0	0	6.0	0.0	6.0	0.0					256.9402435999364	264.908049199963	264.908049199963	5.5	['5', 'a', '5', 'return']	[3.193339900113642, 3.3773060000967234, 3.576939200051129, 4.554311400046572]	7.96	6.4	2.0	20hz	low_pain	48.0				sub-049	250	49	48	49	COM5	COM15	COM3	2024-11-15_14h48.19.807	001-EEG_SVR_Officel	2022.2.5	239.89674810025187		6.402999999999992	0_sub-pilot049_SVR_EEG_block1-2.protocol.csv	step15	2546	253.241	STIMULATE	48.1	48.0	48.0	48.0	48.1	15	239.99100000000004
244.573	0	244573	wait	10004	0	0	0	0	7.0	0.0	7.0	0.0					282.47738299984485	288.82336589996703	288.82336589996703	7.0	['7', 'return']	[2.9924590000882745, 3.7054210999049246]	6.34	5.49	3.0	controle	high_pain	49.0				sub-049	250	49	48	49	COM5	COM15	COM3	2024-11-15_14h48.19.807	001-EEG_SVR_Officel	2022.2.5	239.89674810025187		11.175000000000011	0_sub-pilot049_SVR_EEG_block1-2.protocol.csv	step17	2779	276.318	STIMULATE	49.0	49.0	49.0	49.0	49.0	17	263.068
250.91	0	250910	CNhz	10003	0	0	0	0	7.0	0.0	7.0	0.0					282.47738299984485	288.82336589996703	288.82336589996703	7.0	['7', 'return']	[2.9924590000882745, 3.7054210999049246]	6.34	5.49	3.0	controle	high_pain	49.0				sub-049	250	49	48	49	COM5	COM15	COM3	2024-11-15_14h48.19.807	001-EEG_SVR_Officel	2022.2.5	239.89674810025187		6.336999999999989	0_sub-pilot049_SVR_EEG_block1-2.protocol.csv	step17	2779	276.318	STIMULATE	49.0	49.0	49.0	49.0	49.0	17	263.068
257.152	0	257152	CN/Hi	10001	0	0	0	0	7.0	0.0	7.0	0.0					282.47738299984485	288.82336589996703	288.82336589996703	7.0	['7', 'return']	[2.9924590000882745, 3.7054210999049246]	6.34	5.49	3.0	controle	high_pain	49.0				sub-049	250	49	48	49	COM5	COM15	COM3	2024-11-15_14h48.19.807	001-EEG_SVR_Officel	2022.2.5	239.89674810025187		5.49199999999999	0_sub-pilot049_SVR_EEG_block1-2.protocol.csv	step17	2779	276.318	STIMULATE	49.0	49.0	49.0	49.0	49.0	17	263.068
267.635	0	267635	wait	10004	0	0	0	0	8.0	0.0	8.0	0.0					305.53972809994593	311.6730068998877	311.6730068998877	6.0	['6', 'return']	[2.659296599915251, 3.427638999884948]	6.13	5.35	0.0	20hz	low_pain	48.0				sub-049	250	49	48	49	COM5	COM15	COM3	2024-11-15_14h48.19.807	001-EEG_SVR_Officel	2022.2.5	239.89674810025187		11.233000000000004	0_sub-pilot049_SVR_EEG_block1-2.protocol.csv	step19	3007	298.941	STIMULATE	48.3	47.9	47.9	48.0	48.3	19	285.691
273.76	0	273760	20hz	10003	0	0	0	0	8.0	0.0	8.0	0.0					305.53972809994593	311.6730068998877	311.6730068998877	6.0	['6', 'return']	[2.659296599915251, 3.427638999884948]	6.13	5.35	0.0	20hz	low_pain	48.0				sub-049	250	49	48	49	COM5	COM15	COM3	2024-11-15_14h48.19.807	001-EEG_SVR_Officel	2022.2.5	239.89674810025187		6.125	0_sub-pilot049_SVR_EEG_block1-2.protocol.csv	step19	3007	298.941	STIMULATE	48.3	47.9	47.9	48.0	48.3	19	285.691
279.861	0	279861	20/Lo	10001	0	0	0	0	8.0	0.0	8.0	0.0					305.53972809994593	311.6730068998877	311.6730068998877	6.0	['6', 'return']	[2.659296599915251, 3.427638999884948]	6.13	5.35	0.0	20hz	low_pain	48.0				sub-049	250	49	48	49	COM5	COM15	COM3	2024-11-15_14h48.19.807	001-EEG_SVR_Officel	2022.2.5	239.89674810025187		5.350999999999999	0_sub-pilot049_SVR_EEG_block1-2.protocol.csv	step19	3007	298.941	STIMULATE	48.3	47.9	47.9	48.0	48.3	19	285.691
290.21	0	290210	wait	10004	0	0	0	0	9.0	0.0	9.0	0.0					328.1144573998172	334.1186398998834	334.1186398998834	6.5	['6', 'a', '5', 'return']	[2.6775913999881595, 2.8536829999648035, 3.093620999949053, 4.014207000145689]	6.0	6.41	1.0	20hz	high_pain	49.0				sub-049	250	49	48	49	COM5	COM15	COM3	2024-11-15_14h48.19.807	001-EEG_SVR_Officel	2022.2.5	239.89674810025187		11.09899999999999	0_sub-pilot049_SVR_EEG_block1-2.protocol.csv	step21	3244	322.479	STIMULATE	49.3	49.0	49.0	49.0	49.0	21	309.229
296.206	0	296206	20hz	10003	0	0	0	0	9.0	0.0	9.0	0.0					328.1144573998172	334.1186398998834	334.1186398998834	6.5	['6', 'a', '5', 'return']	[2.6775913999881595, 2.8536829999648035, 3.093620999949053, 4.014207000145689]	6.0	6.41	1.0	20hz	high_pain	49.0				sub-049	250	49	48	49	COM5	COM15	COM3	2024-11-15_14h48.19.807	001-EEG_SVR_Officel	2022.2.5	239.89674810025187		5.996000000000038	0_sub-pilot049_SVR_EEG_block1-2.protocol.csv	step21	3244	322.479	STIMULATE	49.3	49.0	49.0	49.0	49.0	21	309.229
303.368	0	303368	20/Hi	10001	0	0	0	0	9.0	0.0	9.0	0.0					328.1144573998172	334.1186398998834	334.1186398998834	6.5	['6', 'a', '5', 'return']	[2.6775913999881595, 2.8536829999648035, 3.093620999949053, 4.014207000145689]	6.0	6.41	1.0	20hz	high_pain	49.0				sub-049	250	49	48	49	COM5	COM15	COM3	2024-11-15_14h48.19.807	001-EEG_SVR_Officel	2022.2.5	239.89674810025187		6.411999999999978	0_sub-pilot049_SVR_EEG_block1-2.protocol.csv	step21	3244	322.479	STIMULATE	49.3	49.0	49.0	49.0	49.0	21	309.229
313.243	0	313243	wait	10004	0	0	0	0	10.0	0.0	10.0	0.0					351.1476399998646	357.8310618000105	357.8310618000105	6.0	['6', 'return']	[2.9400692998897284, 4.283237700117752]	6.68	6.31	2.0	10hz	low_pain	48.0				sub-049	250	49	48	49	COM5	COM15	COM3	2024-11-15_14h48.19.807	001-EEG_SVR_Officel	2022.2.5	239.89674810025187		10.625	0_sub-pilot049_SVR_EEG_block1-2.protocol.csv	step23	3483	346.146	STIMULATE	48.0	48.0	48.0	48.0	48.1	23	332.896
319.918	0	319918	10hz	10003	0	0	0	0	10.0	0.0	10.0	0.0					351.1476399998646	357.8310618000105	357.8310618000105	6.0	['6', 'return']	[2.9400692998897284, 4.283237700117752]	6.68	6.31	2.0	10hz	low_pain	48.0				sub-049	250	49	48	49	COM5	COM15	COM3	2024-11-15_14h48.19.807	001-EEG_SVR_Officel	2022.2.5	239.89674810025187		6.675000000000011	0_sub-pilot049_SVR_EEG_block1-2.protocol.csv	step23	3483	346.146	STIMULATE	48.0	48.0	48.0	48.0	48.1	23	332.896
326.98	0	326980	10/Lo	10001	0	0	0	0	10.0	0.0	10.0	0.0					351.1476399998646	357.8310618000105	357.8310618000105	6.0	['6', 'return']	[2.9400692998897284, 4.283237700117752]	6.68	6.31	2.0	10hz	low_pain	48.0				sub-049	250	49	48	49	COM5	COM15	COM3	2024-11-15_14h48.19.807	001-EEG_SVR_Officel	2022.2.5	239.89674810025187		6.312000000000012	0_sub-pilot049_SVR_EEG_block1-2.protocol.csv	step23	3483	346.146	STIMULATE	48.0	48.0	48.0	48.0	48.1	23	332.896
337.23	0	337230	wait	10004	0	0	0	0	11.0	0.0	11.0	0.0					375.1351407999173	382.6234922998119	382.6234922998119	7.0	['7', 'return']	[2.6019681999459863, 3.2501326000783592]	7.48	5.56	3.0	10hz	high_pain	49.0				sub-049	250	49	48	49	COM5	COM15	COM3	2024-11-15_14h48.19.807	001-EEG_SVR_Officel	2022.2.5	239.89674810025187		11.0	0_sub-pilot049_SVR_EEG_block1-2.protocol.csv	step25	3726	370.251	STIMULATE	49.0	49.0	49.0	49.0	49.0	25	357.001
344.709	0	344709	10hz	10003	0	0	0	0	11.0	0.0	11.0	0.0					375.1351407999173	382.6234922998119	382.6234922998119	7.0	['7', 'return']	[2.6019681999459863, 3.2501326000783592]	7.48	5.56	3.0	10hz	high_pain	49.0				sub-049	250	49	48	49	COM5	COM15	COM3	2024-11-15_14h48.19.807	001-EEG_SVR_Officel	2022.2.5	239.89674810025187		7.478999999999985	0_sub-pilot049_SVR_EEG_block1-2.protocol.csv	step25	3726	370.251	STIMULATE	49.0	49.0	49.0	49.0	49.0	25	357.001
351.022	0	351022	10/Hi	10001	0	0	0	0	11.0	0.0	11.0	0.0					375.1351407999173	382.6234922998119	382.6234922998119	7.0	['7', 'return']	[2.6019681999459863, 3.2501326000783592]	7.48	5.56	3.0	10hz	high_pain	49.0				sub-049	250	49	48	49	COM5	COM15	COM3	2024-11-15_14h48.19.807	001-EEG_SVR_Officel	2022.2.5	239.89674810025187		5.562999999999988	0_sub-pilot049_SVR_EEG_block1-2.protocol.csv	step25	3726	370.251	STIMULATE	49.0	49.0	49.0	49.0	49.0	25	357.001
360.985	0	360985	wait	10004	0	0	0	0	12.0	0.0	12.0	0.0					398.8897656998597	406.58472989988513	406.58472989988513	6.8	['6', 'a', '8', 'return']	[3.627377400174737, 3.84332920005545, 4.1729913000017405, 5.020350300008431]	7.69	5.13	0.0	20hz	high_pain	49.0				sub-049	250	49	48	49	COM5	COM15	COM3	2024-11-15_14h48.19.807	001-EEG_SVR_Officel	2022.2.5	239.89674810025187		10.713000000000022	0_sub-pilot049_SVR_EEG_block1-2.protocol.csv	step27	3963	393.724	STIMULATE	49.3	48.9	49.0	49.0	49.2	27	380.474
368.671	0	368671	20hz	10003	0	0	0	0	12.0	0.0	12.0	0.0					398.8897656998597	406.58472989988513	406.58472989988513	6.8	['6', 'a', '8', 'return']	[3.627377400174737, 3.84332920005545, 4.1729913000017405, 5.020350300008431]	7.69	5.13	0.0	20hz	high_pain	49.0				sub-049	250	49	48	49	COM5	COM15	COM3	2024-11-15_14h48.19.807	001-EEG_SVR_Officel	2022.2.5	239.89674810025187		7.685999999999979	0_sub-pilot049_SVR_EEG_block1-2.protocol.csv	step27	3963	393.724	STIMULATE	49.3	48.9	49.0	49.0	49.2	27	380.474
374.555	0	374555	20/Hi	10001	0	0	0	0	12.0	0.0	12.0	0.0					398.8897656998597	406.58472989988513	406.58472989988513	6.8	['6', 'a', '8', 'return']	[3.627377400174737, 3.84332920005545, 4.1729913000017405, 5.020350300008431]	7.69	5.13	0.0	20hz	high_pain	49.0				sub-049	250	49	48	49	COM5	COM15	COM3	2024-11-15_14h48.19.807	001-EEG_SVR_Officel	2022.2.5	239.89674810025187		5.1340000000000146	0_sub-pilot049_SVR_EEG_block1-2.protocol.csv	step27	3963	393.724	STIMULATE	49.3	48.9	49.0	49.0	49.2	27	380.474
386.713	0	386713	wait	10004	0	0	0	0	13.0	0.0	13.0	0.0					424.6178915998898	429.6851979999337	429.6851979999337	5.0	['5', 'return']	[2.8963995000813156, 3.6488907001912594]	5.06	5.92	1.0	20hz	low_pain	48.0				sub-049	250	49	48	49	COM5	COM15	COM3	2024-11-15_14h48.19.807	001-EEG_SVR_Officel	2022.2.5	239.89674810025187		12.908000000000015	0_sub-pilot049_SVR_EEG_block1-2.protocol.csv	step29	4203	417.524	STIMULATE	48.2	47.9	47.9	48.0	48.2	29	404.274
391.772	0	391772	20hz	10003	0	0	0	0	13.0	0.0	13.0	0.0					424.6178915998898	429.6851979999337	429.6851979999337	5.0	['5', 'return']	[2.8963995000813156, 3.6488907001912594]	5.06	5.92	1.0	20hz	low_pain	48.0				sub-049	250	49	48	49	COM5	COM15	COM3	2024-11-15_14h48.19.807	001-EEG_SVR_Officel	2022.2.5	239.89674810025187		5.058999999999969	0_sub-pilot049_SVR_EEG_block1-2.protocol.csv	step29	4203	417.524	STIMULATE	48.2	47.9	47.9	48.0	48.2	29	404.274
398.446	0	398446	20/Lo	10001	0	0	0	0	13.0	0.0	13.0	0.0					424.6178915998898	429.6851979999337	429.6851979999337	5.0	['5', 'return']	[2.8963995000813156, 3.6488907001912594]	5.06	5.92	1.0	20hz	low_pain	48.0				sub-049	250	49	48	49	COM5	COM15	COM3	2024-11-15_14h48.19.807	001-EEG_SVR_Officel	2022.2.5	239.89674810025187		5.924000000000035	0_sub-pilot049_SVR_EEG_block1-2.protocol.csv	step29	4203	417.524	STIMULATE	48.2	47.9	47.9	48.0	48.2	29	404.274
408.442	0	408442	wait	10004	0	0	0	0	14.0	0.0	14.0	0.0					446.346819399856	451.8717555999756	451.8717555999756	6.5	['6', 'a', '5', 'return']	[2.908157200086862, 3.1728684999980032, 3.3980884000193328, 4.316899900091812]	5.52	5.16	2.0	20hz	high_pain	49.0				sub-049	250	49	48	49	COM5	COM15	COM3	2024-11-15_14h48.19.807	001-EEG_SVR_Officel	2022.2.5	239.89674810025187		10.745999999999981	0_sub-pilot049_SVR_EEG_block1-2.protocol.csv	step31	4420	439.021	STIMULATE	49.2	49.0	49.0	49.0	49.0	31	425.771
413.959	0	413959	20hz	10003	0	0	0	0	14.0	0.0	14.0	0.0					446.346819399856	451.8717555999756	451.8717555999756	6.5	['6', 'a', '5', 'return']	[2.908157200086862, 3.1728684999980032, 3.3980884000193328, 4.316899900091812]	5.52	5.16	2.0	20hz	high_pain	49.0				sub-049	250	49	48	49	COM5	COM15	COM3	2024-11-15_14h48.19.807	001-EEG_SVR_Officel	2022.2.5	239.89674810025187		5.516999999999996	0_sub-pilot049_SVR_EEG_block1-2.protocol.csv	step31	4420	439.021	STIMULATE	49.2	49.0	49.0	49.0	49.0	31	425.771
419.871	0	419871	20/Hi	10001	0	0	0	0	14.0	0.0	14.0	0.0					446.346819399856	451.8717555999756	451.8717555999756	6.5	['6', 'a', '5', 'return']	[2.908157200086862, 3.1728684999980032, 3.3980884000193328, 4.316899900091812]	5.52	5.16	2.0	20hz	high_pain	49.0				sub-049	250	49	48	49	COM5	COM15	COM3	2024-11-15_14h48.19.807	001-EEG_SVR_Officel	2022.2.5	239.89674810025187		5.161999999999978	0_sub-pilot049_SVR_EEG_block1-2.protocol.csv	step31	4420	439.021	STIMULATE	49.2	49.0	49.0	49.0	49.0	31	425.771
431.3	0	431300	wait	10004	0	0	0	0	15.0	0.0	15.0	0.0					469.2049670999404	476.3007613997906	476.3007613997906	6.8	['6', 'a', '8', 'return']	[2.5545852000359446, 2.721964600030333, 3.0182418001350015, 3.697643700055778]	7.09	5.96	3.0	40hz	high_pain	49.0				sub-049	250	49	48	49	COM5	COM15	COM3	2024-11-15_14h48.19.807	001-EEG_SVR_Officel	2022.2.5	239.89674810025187		12.17900000000003	0_sub-pilot049_SVR_EEG_block1-2.protocol.csv	step33	4675	464.341	STIMULATE	49.0	49.0	49.0	49.0	49.0	33	451.091
438.388	0	438388	40hz	10003	0	0	0	0	15.0	0.0	15.0	0.0					469.2049670999404	476.3007613997906	476.3007613997906	6.8	['6', 'a', '8', 'return']	[2.5545852000359446, 2.721964600030333, 3.0182418001350015, 3.697643700055778]	7.09	5.96	3.0	40hz	high_pain	49.0				sub-049	250	49	48	49	COM5	COM15	COM3	2024-11-15_14h48.19.807	001-EEG_SVR_Officel	2022.2.5	239.89674810025187		7.087999999999965	0_sub-pilot049_SVR_EEG_block1-2.protocol.csv	step33	4675	464.341	STIMULATE	49.0	49.0	49.0	49.0	49.0	33	451.091
445.105	0	445105	40/Hi	10001	0	0	0	0	15.0	0.0	15.0	0.0					469.2049670999404	476.3007613997906	476.3007613997906	6.8	['6', 'a', '8', 'return']	[2.5545852000359446, 2.721964600030333, 3.0182418001350015, 3.697643700055778]	7.09	5.96	3.0	40hz	high_pain	49.0				sub-049	250	49	48	49	COM5	COM15	COM3	2024-11-15_14h48.19.807	001-EEG_SVR_Officel	2022.2.5	239.89674810025187		5.967000000000041	0_sub-pilot049_SVR_EEG_block1-2.protocol.csv	step33	4675	464.341	STIMULATE	49.0	49.0	49.0	49.0	49.0	33	451.091
516.807	0	516807	wait	10004	1	0	1	0	0.0	0.0	0.0	0.0			p	1.972358400002122	554.7127014999278	560.1592411999591	560.1592411999591	5.5	['5', 'a', '5', 'return']	[3.3701196999754757, 3.7777011001016945, 3.9775008000433445, 4.738520900020376]	5.44	6.41	0.0	10hz	high_pain	49.0				sub-049	250	49	48	49	COM5	COM15	COM3	2024-11-15_14h48.19.807	001-EEG_SVR_Officel	2022.2.5	239.89674810025187		72.452	0_sub-pilot049_SVR_EEG_block1-2.protocol.csv	step35	5519	548.605	STIMULATE	49.0	48.9	49.0	49.0	49.3	35	535.3180000000001
522.246	0	522246	10hz	10003	1	0	1	0	0.0	0.0	0.0	0.0			p	1.972358400002122	554.7127014999278	560.1592411999591	560.1592411999591	5.5	['5', 'a', '5', 'return']	[3.3701196999754757, 3.7777011001016945, 3.9775008000433445, 4.738520900020376]	5.44	6.41	0.0	10hz	high_pain	49.0				sub-049	250	49	48	49	COM5	COM15	COM3	2024-11-15_14h48.19.807	001-EEG_SVR_Officel	2022.2.5	239.89674810025187		5.4389999999999645	0_sub-pilot049_SVR_EEG_block1-2.protocol.csv	step35	5519	548.605	STIMULATE	49.0	48.9	49.0	49.0	49.3	35	535.3180000000001
529.407	0	529407	10/Hi	10001	1	0	1	0	0.0	0.0	0.0	0.0			p	1.972358400002122	554.7127014999278	560.1592411999591	560.1592411999591	5.5	['5', 'a', '5', 'return']	[3.3701196999754757, 3.7777011001016945, 3.9775008000433445, 4.738520900020376]	5.44	6.41	0.0	10hz	high_pain	49.0				sub-049	250	49	48	49	COM5	COM15	COM3	2024-11-15_14h48.19.807	001-EEG_SVR_Officel	2022.2.5	239.89674810025187		6.411000000000058	0_sub-pilot049_SVR_EEG_block1-2.protocol.csv	step35	5519	548.605	STIMULATE	49.0	48.9	49.0	49.0	49.3	35	535.3180000000001
540.011	0	540011	wait	10004	1	0	1	0	1.0	0.0	1.0	0.0					577.9165254998952	584.3415252999403	584.3415252999403	5.0	['6', 'backspace', '5', 'return']	[2.687521800165996, 3.871044300030917, 4.366885400144383, 5.078504800098017]	6.42	6.21	1.0	controle	low_pain	48.0				sub-049	250	49	48	49	COM5	COM15	COM3	2024-11-15_14h48.19.807	001-EEG_SVR_Officel	2022.2.5	239.89674810025187		11.353999999999928	0_sub-pilot049_SVR_EEG_block1-2.protocol.csv	step37	5761	572.589	STIMULATE	48.2	47.9	47.9	48.0	48.1	37	559.3020000000001
546.428	0	546428	CNhz	10003	1	0	1	0	1.0	0.0	1.0	0.0					577.9165254998952	584.3415252999403	584.3415252999403	5.0	['6', 'backspace', '5', 'return']	[2.687521800165996, 3.871044300030917, 4.366885400144383, 5.078504800098017]	6.42	6.21	1.0	controle	low_pain	48.0				sub-049	250	49	48	49	COM5	COM15	COM3	2024-11-15_14h48.19.807	001-EEG_SVR_Officel	2022.2.5	239.89674810025187		6.41700000000003	0_sub-pilot049_SVR_EEG_block1-2.protocol.csv	step37	5761	572.589	STIMULATE	48.2	47.9	47.9	48.0	48.1	37	559.3020000000001
553.39	0	553390	CN/Lo	10001	1	0	1	0	1.0	0.0	1.0	0.0					577.9165254998952	584.3415252999403	584.3415252999403	5.0	['6', 'backspace', '5', 'return']	[2.687521800165996, 3.871044300030917, 4.366885400144383, 5.078504800098017]	6.42	6.21	1.0	controle	low_pain	48.0				sub-049	250	49	48	49	COM5	COM15	COM3	2024-11-15_14h48.19.807	001-EEG_SVR_Officel	2022.2.5	239.89674810025187		6.211999999999989	0_sub-pilot049_SVR_EEG_block1-2.protocol.csv	step37	5761	572.589	STIMULATE	48.2	47.9	47.9	48.0	48.1	37	559.3020000000001
564.528	0	564528	wait	10004	1	0	1	0	2.0	0.0	2.0	0.0					602.4332092998084	609.1136007998139	609.1136007998139	5.0	['5', 'return']	[2.555925500113517, 3.268881800118834]	6.67	5.28	2.0	controle	low_pain	48.0				sub-049	250	49	48	49	COM5	COM15	COM3	2024-11-15_14h48.19.807	001-EEG_SVR_Officel	2022.2.5	239.89674810025187		11.888000000000034	0_sub-pilot049_SVR_EEG_block1-2.protocol.csv	step39	6001	596.398	STIMULATE	48.0	47.9	48.0	48.0	48.1	39	583.1110000000001
571.2	0	571200	CNhz	10003	1	0	1	0	2.0	0.0	2.0	0.0					602.4332092998084	609.1136007998139	609.1136007998139	5.0	['5', 'return']	[2.555925500113517, 3.268881800118834]	6.67	5.28	2.0	controle	low_pain	48.0				sub-049	250	49	48	49	COM5	COM15	COM3	2024-11-15_14h48.19.807	001-EEG_SVR_Officel	2022.2.5	239.89674810025187		6.6720000000000255	0_sub-pilot049_SVR_EEG_block1-2.protocol.csv	step39	6001	596.398	STIMULATE	48.0	47.9	48.0	48.0	48.1	39	583.1110000000001
577.232	0	577232	CN/Lo	10001	1	0	1	0	2.0	0.0	2.0	0.0					602.4332092998084	609.1136007998139	609.1136007998139	5.0	['5', 'return']	[2.555925500113517, 3.268881800118834]	6.67	5.28	2.0	controle	low_pain	48.0				sub-049	250	49	48	49	COM5	COM15	COM3	2024-11-15_14h48.19.807	001-EEG_SVR_Officel	2022.2.5	239.89674810025187		5.281999999999925	0_sub-pilot049_SVR_EEG_block1-2.protocol.csv	step39	6001	596.398	STIMULATE	48.0	47.9	48.0	48.0	48.1	39	583.1110000000001
587.49	0	587490	wait	10004	1	0	1	0	3.0	0.0	3.0	0.0					625.3953616998624	633.0827442998998	633.0827442998998	6.5	['6', 'a', '5', 'return']	[2.750848799943924, 3.0064211001154035, 3.222503500059247, 3.9356162999756634]	7.68	5.0	3.0	20hz	high_pain	49.0				sub-049	250	49	48	49	COM5	COM15	COM3	2024-11-15_14h48.19.807	001-EEG_SVR_Officel	2022.2.5	239.89674810025187		11.008000000000038	0_sub-pilot049_SVR_EEG_block1-2.protocol.csv	step41	6241	620.123	STIMULATE	49.0	49.0	49.0	49.0	49.0	41	606.8360000000001
595.169	0	595169	20hz	10003	1	0	1	0	3.0	0.0	3.0	0.0					625.3953616998624	633.0827442998998	633.0827442998998	6.5	['6', 'a', '5', 'return']	[2.750848799943924, 3.0064211001154035, 3.222503500059247, 3.9356162999756634]	7.68	5.0	3.0	20hz	high_pain	49.0				sub-049	250	49	48	49	COM5	COM15	COM3	2024-11-15_14h48.19.807	001-EEG_SVR_Officel	2022.2.5	239.89674810025187		7.678999999999974	0_sub-pilot049_SVR_EEG_block1-2.protocol.csv	step41	6241	620.123	STIMULATE	49.0	49.0	49.0	49.0	49.0	41	606.8360000000001
600.923	0	600923	20/Hi	10001	1	0	1	0	3.0	0.0	3.0	0.0					625.3953616998624	633.0827442998998	633.0827442998998	6.5	['6', 'a', '5', 'return']	[2.750848799943924, 3.0064211001154035, 3.222503500059247, 3.9356162999756634]	7.68	5.0	3.0	20hz	high_pain	49.0				sub-049	250	49	48	49	COM5	COM15	COM3	2024-11-15_14h48.19.807	001-EEG_SVR_Officel	2022.2.5	239.89674810025187		5.004000000000019	0_sub-pilot049_SVR_EEG_block1-2.protocol.csv	step41	6241	620.123	STIMULATE	49.0	49.0	49.0	49.0	49.0	41	606.8360000000001
612.131	0	612131	wait	10004	1	0	1	0	4.0	0.0	4.0	0.0					650.0367783999536	657.6533794999123	657.6533794999123	6.0	['6', 'return']	[2.503406499978155, 3.135038400068879]	7.61	5.18	0.0	controle	high_pain	49.0				sub-049	250	49	48	49	COM5	COM15	COM3	2024-11-15_14h48.19.807	001-EEG_SVR_Officel	2022.2.5	239.89674810025187		11.95799999999997	0_sub-pilot049_SVR_EEG_block1-2.protocol.csv	step43	6490	644.83	STIMULATE	49.1	48.9	49.0	49.0	49.1	43	631.5430000000001
619.74	0	619740	CNhz	10003	1	0	1	0	4.0	0.0	4.0	0.0					650.0367783999536	657.6533794999123	657.6533794999123	6.0	['6', 'return']	[2.503406499978155, 3.135038400068879]	7.61	5.18	0.0	controle	high_pain	49.0				sub-049	250	49	48	49	COM5	COM15	COM3	2024-11-15_14h48.19.807	001-EEG_SVR_Officel	2022.2.5	239.89674810025187		7.609000000000037	0_sub-pilot049_SVR_EEG_block1-2.protocol.csv	step43	6490	644.83	STIMULATE	49.1	48.9	49.0	49.0	49.1	43	631.5430000000001
625.674	0	625674	CN/Hi	10001	1	0	1	0	4.0	0.0	4.0	0.0					650.0367783999536	657.6533794999123	657.6533794999123	6.0	['6', 'return']	[2.503406499978155, 3.135038400068879]	7.61	5.18	0.0	controle	high_pain	49.0				sub-049	250	49	48	49	COM5	COM15	COM3	2024-11-15_14h48.19.807	001-EEG_SVR_Officel	2022.2.5	239.89674810025187		5.183999999999969	0_sub-pilot049_SVR_EEG_block1-2.protocol.csv	step43	6490	644.83	STIMULATE	49.1	48.9	49.0	49.0	49.1	43	631.5430000000001
635.898	0	635898	wait	10004	1	0	1	0	5.0	0.0	5.0	0.0					673.8033190998249	679.7123485999182	679.7123485999182	6.5	['6', 'a', '5', 'return']	[2.673115100013092, 2.872947199968621, 3.081563799874857, 3.905492699937895]	5.9	5.16	1.0	10hz	high_pain	49.0				sub-049	250	49	48	49	COM5	COM15	COM3	2024-11-15_14h48.19.807	001-EEG_SVR_Officel	2022.2.5	239.89674810025187		10.974000000000046	0_sub-pilot049_SVR_EEG_block1-2.protocol.csv	step45	6713	666.903	STIMULATE	49.0	49.0	49.0	49.0	49.2	45	653.6160000000001
641.795	0	641795	10hz	10003	1	0	1	0	5.0	0.0	5.0	0.0					673.8033190998249	679.7123485999182	679.7123485999182	6.5	['6', 'a', '5', 'return']	[2.673115100013092, 2.872947199968621, 3.081563799874857, 3.905492699937895]	5.9	5.16	1.0	10hz	high_pain	49.0				sub-049	250	49	48	49	COM5	COM15	COM3	2024-11-15_14h48.19.807	001-EEG_SVR_Officel	2022.2.5	239.89674810025187		5.8969999999999345	0_sub-pilot049_SVR_EEG_block1-2.protocol.csv	step45	6713	666.903	STIMULATE	49.0	49.0	49.0	49.0	49.2	45	653.6160000000001
647.706	0	647706	10/Hi	10001	1	0	1	0	5.0	0.0	5.0	0.0					673.8033190998249	679.7123485999182	679.7123485999182	6.5	['6', 'a', '5', 'return']	[2.673115100013092, 2.872947199968621, 3.081563799874857, 3.905492699937895]	5.9	5.16	1.0	10hz	high_pain	49.0				sub-049	250	49	48	49	COM5	COM15	COM3	2024-11-15_14h48.19.807	001-EEG_SVR_Officel	2022.2.5	239.89674810025187		5.161000000000058	0_sub-pilot049_SVR_EEG_block1-2.protocol.csv	step45	6713	666.903	STIMULATE	49.0	49.0	49.0	49.0	49.2	45	653.6160000000001
658.723	0	658723	wait	10004	1	0	1	0	6.0	0.0	6.0	0.0					696.6282089999877	703.544729999965	703.544729999965	6.5	['6', 'a', '5', 'return']	[3.2026508999988437, 3.6991302999667823, 3.9071414000354707, 4.842789199901745]	6.91	5.36	2.0	40hz	low_pain	48.0				sub-049	250	49	48	49	COM5	COM15	COM3	2024-11-15_14h48.19.807	001-EEG_SVR_Officel	2022.2.5	239.89674810025187		11.766999999999939	0_sub-pilot049_SVR_EEG_block1-2.protocol.csv	step47	6955	691.015	STIMULATE	48.0	47.9	48.0	48.0	48.0	47	677.7280000000001
665.631	0	665631	40hz	10003	1	0	1	0	6.0	0.0	6.0	0.0					696.6282089999877	703.544729999965	703.544729999965	6.5	['6', 'a', '5', 'return']	[3.2026508999988437, 3.6991302999667823, 3.9071414000354707, 4.842789199901745]	6.91	5.36	2.0	40hz	low_pain	48.0				sub-049	250	49	48	49	COM5	COM15	COM3	2024-11-15_14h48.19.807	001-EEG_SVR_Officel	2022.2.5	239.89674810025187		6.9080000000000155	0_sub-pilot049_SVR_EEG_block1-2.protocol.csv	step47	6955	691.015	STIMULATE	48.0	47.9	48.0	48.0	48.0	47	677.7280000000001
671.743	0	671743	40/Lo	10001	1	0	1	0	6.0	0.0	6.0	0.0					696.6282089999877	703.544729999965	703.544729999965	6.5	['6', 'a', '5', 'return']	[3.2026508999988437, 3.6991302999667823, 3.9071414000354707, 4.842789199901745]	6.91	5.36	2.0	40hz	low_pain	48.0				sub-049	250	49	48	49	COM5	COM15	COM3	2024-11-15_14h48.19.807	001-EEG_SVR_Officel	2022.2.5	239.89674810025187		5.36200000000008	0_sub-pilot049_SVR_EEG_block1-2.protocol.csv	step47	6955	691.015	STIMULATE	48.0	47.9	48.0	48.0	48.0	47	677.7280000000001
683.507	0	683507	wait	10004	1	0	1	0	7.0	0.0	7.0	0.0					721.4126188999508	727.6123014998157	727.6123014998157	6.0	['6', 'return']	[2.6161313999909908, 3.5845687999390066]	6.19	5.19	3.0	40hz	low_pain	48.0				sub-049	250	49	48	49	COM5	COM15	COM3	2024-11-15_14h48.19.807	001-EEG_SVR_Officel	2022.2.5	239.89674810025187		12.513999999999896	0_sub-pilot049_SVR_EEG_block1-2.protocol.csv	step49	7196	714.838	STIMULATE	48.0	48.0	48.0	48.0	48.0	49	701.551
689.699	0	689699	40hz	10003	1	0	1	0	7.0	0.0	7.0	0.0					721.4126188999508	727.6123014998157	727.6123014998157	6.0	['6', 'return']	[2.6161313999909908, 3.5845687999390066]	6.19	5.19	3.0	40hz	low_pain	48.0				sub-049	250	49	48	49	COM5	COM15	COM3	2024-11-15_14h48.19.807	001-EEG_SVR_Officel	2022.2.5	239.89674810025187		6.192000000000007	0_sub-pilot049_SVR_EEG_block1-2.protocol.csv	step49	7196	714.838	STIMULATE	48.0	48.0	48.0	48.0	48.0	49	701.551
695.64	0	695640	40/Lo	10001	1	0	1	0	7.0	0.0	7.0	0.0					721.4126188999508	727.6123014998157	727.6123014998157	6.0	['6', 'return']	[2.6161313999909908, 3.5845687999390066]	6.19	5.19	3.0	40hz	low_pain	48.0				sub-049	250	49	48	49	COM5	COM15	COM3	2024-11-15_14h48.19.807	001-EEG_SVR_Officel	2022.2.5	239.89674810025187		5.191000000000031	0_sub-pilot049_SVR_EEG_block1-2.protocol.csv	step49	7196	714.838	STIMULATE	48.0	48.0	48.0	48.0	48.0	49	701.551
706.315	0	706315	wait	10004	1	0	1	0	8.0	0.0	8.0	0.0					744.2202947000042	750.7651022998616	750.7651022998616	5.5	['5', 'a', '5', 'return']	[3.239437500014901, 3.4480029998812824, 3.663369699846953, 4.5200261999852955]	6.54	6.31	0.0	10hz	low_pain	48.0				sub-049	250	49	48	49	COM5	COM15	COM3	2024-11-15_14h48.19.807	001-EEG_SVR_Officel	2022.2.5	239.89674810025187		11.425000000000068	0_sub-pilot049_SVR_EEG_block1-2.protocol.csv	step51	7441	739.1	STIMULATE	47.9	47.9	47.9	48.0	48.3	51	725.8130000000001
712.852	0	712852	10hz	10003	1	0	1	0	8.0	0.0	8.0	0.0					744.2202947000042	750.7651022998616	750.7651022998616	5.5	['5', 'a', '5', 'return']	[3.239437500014901, 3.4480029998812824, 3.663369699846953, 4.5200261999852955]	6.54	6.31	0.0	10hz	low_pain	48.0				sub-049	250	49	48	49	COM5	COM15	COM3	2024-11-15_14h48.19.807	001-EEG_SVR_Officel	2022.2.5	239.89674810025187		6.536999999999921	0_sub-pilot049_SVR_EEG_block1-2.protocol.csv	step51	7441	739.1	STIMULATE	47.9	47.9	47.9	48.0	48.3	51	725.8130000000001
719.914	0	719914	10/Lo	10001	1	0	1	0	8.0	0.0	8.0	0.0					744.2202947000042	750.7651022998616	750.7651022998616	5.5	['5', 'a', '5', 'return']	[3.239437500014901, 3.4480029998812824, 3.663369699846953, 4.5200261999852955]	6.54	6.31	0.0	10hz	low_pain	48.0				sub-049	250	49	48	49	COM5	COM15	COM3	2024-11-15_14h48.19.807	001-EEG_SVR_Officel	2022.2.5	239.89674810025187		6.312000000000012	0_sub-pilot049_SVR_EEG_block1-2.protocol.csv	step51	7441	739.1	STIMULATE	47.9	47.9	47.9	48.0	48.3	51	725.8130000000001
730.401	0	730401	wait	10004	1	0	1	0	9.0	0.0	9.0	0.0					768.306682099821	774.7107574997935	774.7107574997935	6.8	['6', 'a', '8', 'return']	[3.098808699985966, 3.2907760001253337, 3.5463326000608504, 4.266241300152615]	6.4	5.61	1.0	40hz	high_pain	49.0				sub-049	250	49	48	49	COM5	COM15	COM3	2024-11-15_14h48.19.807	001-EEG_SVR_Officel	2022.2.5	239.89674810025187		11.236999999999966	0_sub-pilot049_SVR_EEG_block1-2.protocol.csv	step53	7674	762.354	STIMULATE	49.0	49.0	49.0	49.0	49.2	53	749.0670000000001
736.797	0	736797	40hz	10003	1	0	1	0	9.0	0.0	9.0	0.0					768.306682099821	774.7107574997935	774.7107574997935	6.8	['6', 'a', '8', 'return']	[3.098808699985966, 3.2907760001253337, 3.5463326000608504, 4.266241300152615]	6.4	5.61	1.0	40hz	high_pain	49.0				sub-049	250	49	48	49	COM5	COM15	COM3	2024-11-15_14h48.19.807	001-EEG_SVR_Officel	2022.2.5	239.89674810025187		6.396000000000072	0_sub-pilot049_SVR_EEG_block1-2.protocol.csv	step53	7674	762.354	STIMULATE	49.0	49.0	49.0	49.0	49.2	53	749.0670000000001
743.159	0	743159	40/Hi	10001	1	0	1	0	9.0	0.0	9.0	0.0					768.306682099821	774.7107574997935	774.7107574997935	6.8	['6', 'a', '8', 'return']	[3.098808699985966, 3.2907760001253337, 3.5463326000608504, 4.266241300152615]	6.4	5.61	1.0	40hz	high_pain	49.0				sub-049	250	49	48	49	COM5	COM15	COM3	2024-11-15_14h48.19.807	001-EEG_SVR_Officel	2022.2.5	239.89674810025187		5.611999999999966	0_sub-pilot049_SVR_EEG_block1-2.protocol.csv	step53	7674	762.354	STIMULATE	49.0	49.0	49.0	49.0	49.2	53	749.0670000000001
754.075	0	754075	wait	10004	1	0	1	0	10.0	0.0	10.0	0.0					791.9809094998054	799.8855908999685	799.8855908999685	7.0	['7', 'return']	[3.718705100007355, 4.376164200017229]	7.9	6.38	2.0	10hz	high_pain	49.0				sub-049	250	49	48	49	COM5	COM15	COM3	2024-11-15_14h48.19.807	001-EEG_SVR_Officel	2022.2.5	239.89674810025187		11.666000000000054	0_sub-pilot049_SVR_EEG_block1-2.protocol.csv	step55	7934	788.265	STIMULATE	49.0	49.0	49.0	49.0	49.1	55	774.9780000000001
761.972	0	761972	10hz	10003	1	0	1	0	10.0	0.0	10.0	0.0					791.9809094998054	799.8855908999685	799.8855908999685	7.0	['7', 'return']	[3.718705100007355, 4.376164200017229]	7.9	6.38	2.0	10hz	high_pain	49.0				sub-049	250	49	48	49	COM5	COM15	COM3	2024-11-15_14h48.19.807	001-EEG_SVR_Officel	2022.2.5	239.89674810025187		7.8969999999999345	0_sub-pilot049_SVR_EEG_block1-2.protocol.csv	step55	7934	788.265	STIMULATE	49.0	49.0	49.0	49.0	49.1	55	774.9780000000001
769.105	0	769105	10/Hi	10001	1	0	1	0	10.0	0.0	10.0	0.0					791.9809094998054	799.8855908999685	799.8855908999685	7.0	['7', 'return']	[3.718705100007355, 4.376164200017229]	7.9	6.38	2.0	10hz	high_pain	49.0				sub-049	250	49	48	49	COM5	COM15	COM3	2024-11-15_14h48.19.807	001-EEG_SVR_Officel	2022.2.5	239.89674810025187		6.383000000000038	0_sub-pilot049_SVR_EEG_block1-2.protocol.csv	step55	7934	788.265	STIMULATE	49.0	49.0	49.0	49.0	49.1	55	774.9780000000001
779.372	0	779372	wait	10004	1	0	1	0	11.0	0.0	11.0	0.0					817.2770554998424	824.1265817999374	824.1265817999374	6.5	['6', 'a', '5', 'return']	[2.845834700157866, 3.405495800077915, 3.781791100045666, 4.669458700111136]	6.85	6.36	3.0	20hz	low_pain	48.0			837.1268787998706	sub-049	250	49	48	49	COM5	COM15	COM3	2024-11-15_14h48.19.807	001-EEG_SVR_Officel	2022.2.5	239.89674810025187		11.016999999999939	0_sub-pilot049_SVR_EEG_block1-2.protocol.csv	step57	8171	812.501	STIMULATE	48.0	48.0	48.0	48.0	48.0	57	799.214
786.218	0	786218	20hz	10003	1	0	1	0	11.0	0.0	11.0	0.0					817.2770554998424	824.1265817999374	824.1265817999374	6.5	['6', 'a', '5', 'return']	[2.845834700157866, 3.405495800077915, 3.781791100045666, 4.669458700111136]	6.85	6.36	3.0	20hz	low_pain	48.0			837.1268787998706	sub-049	250	49	48	49	COM5	COM15	COM3	2024-11-15_14h48.19.807	001-EEG_SVR_Officel	2022.2.5	239.89674810025187		6.846000000000004	0_sub-pilot049_SVR_EEG_block1-2.protocol.csv	step57	8171	812.501	STIMULATE	48.0	48.0	48.0	48.0	48.0	57	799.214
793.33	0	793330	20/Lo	10001	1	0	1	0	11.0	0.0	11.0	0.0					817.2770554998424	824.1265817999374	824.1265817999374	6.5	['6', 'a', '5', 'return']	[2.845834700157866, 3.405495800077915, 3.781791100045666, 4.669458700111136]	6.85	6.36	3.0	20hz	low_pain	48.0			837.1268787998706	sub-049	250	49	48	49	COM5	COM15	COM3	2024-11-15_14h48.19.807	001-EEG_SVR_Officel	2022.2.5	239.89674810025187		6.36200000000008	0_sub-pilot049_SVR_EEG_block1-2.protocol.csv	step57	8171	812.501	STIMULATE	48.0	48.0	48.0	48.0	48.0	57	799.214
803.91	0	803910	wait	10004	1	0	1	0	12.0	0.0	12.0	0.0					841.8157905999105	848.490833299933	848.490833299933	5.5	['5', 'a', '5', 'return']	[2.8580330999102443, 3.0661017999518663, 3.28158409986645, 4.290442199911922]	6.67	5.01	0.0	controle	low_pain	48.0				sub-049	250	49	48	49	COM5	COM15	COM3	2024-11-15_14h48.19.807	001-EEG_SVR_Officel	2022.2.5	239.89674810025187		11.329999999999927	0_sub-pilot049_SVR_EEG_block1-2.protocol.csv	step59	8393	835.574	STIMULATE	48.1	47.9	48.0	48.0	48.2	59	822.287
810.577	0	810577	CNhz	10003	1	0	1	0	12.0	0.0	12.0	0.0					841.8157905999105	848.490833299933	848.490833299933	5.5	['5', 'a', '5', 'return']	[2.8580330999102443, 3.0661017999518663, 3.28158409986645, 4.290442199911922]	6.67	5.01	0.0	controle	low_pain	48.0				sub-049	250	49	48	49	COM5	COM15	COM3	2024-11-15_14h48.19.807	001-EEG_SVR_Officel	2022.2.5	239.89674810025187		6.66700000000003	0_sub-pilot049_SVR_EEG_block1-2.protocol.csv	step59	8393	835.574	STIMULATE	48.1	47.9	48.0	48.0	48.2	59	822.287
816.343	0	816343	CN/Lo	10001	1	0	1	0	12.0	0.0	12.0	0.0					841.8157905999105	848.490833299933	848.490833299933	5.5	['5', 'a', '5', 'return']	[2.8580330999102443, 3.0661017999518663, 3.28158409986645, 4.290442199911922]	6.67	5.01	0.0	controle	low_pain	48.0				sub-049	250	49	48	49	COM5	COM15	COM3	2024-11-15_14h48.19.807	001-EEG_SVR_Officel	2022.2.5	239.89674810025187		5.015999999999963	0_sub-pilot049_SVR_EEG_block1-2.protocol.csv	step59	8393	835.574	STIMULATE	48.1	47.9	48.0	48.0	48.2	59	822.287
827.893	0	827893	wait	10004	1	0	1	0	13.0	0.0	13.0	0.0					865.798656999832	871.5641083999071	871.5641083999071	6.0	['6', 'return']	[2.8533784998580813, 3.5982858000788838]	5.76	5.5	1.0	40hz	low_pain	48.0				sub-049	250	49	48	49	COM5	COM15	COM3	2024-11-15_14h48.19.807	001-EEG_SVR_Officel	2022.2.5	239.89674810025187		12.300000000000068	0_sub-pilot049_SVR_EEG_block1-2.protocol.csv	step61	8618	859.115	STIMULATE	48.2	47.9	48.0	48.0	48.0	61	845.8280000000001
833.65	0	833650	40hz	10003	1	0	1	0	13.0	0.0	13.0	0.0					865.798656999832	871.5641083999071	871.5641083999071	6.0	['6', 'return']	[2.8533784998580813, 3.5982858000788838]	5.76	5.5	1.0	40hz	low_pain	48.0				sub-049	250	49	48	49	COM5	COM15	COM3	2024-11-15_14h48.19.807	001-EEG_SVR_Officel	2022.2.5	239.89674810025187		5.756999999999948	0_sub-pilot049_SVR_EEG_block1-2.protocol.csv	step61	8618	859.115	STIMULATE	48.2	47.9	48.0	48.0	48.0	61	845.8280000000001
839.904	0	839904	40/Lo	10001	1	0	1	0	13.0	0.0	13.0	0.0					865.798656999832	871.5641083999071	871.5641083999071	6.0	['6', 'return']	[2.8533784998580813, 3.5982858000788838]	5.76	5.5	1.0	40hz	low_pain	48.0				sub-049	250	49	48	49	COM5	COM15	COM3	2024-11-15_14h48.19.807	001-EEG_SVR_Officel	2022.2.5	239.89674810025187		5.504000000000019	0_sub-pilot049_SVR_EEG_block1-2.protocol.csv	step61	8618	859.115	STIMULATE	48.2	47.9	48.0	48.0	48.0	61	845.8280000000001
850.275	0	850275	wait	10004	1	0	1	0	14.0	0.0	14.0	0.0					888.1806804998778	893.8347697998397	893.8347697998397	6.0	['6', 'return']	[2.5703257001005113, 3.499054400017485]	5.65	5.17	2.0	controle	high_pain	49.0				sub-049	250	49	48	49	COM5	COM15	COM3	2024-11-15_14h48.19.807	001-EEG_SVR_Officel	2022.2.5	239.89674810025187		11.120999999999981	0_sub-pilot049_SVR_EEG_block1-2.protocol.csv	step63	8825	881.007	STIMULATE	49.1	49.0	49.0	49.0	49.0	63	867.72
855.921	0	855921	CNhz	10003	1	0	1	0	14.0	0.0	14.0	0.0					888.1806804998778	893.8347697998397	893.8347697998397	6.0	['6', 'return']	[2.5703257001005113, 3.499054400017485]	5.65	5.17	2.0	controle	high_pain	49.0				sub-049	250	49	48	49	COM5	COM15	COM3	2024-11-15_14h48.19.807	001-EEG_SVR_Officel	2022.2.5	239.89674810025187		5.646000000000072	0_sub-pilot049_SVR_EEG_block1-2.protocol.csv	step63	8825	881.007	STIMULATE	49.1	49.0	49.0	49.0	49.0	63	867.72
861.842	0	861842	CN/Hi	10001	1	0	1	0	14.0	0.0	14.0	0.0					888.1806804998778	893.8347697998397	893.8347697998397	6.0	['6', 'return']	[2.5703257001005113, 3.499054400017485]	5.65	5.17	2.0	controle	high_pain	49.0				sub-049	250	49	48	49	COM5	COM15	COM3	2024-11-15_14h48.19.807	001-EEG_SVR_Officel	2022.2.5	239.89674810025187		5.170999999999935	0_sub-pilot049_SVR_EEG_block1-2.protocol.csv	step63	8825	881.007	STIMULATE	49.1	49.0	49.0	49.0	49.0	63	867.72
872.437	0	872437	wait	10004	1	0	1	0	15.0	0.0	15.0	0.0					910.342486599926	916.7098585998174	916.7098585998174	6.0	['6', 'return']	[2.8321465998888016, 3.447366900043562]	6.36	6.15	3.0	10hz	low_pain	48.0				sub-049	250	49	48	49	COM5	COM15	COM3	2024-11-15_14h48.19.807	001-EEG_SVR_Officel	2022.2.5	239.89674810025187		11.345000000000027	0_sub-pilot049_SVR_EEG_block1-2.protocol.csv	step65	9050	904.917	STIMULATE	48.0	47.9	48.0	48.0	48.0	65	891.6300000000001
878.797	0	878797	10hz	10003	1	0	1	0	15.0	0.0	15.0	0.0					910.342486599926	916.7098585998174	916.7098585998174	6.0	['6', 'return']	[2.8321465998888016, 3.447366900043562]	6.36	6.15	3.0	10hz	low_pain	48.0				sub-049	250	49	48	49	COM5	COM15	COM3	2024-11-15_14h48.19.807	001-EEG_SVR_Officel	2022.2.5	239.89674810025187		6.360000000000014	0_sub-pilot049_SVR_EEG_block1-2.protocol.csv	step65	9050	904.917	STIMULATE	48.0	47.9	48.0	48.0	48.0	65	891.6300000000001
885.701	0	885701	10/Lo	10001	1	0	1	0	15.0	0.0	15.0	0.0					910.342486599926	916.7098585998174	916.7098585998174	6.0	['6', 'return']	[2.8321465998888016, 3.447366900043562]	6.36	6.15	3.0	10hz	low_pain	48.0				sub-049	250	49	48	49	COM5	COM15	COM3	2024-11-15_14h48.19.807	001-EEG_SVR_Officel	2022.2.5	239.89674810025187		6.153999999999996	0_sub-pilot049_SVR_EEG_block1-2.protocol.csv	step65	9050	904.917	STIMULATE	48.0	47.9	48.0	48.0	48.0	65	891.6300000000001
955.405	0	955405	wait	10004	2	0	2	0	0.0	0.0	0.0	0.0			p	1.0165290001314131	1052.4383534998633	1057.4417587998323	1057.4417587998323	4.0	['4', 'return']	[2.594668700126931, 3.428374700015411]	5.0	5.69	0.0	10hz	low_pain	48.0				sub-049	250	49	48	49	COM5	COM15	COM3	2024-11-15_14h48.19.807	001-EEG_SVR_Officel	2022.2.5	239.89674810025187		70.45399999999995	1_sub-pilot049_SVR_EEG_block3-4.protocol.csv	step3	1244	124.201	STIMULATE	48.1	47.9	47.9	47.9	48.1	3	972.615
960.4	0	960400	10hz	10003	2	0	2	0	0.0	0.0	0.0	0.0			p	1.0165290001314131	1052.4383534998633	1057.4417587998323	1057.4417587998323	4.0	['4', 'return']	[2.594668700126931, 3.428374700015411]	5.0	5.69	0.0	10hz	low_pain	48.0				sub-049	250	49	48	49	COM5	COM15	COM3	2024-11-15_14h48.19.807	001-EEG_SVR_Officel	2022.2.5	239.89674810025187		4.9950000000000045	1_sub-pilot049_SVR_EEG_block3-4.protocol.csv	step3	1244	124.201	STIMULATE	48.1	47.9	47.9	47.9	48.1	3	972.615
966.842	0	966842	10/Lo	10001	2	0	2	0	0.0	0.0	0.0	0.0			p	1.0165290001314131	1052.4383534998633	1057.4417587998323	1057.4417587998323	4.0	['4', 'return']	[2.594668700126931, 3.428374700015411]	5.0	5.69	0.0	10hz	low_pain	48.0				sub-049	250	49	48	49	COM5	COM15	COM3	2024-11-15_14h48.19.807	001-EEG_SVR_Officel	2022.2.5	239.89674810025187		5.692000000000007	1_sub-pilot049_SVR_EEG_block3-4.protocol.csv	step3	1244	124.201	STIMULATE	48.1	47.9	47.9	47.9	48.1	3	972.615
976.85	0	976850	wait	10004	2	0	2	0	1.0	0.0	1.0	0.0					1073.8833716998342	1079.0426609998103	1079.0426609998103	5.5	['5', 'a', '5', 'return']	[3.0352093998808414, 3.5156326999422163, 5.611187899950892, 6.396402899874374]	5.15	6.19	1.0	10hz	high_pain	49.0				sub-049	250	49	48	49	COM5	COM15	COM3	2024-11-15_14h48.19.807	001-EEG_SVR_Officel	2022.2.5	239.89674810025187		10.758000000000038	1_sub-pilot049_SVR_EEG_block3-4.protocol.csv	step5	1468	146.44	STIMULATE	49.0	48.9	49.0	49.0	49.2	5	994.854
982.001	0	982001	10hz	10003	2	0	2	0	1.0	0.0	1.0	0.0					1073.8833716998342	1079.0426609998103	1079.0426609998103	5.5	['5', 'a', '5', 'return']	[3.0352093998808414, 3.5156326999422163, 5.611187899950892, 6.396402899874374]	5.15	6.19	1.0	10hz	high_pain	49.0				sub-049	250	49	48	49	COM5	COM15	COM3	2024-11-15_14h48.19.807	001-EEG_SVR_Officel	2022.2.5	239.89674810025187		5.150999999999954	1_sub-pilot049_SVR_EEG_block3-4.protocol.csv	step5	1468	146.44	STIMULATE	49.0	48.9	49.0	49.0	49.2	5	994.854
988.943	0	988943	10/Hi	10001	2	0	2	0	1.0	0.0	1.0	0.0					1073.8833716998342	1079.0426609998103	1079.0426609998103	5.5	['5', 'a', '5', 'return']	[3.0352093998808414, 3.5156326999422163, 5.611187899950892, 6.396402899874374]	5.15	6.19	1.0	10hz	high_pain	49.0				sub-049	250	49	48	49	COM5	COM15	COM3	2024-11-15_14h48.19.807	001-EEG_SVR_Officel	2022.2.5	239.89674810025187		6.192000000000007	1_sub-pilot049_SVR_EEG_block3-4.protocol.csv	step5	1468	146.44	STIMULATE	49.0	48.9	49.0	49.0	49.2	5	994.854
1001.421	0	1001421	wait	10004	2	0	2	0	2.0	0.0	2.0	0.0					1098.4540548999794	1104.0049548000095	1104.0049548000095	4.0	['4', 'return']	[2.7372630999889225, 3.657071099849418]	5.54	5.4	2.0	20hz	low_pain	48.0				sub-049	250	49	48	49	COM5	COM15	COM3	2024-11-15_14h48.19.807	001-EEG_SVR_Officel	2022.2.5	239.89674810025187		13.228000000000065	1_sub-pilot049_SVR_EEG_block3-4.protocol.csv	step7	1711	170.571	STIMULATE	48.0	47.9	48.0	47.9	48.0	7	1018.985
1006.964	0	1006964	20hz	10003	2	0	2	0	2.0	0.0	2.0	0.0					1098.4540548999794	1104.0049548000095	1104.0049548000095	4.0	['4', 'return']	[2.7372630999889225, 3.657071099849418]	5.54	5.4	2.0	20hz	low_pain	48.0				sub-049	250	49	48	49	COM5	COM15	COM3	2024-11-15_14h48.19.807	001-EEG_SVR_Officel	2022.2.5	239.89674810025187		5.543000000000006	1_sub-pilot049_SVR_EEG_block3-4.protocol.csv	step7	1711	170.571	STIMULATE	48.0	47.9	48.0	47.9	48.0	7	1018.985
1013.117	0	1013117	20/Lo	10001	2	0	2	0	2.0	0.0	2.0	0.0					1098.4540548999794	1104.0049548000095	1104.0049548000095	4.0	['4', 'return']	[2.7372630999889225, 3.657071099849418]	5.54	5.4	2.0	20hz	low_pain	48.0				sub-049	250	49	48	49	COM5	COM15	COM3	2024-11-15_14h48.19.807	001-EEG_SVR_Officel	2022.2.5	239.89674810025187		5.402999999999906	1_sub-pilot049_SVR_EEG_block3-4.protocol.csv	step7	1711	170.571	STIMULATE	48.0	47.9	48.0	47.9	48.0	7	1018.985
1023.637	0	1023637	wait	10004	2	0	2	0	3.0	0.0	3.0	0.0					1120.6700013999362	1127.3543511999303	1127.3543511999303	5.5	['5', 'a', '5', 'return']	[2.4752219999209046, 3.2273979999590665, 3.4988414000254124, 4.203540199901909]	6.68	5.03	3.0	controle	high_pain	49.0				sub-049	250	49	48	49	COM5	COM15	COM3	2024-11-15_14h48.19.807	001-EEG_SVR_Officel	2022.2.5	239.89674810025187		11.269999999999982	1_sub-pilot049_SVR_EEG_block3-4.protocol.csv	step9	1943	193.568	STIMULATE	49.0	49.0	49.0	49.0	49.0	9	1041.982
1030.313	0	1030313	CNhz	10003	2	0	2	0	3.0	0.0	3.0	0.0					1120.6700013999362	1127.3543511999303	1127.3543511999303	5.5	['5', 'a', '5', 'return']	[2.4752219999209046, 3.2273979999590665, 3.4988414000254124, 4.203540199901909]	6.68	5.03	3.0	controle	high_pain	49.0				sub-049	250	49	48	49	COM5	COM15	COM3	2024-11-15_14h48.19.807	001-EEG_SVR_Officel	2022.2.5	239.89674810025187		6.676000000000158	1_sub-pilot049_SVR_EEG_block3-4.protocol.csv	step9	1943	193.568	STIMULATE	49.0	49.0	49.0	49.0	49.0	9	1041.982
1036.095	0	1036095	CN/Hi	10001	2	0	2	0	3.0	0.0	3.0	0.0					1120.6700013999362	1127.3543511999303	1127.3543511999303	5.5	['5', 'a', '5', 'return']	[2.4752219999209046, 3.2273979999590665, 3.4988414000254124, 4.203540199901909]	6.68	5.03	3.0	controle	high_pain	49.0				sub-049	250	49	48	49	COM5	COM15	COM3	2024-11-15_14h48.19.807	001-EEG_SVR_Officel	2022.2.5	239.89674810025187		5.031999999999925	1_sub-pilot049_SVR_EEG_block3-4.protocol.csv	step9	1943	193.568	STIMULATE	49.0	49.0	49.0	49.0	49.0	9	1041.982
1047.537	0	1047537	wait	10004	2	0	2	0	4.0	0.0	4.0	0.0					1144.5702062000055	1151.9197237999178	1151.9197237999178	4.5	['4', 'a', '5', 'return']	[3.3170037001837045, 3.5168584999628365, 3.724871400045231, 4.4376990001183]	7.35	5.67	0.0	controle	low_pain	48.0			1164.9200273999013	sub-049	250	49	48	49	COM5	COM15	COM3	2024-11-15_14h48.19.807	001-EEG_SVR_Officel	2022.2.5	239.89674810025187		12.192000000000007	1_sub-pilot049_SVR_EEG_block3-4.protocol.csv	step11	2198	218.845	STIMULATE	48.0	47.9	47.9	48.0	48.2	11	1067.259
1054.883	0	1054883	CNhz	10003	2	0	2	0	4.0	0.0	4.0	0.0					1144.5702062000055	1151.9197237999178	1151.9197237999178	4.5	['4', 'a', '5', 'return']	[3.3170037001837045, 3.5168584999628365, 3.724871400045231, 4.4376990001183]	7.35	5.67	0.0	controle	low_pain	48.0			1164.9200273999013	sub-049	250	49	48	49	COM5	COM15	COM3	2024-11-15_14h48.19.807	001-EEG_SVR_Officel	2022.2.5	239.89674810025187		7.346000000000004	1_sub-pilot049_SVR_EEG_block3-4.protocol.csv	step11	2198	218.845	STIMULATE	48.0	47.9	47.9	48.0	48.2	11	1067.259
1061.303	0	1061303	CN/Lo	10001	2	0	2	0	4.0	0.0	4.0	0.0					1144.5702062000055	1151.9197237999178	1151.9197237999178	4.5	['4', 'a', '5', 'return']	[3.3170037001837045, 3.5168584999628365, 3.724871400045231, 4.4376990001183]	7.35	5.67	0.0	controle	low_pain	48.0			1164.9200273999013	sub-049	250	49	48	49	COM5	COM15	COM3	2024-11-15_14h48.19.807	001-EEG_SVR_Officel	2022.2.5	239.89674810025187		5.670000000000073	1_sub-pilot049_SVR_EEG_block3-4.protocol.csv	step11	2198	218.845	STIMULATE	48.0	47.9	47.9	48.0	48.2	11	1067.259
1072.336	0	1072336	wait	10004	2	0	2	0	5.0	0.0	5.0	0.0					1169.3696132998448	1176.174189799931	1176.174189799931	5.0	['5', 'return']	[2.7192315000575036, 3.295373300090432]	6.8	6.41	1.0	controle	low_pain	48.0				sub-049	250	49	48	49	COM5	COM15	COM3	2024-11-15_14h48.19.807	001-EEG_SVR_Officel	2022.2.5	239.89674810025187		11.782999999999902	1_sub-pilot049_SVR_EEG_block3-4.protocol.csv	step13	2449	243.773	STIMULATE	48.0	47.9	47.9	47.9	48.1	13	1092.187
1079.133	0	1079133	CNhz	10003	2	0	2	0	5.0	0.0	5.0	0.0					1169.3696132998448	1176.174189799931	1176.174189799931	5.0	['5', 'return']	[2.7192315000575036, 3.295373300090432]	6.8	6.41	1.0	controle	low_pain	48.0				sub-049	250	49	48	49	COM5	COM15	COM3	2024-11-15_14h48.19.807	001-EEG_SVR_Officel	2022.2.5	239.89674810025187		6.7970000000000255	1_sub-pilot049_SVR_EEG_block3-4.protocol.csv	step13	2449	243.773	STIMULATE	48.0	47.9	47.9	47.9	48.1	13	1092.187
1086.295	0	1086295	CN/Lo	10001	2	0	2	0	5.0	0.0	5.0	0.0					1169.3696132998448	1176.174189799931	1176.174189799931	5.0	['5', 'return']	[2.7192315000575036, 3.295373300090432]	6.8	6.41	1.0	controle	low_pain	48.0				sub-049	250	49	48	49	COM5	COM15	COM3	2024-11-15_14h48.19.807	001-EEG_SVR_Officel	2022.2.5	239.89674810025187		6.412000000000035	1_sub-pilot049_SVR_EEG_block3-4.protocol.csv	step13	2449	243.773	STIMULATE	48.0	47.9	47.9	47.9	48.1	13	1092.187
1095.449	0	1095449	wait	10004	2	0	2	0	6.0	0.0	6.0	0.0					1192.482353099855	1199.3866393999197	1199.3866393999197	5.5	['5', 'a', '5', 'return']	[2.394613099982962, 2.602633100003004, 2.7867121000308543, 3.51485490007326]	6.9	5.44	2.0	20hz	high_pain	49.0				sub-049	250	49	48	49	COM5	COM15	COM3	2024-11-15_14h48.19.807	001-EEG_SVR_Officel	2022.2.5	239.89674810025187		9.903999999999996	1_sub-pilot049_SVR_EEG_block3-4.protocol.csv	step15	2674	266.027	STIMULATE	49.0	49.0	49.0	49.0	49.2	15	1114.441
1102.345	0	1102345	20hz	10003	2	0	2	0	6.0	0.0	6.0	0.0					1192.482353099855	1199.3866393999197	1199.3866393999197	5.5	['5', 'a', '5', 'return']	[2.394613099982962, 2.602633100003004, 2.7867121000308543, 3.51485490007326]	6.9	5.44	2.0	20hz	high_pain	49.0				sub-049	250	49	48	49	COM5	COM15	COM3	2024-11-15_14h48.19.807	001-EEG_SVR_Officel	2022.2.5	239.89674810025187		6.895999999999958	1_sub-pilot049_SVR_EEG_block3-4.protocol.csv	step15	2674	266.027	STIMULATE	49.0	49.0	49.0	49.0	49.2	15	1114.441
1108.537	0	1108537	20/Hi	10001	2	0	2	0	6.0	0.0	6.0	0.0					1192.482353099855	1199.3866393999197	1199.3866393999197	5.5	['5', 'a', '5', 'return']	[2.394613099982962, 2.602633100003004, 2.7867121000308543, 3.51485490007326]	6.9	5.44	2.0	20hz	high_pain	49.0				sub-049	250	49	48	49	COM5	COM15	COM3	2024-11-15_14h48.19.807	001-EEG_SVR_Officel	2022.2.5	239.89674810025187		5.442000000000007	1_sub-pilot049_SVR_EEG_block3-4.protocol.csv	step15	2674	266.027	STIMULATE	49.0	49.0	49.0	49.0	49.2	15	1114.441
1118.896	0	1118896	wait	10004	2	0	2	0	7.0	0.0	7.0	0.0					1215.9291526000015	1222.7952006999403	1222.7952006999403	6.5	['6', 'a', '5', 'return']	[2.6107252000365406, 2.8823916998226196, 3.0903290999121964, 3.8580757998861372]	6.86	5.56	3.0	40hz	high_pain	49.0				sub-049	250	49	48	49	COM5	COM15	COM3	2024-11-15_14h48.19.807	001-EEG_SVR_Officel	2022.2.5	239.89674810025187		11.108999999999924	1_sub-pilot049_SVR_EEG_block3-4.protocol.csv	step17	2911	289.582	STIMULATE	49.0	49.0	49.0	49.0	49.0	17	1137.996
1125.755	0	1125755	40hz	10003	2	0	2	0	7.0	0.0	7.0	0.0					1215.9291526000015	1222.7952006999403	1222.7952006999403	6.5	['6', 'a', '5', 'return']	[2.6107252000365406, 2.8823916998226196, 3.0903290999121964, 3.8580757998861372]	6.86	5.56	3.0	40hz	high_pain	49.0				sub-049	250	49	48	49	COM5	COM15	COM3	2024-11-15_14h48.19.807	001-EEG_SVR_Officel	2022.2.5	239.89674810025187		6.859000000000151	1_sub-pilot049_SVR_EEG_block3-4.protocol.csv	step17	2911	289.582	STIMULATE	49.0	49.0	49.0	49.0	49.0	17	1137.996
1132.065	0	1132065	40/Hi	10001	2	0	2	0	7.0	0.0	7.0	0.0					1215.9291526000015	1222.7952006999403	1222.7952006999403	6.5	['6', 'a', '5', 'return']	[2.6107252000365406, 2.8823916998226196, 3.0903290999121964, 3.8580757998861372]	6.86	5.56	3.0	40hz	high_pain	49.0				sub-049	250	49	48	49	COM5	COM15	COM3	2024-11-15_14h48.19.807	001-EEG_SVR_Officel	2022.2.5	239.89674810025187		5.559999999999945	1_sub-pilot049_SVR_EEG_block3-4.protocol.csv	step17	2911	289.582	STIMULATE	49.0	49.0	49.0	49.0	49.0	17	1137.996
1142.632	0	1142632	wait	10004	2	0	2	0	8.0	0.0	8.0	0.0					1239.6652991999872	1246.2784721998032	1246.2784721998032	7.0	['7', 'return']	[2.559633200056851, 3.135879199951887]	6.61	5.91	0.0	controle	high_pain	49.0				sub-049	250	49	48	49	COM5	COM15	COM3	2024-11-15_14h48.19.807	001-EEG_SVR_Officel	2022.2.5	239.89674810025187		11.317000000000007	1_sub-pilot049_SVR_EEG_block3-4.protocol.csv	step19	3151	313.345	STIMULATE	49.3	48.9	49.0	49.0	49.0	19	1161.759
1149.237	0	1149237	CNhz	10003	2	0	2	0	8.0	0.0	8.0	0.0					1239.6652991999872	1246.2784721998032	1246.2784721998032	7.0	['7', 'return']	[2.559633200056851, 3.135879199951887]	6.61	5.91	0.0	controle	high_pain	49.0				sub-049	250	49	48	49	COM5	COM15	COM3	2024-11-15_14h48.19.807	001-EEG_SVR_Officel	2022.2.5	239.89674810025187		6.605000000000018	1_sub-pilot049_SVR_EEG_block3-4.protocol.csv	step19	3151	313.345	STIMULATE	49.3	48.9	49.0	49.0	49.0	19	1161.759
1155.899	0	1155899	CN/Hi	10001	2	0	2	0	8.0	0.0	8.0	0.0					1239.6652991999872	1246.2784721998032	1246.2784721998032	7.0	['7', 'return']	[2.559633200056851, 3.135879199951887]	6.61	5.91	0.0	controle	high_pain	49.0				sub-049	250	49	48	49	COM5	COM15	COM3	2024-11-15_14h48.19.807	001-EEG_SVR_Officel	2022.2.5	239.89674810025187		5.911999999999807	1_sub-pilot049_SVR_EEG_block3-4.protocol.csv	step19	3151	313.345	STIMULATE	49.3	48.9	49.0	49.0	49.0	19	1161.759
1165.39	0	1165390	wait	10004	2	0	2	0	9.0	0.0	9.0	0.0					1262.4230066998862	1269.3494201998692	1269.3494201998692	6.0	['6', 'return']	[2.625119499862194, 3.21744509995915]	6.92	6.14	1.0	40hz	low_pain	48.0				sub-049	250	49	48	49	COM5	COM15	COM3	2024-11-15_14h48.19.807	001-EEG_SVR_Officel	2022.2.5	239.89674810025187		10.241000000000213	1_sub-pilot049_SVR_EEG_block3-4.protocol.csv	step21	3387	336.731	STIMULATE	48.2	47.9	48.0	48.0	48.0	21	1185.145
1172.308	0	1172308	40hz	10003	2	0	2	0	9.0	0.0	9.0	0.0					1262.4230066998862	1269.3494201998692	1269.3494201998692	6.0	['6', 'return']	[2.625119499862194, 3.21744509995915]	6.92	6.14	1.0	40hz	low_pain	48.0				sub-049	250	49	48	49	COM5	COM15	COM3	2024-11-15_14h48.19.807	001-EEG_SVR_Officel	2022.2.5	239.89674810025187		6.917999999999893	1_sub-pilot049_SVR_EEG_block3-4.protocol.csv	step21	3387	336.731	STIMULATE	48.2	47.9	48.0	48.0	48.0	21	1185.145
1179.198	0	1179198	40/Lo	10001	2	0	2	0	9.0	0.0	9.0	0.0					1262.4230066998862	1269.3494201998692	1269.3494201998692	6.0	['6', 'return']	[2.625119499862194, 3.21744509995915]	6.92	6.14	1.0	40hz	low_pain	48.0				sub-049	250	49	48	49	COM5	COM15	COM3	2024-11-15_14h48.19.807	001-EEG_SVR_Officel	2022.2.5	239.89674810025187		6.1400000000001	1_sub-pilot049_SVR_EEG_block3-4.protocol.csv	step21	3387	336.731	STIMULATE	48.2	47.9	48.0	48.0	48.0	21	1185.145
1188.548	0	1188548	wait	10004	2	0	2	0	10.0	0.0	10.0	0.0					1285.5816067999694	1291.919792199973	1291.919792199973	7.0	['7', 'return']	[2.36568840011023, 2.8948624001350254]	6.33	6.23	2.0	40hz	high_pain	49.0				sub-049	250	49	48	49	COM5	COM15	COM3	2024-11-15_14h48.19.807	001-EEG_SVR_Officel	2022.2.5	239.89674810025187		10.099999999999909	1_sub-pilot049_SVR_EEG_block3-4.protocol.csv	step23	3615	359.364	STIMULATE	49.0	49.0	49.0	49.0	49.2	23	1207.778
1194.878	0	1194878	40hz	10003	2	0	2	0	10.0	0.0	10.0	0.0					1285.5816067999694	1291.919792199973	1291.919792199973	7.0	['7', 'return']	[2.36568840011023, 2.8948624001350254]	6.33	6.23	2.0	40hz	high_pain	49.0				sub-049	250	49	48	49	COM5	COM15	COM3	2024-11-15_14h48.19.807	001-EEG_SVR_Officel	2022.2.5	239.89674810025187		6.329999999999927	1_sub-pilot049_SVR_EEG_block3-4.protocol.csv	step23	3615	359.364	STIMULATE	49.0	49.0	49.0	49.0	49.2	23	1207.778
1201.861	0	1201861	40/Hi	10001	2	0	2	0	10.0	0.0	10.0	0.0					1285.5816067999694	1291.919792199973	1291.919792199973	7.0	['7', 'return']	[2.36568840011023, 2.8948624001350254]	6.33	6.23	2.0	40hz	high_pain	49.0				sub-049	250	49	48	49	COM5	COM15	COM3	2024-11-15_14h48.19.807	001-EEG_SVR_Officel	2022.2.5	239.89674810025187		6.233000000000175	1_sub-pilot049_SVR_EEG_block3-4.protocol.csv	step23	3615	359.364	STIMULATE	49.0	49.0	49.0	49.0	49.2	23	1207.778
1210.794	0	1210794	wait	10004	2	0	2	0	11.0	0.0	11.0	0.0					1307.8273040999193	1315.102182699833	1315.102182699833	6.5	['6', 'a', '5', 'return']	[2.7990992998238653, 3.0400109998881817, 3.2709382998291403, 4.032905099913478]	7.27	6.27	3.0	10hz	high_pain	49.0				sub-049	250	49	48	49	COM5	COM15	COM3	2024-11-15_14h48.19.807	001-EEG_SVR_Officel	2022.2.5	239.89674810025187		9.682999999999993	1_sub-pilot049_SVR_EEG_block3-4.protocol.csv	step25	3849	382.533	STIMULATE	49.0	49.0	49.0	49.0	49.0	25	1230.9470000000001
1218.061	0	1218061	10hz	10003	2	0	2	0	11.0	0.0	11.0	0.0					1307.8273040999193	1315.102182699833	1315.102182699833	6.5	['6', 'a', '5', 'return']	[2.7990992998238653, 3.0400109998881817, 3.2709382998291403, 4.032905099913478]	7.27	6.27	3.0	10hz	high_pain	49.0				sub-049	250	49	48	49	COM5	COM15	COM3	2024-11-15_14h48.19.807	001-EEG_SVR_Officel	2022.2.5	239.89674810025187		7.266999999999825	1_sub-pilot049_SVR_EEG_block3-4.protocol.csv	step25	3849	382.533	STIMULATE	49.0	49.0	49.0	49.0	49.0	25	1230.9470000000001
1225.085	0	1225085	10/Hi	10001	2	0	2	0	11.0	0.0	11.0	0.0					1307.8273040999193	1315.102182699833	1315.102182699833	6.5	['6', 'a', '5', 'return']	[2.7990992998238653, 3.0400109998881817, 3.2709382998291403, 4.032905099913478]	7.27	6.27	3.0	10hz	high_pain	49.0				sub-049	250	49	48	49	COM5	COM15	COM3	2024-11-15_14h48.19.807	001-EEG_SVR_Officel	2022.2.5	239.89674810025187		6.274000000000115	1_sub-pilot049_SVR_EEG_block3-4.protocol.csv	step25	3849	382.533	STIMULATE	49.0	49.0	49.0	49.0	49.0	25	1230.9470000000001
1235.11	0	1235110	wait	10004	2	0	2	0	12.0	0.0	12.0	0.0					1332.1432127999142	1339.777195499977	1339.777195499977	6.0	['6', 'return']	[2.0680999998003244, 2.8043190999887884]	7.63	5.49	0.0	40hz	low_pain	48.0				sub-049	250	49	48	49	COM5	COM15	COM3	2024-11-15_14h48.19.807	001-EEG_SVR_Officel	2022.2.5	239.89674810025187		10.774999999999864	1_sub-pilot049_SVR_EEG_block3-4.protocol.csv	step27	4090	406.472	STIMULATE	48.0	47.9	48.0	48.0	48.2	27	1254.886
1242.735	0	1242735	40hz	10003	2	0	2	0	12.0	0.0	12.0	0.0					1332.1432127999142	1339.777195499977	1339.777195499977	6.0	['6', 'return']	[2.0680999998003244, 2.8043190999887884]	7.63	5.49	0.0	40hz	low_pain	48.0				sub-049	250	49	48	49	COM5	COM15	COM3	2024-11-15_14h48.19.807	001-EEG_SVR_Officel	2022.2.5	239.89674810025187		7.625	1_sub-pilot049_SVR_EEG_block3-4.protocol.csv	step27	4090	406.472	STIMULATE	48.0	47.9	48.0	48.0	48.2	27	1254.886
1248.977	0	1248977	40/Lo	10001	2	0	2	0	12.0	0.0	12.0	0.0					1332.1432127999142	1339.777195499977	1339.777195499977	6.0	['6', 'return']	[2.0680999998003244, 2.8043190999887884]	7.63	5.49	0.0	40hz	low_pain	48.0				sub-049	250	49	48	49	COM5	COM15	COM3	2024-11-15_14h48.19.807	001-EEG_SVR_Officel	2022.2.5	239.89674810025187		5.492000000000189	1_sub-pilot049_SVR_EEG_block3-4.protocol.csv	step27	4090	406.472	STIMULATE	48.0	47.9	48.0	48.0	48.2	27	1254.886
1258.564	0	1258564	wait	10004	2	0	2	0	13.0	0.0	13.0	0.0					1355.5977352999616	1360.9935326999985	1360.9935326999985	6.0	['6', 'return']	[3.1554352999664843, 3.8604933000169694]	5.39	6.14	1.0	controle	high_pain	49.0				sub-049	250	49	48	49	COM5	COM15	COM3	2024-11-15_14h48.19.807	001-EEG_SVR_Officel	2022.2.5	239.89674810025187		10.336999999999989	1_sub-pilot049_SVR_EEG_block3-4.protocol.csv	step29	4311	428.358	STIMULATE	49.1	49.0	49.0	49.0	49.1	29	1276.772
1263.952	0	1263952	CNhz	10003	2	0	2	0	13.0	0.0	13.0	0.0					1355.5977352999616	1360.9935326999985	1360.9935326999985	6.0	['6', 'return']	[3.1554352999664843, 3.8604933000169694]	5.39	6.14	1.0	controle	high_pain	49.0				sub-049	250	49	48	49	COM5	COM15	COM3	2024-11-15_14h48.19.807	001-EEG_SVR_Officel	2022.2.5	239.89674810025187		5.38799999999992	1_sub-pilot049_SVR_EEG_block3-4.protocol.csv	step29	4311	428.358	STIMULATE	49.1	49.0	49.0	49.0	49.1	29	1276.772
1270.843	0	1270843	CN/Hi	10001	2	0	2	0	13.0	0.0	13.0	0.0					1355.5977352999616	1360.9935326999985	1360.9935326999985	6.0	['6', 'return']	[3.1554352999664843, 3.8604933000169694]	5.39	6.14	1.0	controle	high_pain	49.0				sub-049	250	49	48	49	COM5	COM15	COM3	2024-11-15_14h48.19.807	001-EEG_SVR_Officel	2022.2.5	239.89674810025187		6.141000000000076	1_sub-pilot049_SVR_EEG_block3-4.protocol.csv	step29	4311	428.358	STIMULATE	49.1	49.0	49.0	49.0	49.1	29	1276.772
1280.835	0	1280835	wait	10004	2	0	2	0	14.0	0.0	14.0	0.0					1377.8683708999306	1385.4020897999872	1385.4020897999872	6.5	['6', 'a', '5', 'return']	[2.427783800056204, 2.6519011999480426, 2.851067699957639, 3.691367299994454]	7.53	6.39	2.0	10hz	high_pain	49.0				sub-049	250	49	48	49	COM5	COM15	COM3	2024-11-15_14h48.19.807	001-EEG_SVR_Officel	2022.2.5	239.89674810025187		10.741999999999962	1_sub-pilot049_SVR_EEG_block3-4.protocol.csv	step31	4560	453.077	STIMULATE	49.0	49.0	49.0	49.0	49.0	31	1301.491
1288.361	0	1288361	10hz	10003	2	0	2	0	14.0	0.0	14.0	0.0					1377.8683708999306	1385.4020897999872	1385.4020897999872	6.5	['6', 'a', '5', 'return']	[2.427783800056204, 2.6519011999480426, 2.851067699957639, 3.691367299994454]	7.53	6.39	2.0	10hz	high_pain	49.0				sub-049	250	49	48	49	COM5	COM15	COM3	2024-11-15_14h48.19.807	001-EEG_SVR_Officel	2022.2.5	239.89674810025187		7.526000000000067	1_sub-pilot049_SVR_EEG_block3-4.protocol.csv	step31	4560	453.077	STIMULATE	49.0	49.0	49.0	49.0	49.0	31	1301.491
1295.501	0	1295501	10/Hi	10001	2	0	2	0	14.0	0.0	14.0	0.0					1377.8683708999306	1385.4020897999872	1385.4020897999872	6.5	['6', 'a', '5', 'return']	[2.427783800056204, 2.6519011999480426, 2.851067699957639, 3.691367299994454]	7.53	6.39	2.0	10hz	high_pain	49.0				sub-049	250	49	48	49	COM5	COM15	COM3	2024-11-15_14h48.19.807	001-EEG_SVR_Officel	2022.2.5	239.89674810025187		6.389999999999873	1_sub-pilot049_SVR_EEG_block3-4.protocol.csv	step31	4560	453.077	STIMULATE	49.0	49.0	49.0	49.0	49.0	31	1301.491
1305.072	0	1305072	wait	10004	2	0	2	0	15.0	0.0	15.0	0.0					1402.1056687999517	1409.3809831999242	1409.3809831999242	5.5	['5', 'a', '5', 'return']	[2.504806899931282, 2.7122702999040484, 2.96819239994511, 4.145170700037852]	7.27	5.47	3.0	40hz	low_pain	48.0				sub-049	250	49	48	49	COM5	COM15	COM3	2024-11-15_14h48.19.807	001-EEG_SVR_Officel	2022.2.5	239.89674810025187		10.320999999999913	1_sub-pilot049_SVR_EEG_block3-4.protocol.csv	step33	4792	476.065	STIMULATE	48.0	48.0	48.0	48.0	48.0	33	1324.479
1312.34	0	1312340	40hz	10003	2	0	2	0	15.0	0.0	15.0	0.0					1402.1056687999517	1409.3809831999242	1409.3809831999242	5.5	['5', 'a', '5', 'return']	[2.504806899931282, 2.7122702999040484, 2.96819239994511, 4.145170700037852]	7.27	5.47	3.0	40hz	low_pain	48.0				sub-049	250	49	48	49	COM5	COM15	COM3	2024-11-15_14h48.19.807	001-EEG_SVR_Officel	2022.2.5	239.89674810025187		7.268000000000029	1_sub-pilot049_SVR_EEG_block3-4.protocol.csv	step33	4792	476.065	STIMULATE	48.0	48.0	48.0	48.0	48.0	33	1324.479
1318.564	0	1318564	40/Lo	10001	2	0	2	0	15.0	0.0	15.0	0.0					1402.1056687999517	1409.3809831999242	1409.3809831999242	5.5	['5', 'a', '5', 'return']	[2.504806899931282, 2.7122702999040484, 2.96819239994511, 4.145170700037852]	7.27	5.47	3.0	40hz	low_pain	48.0				sub-049	250	49	48	49	COM5	COM15	COM3	2024-11-15_14h48.19.807	001-EEG_SVR_Officel	2022.2.5	239.89674810025187		5.47400000000016	1_sub-pilot049_SVR_EEG_block3-4.protocol.csv	step33	4792	476.065	STIMULATE	48.0	48.0	48.0	48.0	48.0	33	1324.479
1390.909	0	1390909	wait	10004	3	0	3	0	0.0	0.0	0.0	0.0			p	0.8819877000059932	1487.942581199808	1493.688276299974	1493.688276299974	5.5	['5', 'a', '5', 'return']	[2.7002367000095546, 3.7883200000505894, 3.948297900147736, 5.028518100036308]	5.74	6.11	0.0	20hz	low_pain	48.0				sub-049	250	49	48	49	COM5	COM15	COM3	2024-11-15_14h48.19.807	001-EEG_SVR_Officel	2022.2.5	239.89674810025187		73.09500000000003	1_sub-pilot049_SVR_EEG_block3-4.protocol.csv	step35	5643	561.001	STIMULATE	48.1	47.9	47.9	48.0	48.2	35	1409.371
1396.646	0	1396646	20hz	10003	3	0	3	0	0.0	0.0	0.0	0.0			p	0.8819877000059932	1487.942581199808	1493.688276299974	1493.688276299974	5.5	['5', 'a', '5', 'return']	[2.7002367000095546, 3.7883200000505894, 3.948297900147736, 5.028518100036308]	5.74	6.11	0.0	20hz	low_pain	48.0				sub-049	250	49	48	49	COM5	COM15	COM3	2024-11-15_14h48.19.807	001-EEG_SVR_Officel	2022.2.5	239.89674810025187		5.736999999999853	1_sub-pilot049_SVR_EEG_block3-4.protocol.csv	step35	5643	561.001	STIMULATE	48.1	47.9	47.9	48.0	48.2	35	1409.371
1403.509	0	1403509	20/Lo	10001	3	0	3	0	0.0	0.0	0.0	0.0			p	0.8819877000059932	1487.942581199808	1493.688276299974	1493.688276299974	5.5	['5', 'a', '5', 'return']	[2.7002367000095546, 3.7883200000505894, 3.948297900147736, 5.028518100036308]	5.74	6.11	0.0	20hz	low_pain	48.0				sub-049	250	49	48	49	COM5	COM15	COM3	2024-11-15_14h48.19.807	001-EEG_SVR_Officel	2022.2.5	239.89674810025187		6.113000000000056	1_sub-pilot049_SVR_EEG_block3-4.protocol.csv	step35	5643	561.001	STIMULATE	48.1	47.9	47.9	48.0	48.2	35	1409.371
1414.7	0	1414700	wait	10004	3	0	3	0	1.0	0.0	1.0	0.0					1511.7339929000009	1518.5097353998572	1518.5097353998572	6.0	['6', 'return']	[2.1441348001826555, 2.8560970001854002]	6.77	5.47	1.0	40hz	high_pain	49.0				sub-049	250	49	48	49	COM5	COM15	COM3	2024-11-15_14h48.19.807	001-EEG_SVR_Officel	2022.2.5	239.89674810025187		11.941000000000031	1_sub-pilot049_SVR_EEG_block3-4.protocol.csv	step37	5887	585.165	STIMULATE	49.1	49.0	49.0	49.0	49.1	37	1433.5349999999999
1421.468	0	1421468	40hz	10003	3	0	3	0	1.0	0.0	1.0	0.0					1511.7339929000009	1518.5097353998572	1518.5097353998572	6.0	['6', 'return']	[2.1441348001826555, 2.8560970001854002]	6.77	5.47	1.0	40hz	high_pain	49.0				sub-049	250	49	48	49	COM5	COM15	COM3	2024-11-15_14h48.19.807	001-EEG_SVR_Officel	2022.2.5	239.89674810025187		6.768000000000029	1_sub-pilot049_SVR_EEG_block3-4.protocol.csv	step37	5887	585.165	STIMULATE	49.1	49.0	49.0	49.0	49.1	37	1433.5349999999999
1427.692	0	1427692	40/Hi	10001	3	0	3	0	1.0	0.0	1.0	0.0					1511.7339929000009	1518.5097353998572	1518.5097353998572	6.0	['6', 'return']	[2.1441348001826555, 2.8560970001854002]	6.77	5.47	1.0	40hz	high_pain	49.0				sub-049	250	49	48	49	COM5	COM15	COM3	2024-11-15_14h48.19.807	001-EEG_SVR_Officel	2022.2.5	239.89674810025187		5.473999999999933	1_sub-pilot049_SVR_EEG_block3-4.protocol.csv	step37	5887	585.165	STIMULATE	49.1	49.0	49.0	49.0	49.1	37	1433.5349999999999
1437.355	0	1437355	wait	10004	3	0	3	0	2.0	0.0	2.0	0.0					1534.3886279999278	1541.0546262999997	1541.0546262999997	6.0	['6', 'return']	[2.6144494998734444, 3.4314103999640793]	6.66	6.37	2.0	40hz	low_pain	48.0				sub-049	250	49	48	49	COM5	COM15	COM3	2024-11-15_14h48.19.807	001-EEG_SVR_Officel	2022.2.5	239.89674810025187		10.413000000000011	1_sub-pilot049_SVR_EEG_block3-4.protocol.csv	step39	6124	608.689	STIMULATE	47.9	47.9	48.0	48.0	48.1	39	1457.059
1444.013	0	1444013	40hz	10003	3	0	3	0	2.0	0.0	2.0	0.0					1534.3886279999278	1541.0546262999997	1541.0546262999997	6.0	['6', 'return']	[2.6144494998734444, 3.4314103999640793]	6.66	6.37	2.0	40hz	low_pain	48.0				sub-049	250	49	48	49	COM5	COM15	COM3	2024-11-15_14h48.19.807	001-EEG_SVR_Officel	2022.2.5	239.89674810025187		6.657999999999902	1_sub-pilot049_SVR_EEG_block3-4.protocol.csv	step39	6124	608.689	STIMULATE	47.9	47.9	48.0	48.0	48.1	39	1457.059
1451.133	0	1451133	40/Lo	10001	3	0	3	0	2.0	0.0	2.0	0.0					1534.3886279999278	1541.0546262999997	1541.0546262999997	6.0	['6', 'return']	[2.6144494998734444, 3.4314103999640793]	6.66	6.37	2.0	40hz	low_pain	48.0				sub-049	250	49	48	49	COM5	COM15	COM3	2024-11-15_14h48.19.807	001-EEG_SVR_Officel	2022.2.5	239.89674810025187		6.370000000000118	1_sub-pilot049_SVR_EEG_block3-4.protocol.csv	step39	6124	608.689	STIMULATE	47.9	47.9	48.0	48.0	48.1	39	1457.059
1460.467	0	1460467	wait	10004	3	0	3	0	3.0	0.0	3.0	0.0					1557.500272899866	1563.7971151999664	1563.7971151999664	5.5	['5', 'a', '5', 'return']	[2.2131420001387596, 2.4367707001511008, 2.644534199964255, 3.3641723999753594]	6.29	5.64	3.0	10hz	low_pain	48.0				sub-049	250	49	48	49	COM5	COM15	COM3	2024-11-15_14h48.19.807	001-EEG_SVR_Officel	2022.2.5	239.89674810025187		10.08400000000006	1_sub-pilot049_SVR_EEG_block3-4.protocol.csv	step41	6346	630.708	STIMULATE	48.0	48.0	48.0	48.0	48.0	41	1479.078
1466.755	0	1466755	10hz	10003	3	0	3	0	3.0	0.0	3.0	0.0					1557.500272899866	1563.7971151999664	1563.7971151999664	5.5	['5', 'a', '5', 'return']	[2.2131420001387596, 2.4367707001511008, 2.644534199964255, 3.3641723999753594]	6.29	5.64	3.0	10hz	low_pain	48.0				sub-049	250	49	48	49	COM5	COM15	COM3	2024-11-15_14h48.19.807	001-EEG_SVR_Officel	2022.2.5	239.89674810025187		6.288000000000011	1_sub-pilot049_SVR_EEG_block3-4.protocol.csv	step41	6346	630.708	STIMULATE	48.0	48.0	48.0	48.0	48.0	41	1479.078
1473.146	0	1473146	10/Lo	10001	3	0	3	0	3.0	0.0	3.0	0.0					1557.500272899866	1563.7971151999664	1563.7971151999664	5.5	['5', 'a', '5', 'return']	[2.2131420001387596, 2.4367707001511008, 2.644534199964255, 3.3641723999753594]	6.29	5.64	3.0	10hz	low_pain	48.0				sub-049	250	49	48	49	COM5	COM15	COM3	2024-11-15_14h48.19.807	001-EEG_SVR_Officel	2022.2.5	239.89674810025187		5.640999999999849	1_sub-pilot049_SVR_EEG_block3-4.protocol.csv	step41	6346	630.708	STIMULATE	48.0	48.0	48.0	48.0	48.0	41	1479.078
1483.146	0	1483146	wait	10004	3	0	3	0	4.0	0.0	4.0	0.0					1580.1793478999753	1586.3543861999642	1586.3543861999642	7.0	['7', 'return']	[1.8275037999264896, 2.5884797999169677]	6.17	5.75	0.0	40hz	high_pain	49.0				sub-049	250	49	48	49	COM5	COM15	COM3	2024-11-15_14h48.19.807	001-EEG_SVR_Officel	2022.2.5	239.89674810025187		10.75	1_sub-pilot049_SVR_EEG_block3-4.protocol.csv	step43	6575	653.347	STIMULATE	49.0	48.9	49.0	49.0	49.3	43	1501.717
1489.312	0	1489312	40hz	10003	3	0	3	0	4.0	0.0	4.0	0.0					1580.1793478999753	1586.3543861999642	1586.3543861999642	7.0	['7', 'return']	[1.8275037999264896, 2.5884797999169677]	6.17	5.75	0.0	40hz	high_pain	49.0				sub-049	250	49	48	49	COM5	COM15	COM3	2024-11-15_14h48.19.807	001-EEG_SVR_Officel	2022.2.5	239.89674810025187		6.16599999999994	1_sub-pilot049_SVR_EEG_block3-4.protocol.csv	step43	6575	653.347	STIMULATE	49.0	48.9	49.0	49.0	49.3	43	1501.717
1495.816	0	1495816	40/Hi	10001	3	0	3	0	4.0	0.0	4.0	0.0					1580.1793478999753	1586.3543861999642	1586.3543861999642	7.0	['7', 'return']	[1.8275037999264896, 2.5884797999169677]	6.17	5.75	0.0	40hz	high_pain	49.0				sub-049	250	49	48	49	COM5	COM15	COM3	2024-11-15_14h48.19.807	001-EEG_SVR_Officel	2022.2.5	239.89674810025187		5.754000000000133	1_sub-pilot049_SVR_EEG_block3-4.protocol.csv	step43	6575	653.347	STIMULATE	49.0	48.9	49.0	49.0	49.3	43	1501.717
1504.924	0	1504924	wait	10004	3	0	3	0	5.0	0.0	5.0	0.0					1601.958260399988	1607.2332586999985	1607.2332586999985	5.5	['5', 'a', '5', 'return']	[2.6229163000825793, 3.0067992999684066, 3.16669650003314, 3.8547618000302464]	5.27	6.48	1.0	10hz	low_pain	48.0				sub-049	250	49	48	49	COM5	COM15	COM3	2024-11-15_14h48.19.807	001-EEG_SVR_Officel	2022.2.5	239.89674810025187		9.857999999999947	1_sub-pilot049_SVR_EEG_block3-4.protocol.csv	step45	6793	674.915	STIMULATE	48.0	48.0	48.0	48.0	48.2	45	1523.2849999999999
1510.191	0	1510191	10hz	10003	3	0	3	0	5.0	0.0	5.0	0.0					1601.958260399988	1607.2332586999985	1607.2332586999985	5.5	['5', 'a', '5', 'return']	[2.6229163000825793, 3.0067992999684066, 3.16669650003314, 3.8547618000302464]	5.27	6.48	1.0	10hz	low_pain	48.0				sub-049	250	49	48	49	COM5	COM15	COM3	2024-11-15_14h48.19.807	001-EEG_SVR_Officel	2022.2.5	239.89674810025187		5.267000000000053	1_sub-pilot049_SVR_EEG_block3-4.protocol.csv	step45	6793	674.915	STIMULATE	48.0	48.0	48.0	48.0	48.2	45	1523.2849999999999
1517.424	0	1517424	10/Lo	10001	3	0	3	0	5.0	0.0	5.0	0.0					1601.958260399988	1607.2332586999985	1607.2332586999985	5.5	['5', 'a', '5', 'return']	[2.6229163000825793, 3.0067992999684066, 3.16669650003314, 3.8547618000302464]	5.27	6.48	1.0	10hz	low_pain	48.0				sub-049	250	49	48	49	COM5	COM15	COM3	2024-11-15_14h48.19.807	001-EEG_SVR_Officel	2022.2.5	239.89674810025187		6.482999999999947	1_sub-pilot049_SVR_EEG_block3-4.protocol.csv	step45	6793	674.915	STIMULATE	48.0	48.0	48.0	48.0	48.2	45	1523.2849999999999
1527.074	0	1527074	wait	10004	3	0	3	0	6.0	0.0	6.0	0.0					1624.108108999906	1629.5420897998847	1629.5420897998847	5.0	['5', 'return']	[2.2884393001440912, 3.4239322000648826]	5.43	6.31	2.0	controle	low_pain	48.0				sub-049	250	49	48	49	COM5	COM15	COM3	2024-11-15_14h48.19.807	001-EEG_SVR_Officel	2022.2.5	239.89674810025187		10.400000000000091	1_sub-pilot049_SVR_EEG_block3-4.protocol.csv	step47	7016	697.09	STIMULATE	48.0	48.0	48.0	48.0	48.0	47	1545.46
1532.5	0	1532500	CNhz	10003	3	0	3	0	6.0	0.0	6.0	0.0					1624.108108999906	1629.5420897998847	1629.5420897998847	5.0	['5', 'return']	[2.2884393001440912, 3.4239322000648826]	5.43	6.31	2.0	controle	low_pain	48.0				sub-049	250	49	48	49	COM5	COM15	COM3	2024-11-15_14h48.19.807	001-EEG_SVR_Officel	2022.2.5	239.89674810025187		5.425999999999931	1_sub-pilot049_SVR_EEG_block3-4.protocol.csv	step47	7016	697.09	STIMULATE	48.0	48.0	48.0	48.0	48.0	47	1545.46
1539.562	0	1539562	CN/Lo	10001	3	0	3	0	6.0	0.0	6.0	0.0					1624.108108999906	1629.5420897998847	1629.5420897998847	5.0	['5', 'return']	[2.2884393001440912, 3.4239322000648826]	5.43	6.31	2.0	controle	low_pain	48.0				sub-049	250	49	48	49	COM5	COM15	COM3	2024-11-15_14h48.19.807	001-EEG_SVR_Officel	2022.2.5	239.89674810025187		6.311999999999898	1_sub-pilot049_SVR_EEG_block3-4.protocol.csv	step47	7016	697.09	STIMULATE	48.0	48.0	48.0	48.0	48.0	47	1545.46
1548.954	0	1548954	wait	10004	3	0	3	0	7.0	0.0	7.0	0.0					1645.9879323998466	1651.3911670998204	1651.3911670998204	5.5	['5', 'a', '5', 'return']	[2.494217799976468, 2.7828269999008626, 2.9909828000236303, 3.9582801999058574]	5.4	5.4	3.0	controle	low_pain	48.0				sub-049	250	49	48	49	COM5	COM15	COM3	2024-11-15_14h48.19.807	001-EEG_SVR_Officel	2022.2.5	239.89674810025187		10.142000000000053	1_sub-pilot049_SVR_EEG_block3-4.protocol.csv	step49	7228	718.012	STIMULATE	48.0	48.0	48.0	48.0	48.0	49	1566.382
1554.349	0	1554349	CNhz	10003	3	0	3	0	7.0	0.0	7.0	0.0					1645.9879323998466	1651.3911670998204	1651.3911670998204	5.5	['5', 'a', '5', 'return']	[2.494217799976468, 2.7828269999008626, 2.9909828000236303, 3.9582801999058574]	5.4	5.4	3.0	controle	low_pain	48.0				sub-049	250	49	48	49	COM5	COM15	COM3	2024-11-15_14h48.19.807	001-EEG_SVR_Officel	2022.2.5	239.89674810025187		5.394999999999982	1_sub-pilot049_SVR_EEG_block3-4.protocol.csv	step49	7228	718.012	STIMULATE	48.0	48.0	48.0	48.0	48.0	49	1566.382
1560.503	0	1560503	CN/Lo	10001	3	0	3	0	7.0	0.0	7.0	0.0					1645.9879323998466	1651.3911670998204	1651.3911670998204	5.5	['5', 'a', '5', 'return']	[2.494217799976468, 2.7828269999008626, 2.9909828000236303, 3.9582801999058574]	5.4	5.4	3.0	controle	low_pain	48.0				sub-049	250	49	48	49	COM5	COM15	COM3	2024-11-15_14h48.19.807	001-EEG_SVR_Officel	2022.2.5	239.89674810025187		5.403999999999996	1_sub-pilot049_SVR_EEG_block3-4.protocol.csv	step49	7228	718.012	STIMULATE	48.0	48.0	48.0	48.0	48.0	49	1566.382
1571.332	0	1571332	wait	10004	3	0	3	0	8.0	0.0	8.0	0.0					1668.3660769998096	1676.2864172998816	1676.2864172998816	6.5	['6', 'a', '5', 'return']	[3.047167400131002, 3.27114659990184, 3.463396300096065, 4.326637499965727]	7.92	6.17	0.0	20hz	high_pain	49.0			1689.2867327998392	sub-049	250	49	48	49	COM5	COM15	COM3	2024-11-15_14h48.19.807	001-EEG_SVR_Officel	2022.2.5	239.89674810025187		11.579000000000178	1_sub-pilot049_SVR_EEG_block3-4.protocol.csv	step51	7486	743.698	STIMULATE	49.0	48.9	49.0	49.0	49.3	51	1592.068
1579.249	0	1579249	20hz	10003	3	0	3	0	8.0	0.0	8.0	0.0					1668.3660769998096	1676.2864172998816	1676.2864172998816	6.5	['6', 'a', '5', 'return']	[3.047167400131002, 3.27114659990184, 3.463396300096065, 4.326637499965727]	7.92	6.17	0.0	20hz	high_pain	49.0			1689.2867327998392	sub-049	250	49	48	49	COM5	COM15	COM3	2024-11-15_14h48.19.807	001-EEG_SVR_Officel	2022.2.5	239.89674810025187		7.916999999999916	1_sub-pilot049_SVR_EEG_block3-4.protocol.csv	step51	7486	743.698	STIMULATE	49.0	48.9	49.0	49.0	49.3	51	1592.068
1586.17	0	1586170	20/Hi	10001	3	0	3	0	8.0	0.0	8.0	0.0					1668.3660769998096	1676.2864172998816	1676.2864172998816	6.5	['6', 'a', '5', 'return']	[3.047167400131002, 3.27114659990184, 3.463396300096065, 4.326637499965727]	7.92	6.17	0.0	20hz	high_pain	49.0			1689.2867327998392	sub-049	250	49	48	49	COM5	COM15	COM3	2024-11-15_14h48.19.807	001-EEG_SVR_Officel	2022.2.5	239.89674810025187		6.171000000000049	1_sub-pilot049_SVR_EEG_block3-4.protocol.csv	step51	7486	743.698	STIMULATE	49.0	48.9	49.0	49.0	49.3	51	1592.068
1596.599	0	1596599	wait	10004	3	0	3	0	9.0	0.0	9.0	0.0					1693.6333988998083	1699.4367213000078	1699.4367213000078	6.5	['6', 'a', '5', 'return']	[2.5916127001401037, 2.776544300140813, 3.0001541001256555, 3.824837400112301]	5.8	5.98	1.0	20hz	high_pain	49.0				sub-049	250	49	48	49	COM5	COM15	COM3	2024-11-15_14h48.19.807	001-EEG_SVR_Officel	2022.2.5	239.89674810025187		11.17899999999986	1_sub-pilot049_SVR_EEG_block3-4.protocol.csv	step53	7715	766.694	STIMULATE	49.1	49.0	48.9	49.0	49.1	53	1615.0639999999999
1602.395	0	1602395	20hz	10003	3	0	3	0	9.0	0.0	9.0	0.0					1693.6333988998083	1699.4367213000078	1699.4367213000078	6.5	['6', 'a', '5', 'return']	[2.5916127001401037, 2.776544300140813, 3.0001541001256555, 3.824837400112301]	5.8	5.98	1.0	20hz	high_pain	49.0				sub-049	250	49	48	49	COM5	COM15	COM3	2024-11-15_14h48.19.807	001-EEG_SVR_Officel	2022.2.5	239.89674810025187		5.796000000000049	1_sub-pilot049_SVR_EEG_block3-4.protocol.csv	step53	7715	766.694	STIMULATE	49.1	49.0	48.9	49.0	49.1	53	1615.0639999999999
1609.128	0	1609128	20/Hi	10001	3	0	3	0	9.0	0.0	9.0	0.0					1693.6333988998083	1699.4367213000078	1699.4367213000078	6.5	['6', 'a', '5', 'return']	[2.5916127001401037, 2.776544300140813, 3.0001541001256555, 3.824837400112301]	5.8	5.98	1.0	20hz	high_pain	49.0				sub-049	250	49	48	49	COM5	COM15	COM3	2024-11-15_14h48.19.807	001-EEG_SVR_Officel	2022.2.5	239.89674810025187		5.982999999999947	1_sub-pilot049_SVR_EEG_block3-4.protocol.csv	step53	7715	766.694	STIMULATE	49.1	49.0	48.9	49.0	49.1	53	1615.0639999999999
1619.24	0	1619240	wait	10004	3	0	3	0	10.0	0.0	10.0	0.0					1716.273502699798	1721.5573220998049	1721.5573220998049	6.0	['6', 'return']	[2.240240100072697, 2.96175320004113]	5.28	5.34	2.0	10hz	low_pain	48.0				sub-049	250	49	48	49	COM5	COM15	COM3	2024-11-15_14h48.19.807	001-EEG_SVR_Officel	2022.2.5	239.89674810025187		10.86200000000008	1_sub-pilot049_SVR_EEG_block3-4.protocol.csv	step55	7925	788.111	STIMULATE	48.1	47.9	48.0	48.0	48.0	55	1636.481
1624.515	0	1624515	10hz	10003	3	0	3	0	10.0	0.0	10.0	0.0					1716.273502699798	1721.5573220998049	1721.5573220998049	6.0	['6', 'return']	[2.240240100072697, 2.96175320004113]	5.28	5.34	2.0	10hz	low_pain	48.0				sub-049	250	49	48	49	COM5	COM15	COM3	2024-11-15_14h48.19.807	001-EEG_SVR_Officel	2022.2.5	239.89674810025187		5.275000000000091	1_sub-pilot049_SVR_EEG_block3-4.protocol.csv	step55	7925	788.111	STIMULATE	48.1	47.9	48.0	48.0	48.0	55	1636.481
1630.607	0	1630607	10/Lo	10001	3	0	3	0	10.0	0.0	10.0	0.0					1716.273502699798	1721.5573220998049	1721.5573220998049	6.0	['6', 'return']	[2.240240100072697, 2.96175320004113]	5.28	5.34	2.0	10hz	low_pain	48.0				sub-049	250	49	48	49	COM5	COM15	COM3	2024-11-15_14h48.19.807	001-EEG_SVR_Officel	2022.2.5	239.89674810025187		5.341999999999871	1_sub-pilot049_SVR_EEG_block3-4.protocol.csv	step55	7925	788.111	STIMULATE	48.1	47.9	48.0	48.0	48.0	55	1636.481
1640.498	0	1640498	wait	10004	3	0	3	0	11.0	0.0	11.0	0.0					1737.5321973999962	1743.0655368999578	1743.0655368999578	7.0	['7', 'return']	[2.051708900136873, 2.787816199939698]	5.53	5.01	3.0	20hz	high_pain	49.0				sub-049	250	49	48	49	COM5	COM15	COM3	2024-11-15_14h48.19.807	001-EEG_SVR_Officel	2022.2.5	239.89674810025187		10.641000000000076	1_sub-pilot049_SVR_EEG_block3-4.protocol.csv	step57	8131	809.378	STIMULATE	49.0	49.0	49.0	49.0	49.0	57	1657.748
1646.023	0	1646023	20hz	10003	3	0	3	0	11.0	0.0	11.0	0.0					1737.5321973999962	1743.0655368999578	1743.0655368999578	7.0	['7', 'return']	[2.051708900136873, 2.787816199939698]	5.53	5.01	3.0	20hz	high_pain	49.0				sub-049	250	49	48	49	COM5	COM15	COM3	2024-11-15_14h48.19.807	001-EEG_SVR_Officel	2022.2.5	239.89674810025187		5.524999999999864	1_sub-pilot049_SVR_EEG_block3-4.protocol.csv	step57	8131	809.378	STIMULATE	49.0	49.0	49.0	49.0	49.0	57	1657.748
1651.786	0	1651786	20/Hi	10001	3	0	3	0	11.0	0.0	11.0	0.0					1737.5321973999962	1743.0655368999578	1743.0655368999578	7.0	['7', 'return']	[2.051708900136873, 2.787816199939698]	5.53	5.01	3.0	20hz	high_pain	49.0				sub-049	250	49	48	49	COM5	COM15	COM3	2024-11-15_14h48.19.807	001-EEG_SVR_Officel	2022.2.5	239.89674810025187		5.013000000000147	1_sub-pilot049_SVR_EEG_block3-4.protocol.csv	step57	8131	809.378	STIMULATE	49.0	49.0	49.0	49.0	49.0	57	1657.748
1661.836	0	1661836	wait	10004	3	0	3	0	12.0	0.0	12.0	0.0					1758.8695691998582	1764.7028622999787	1764.7028622999787	7.0	['7', 'return']	[2.318985499907285, 3.047656700015068]	5.83	6.22	0.0	10hz	high_pain	49.0				sub-049	250	49	48	49	COM5	COM15	COM3	2024-11-15_14h48.19.807	001-EEG_SVR_Officel	2022.2.5	239.89674810025187		10.799999999999955	1_sub-pilot049_SVR_EEG_block3-4.protocol.csv	step59	8349	832.135	STIMULATE	49.0	48.9	49.0	49.0	49.3	59	1680.505
1667.661	0	1667661	10hz	10003	3	0	3	0	12.0	0.0	12.0	0.0					1758.8695691998582	1764.7028622999787	1764.7028622999787	7.0	['7', 'return']	[2.318985499907285, 3.047656700015068]	5.83	6.22	0.0	10hz	high_pain	49.0				sub-049	250	49	48	49	COM5	COM15	COM3	2024-11-15_14h48.19.807	001-EEG_SVR_Officel	2022.2.5	239.89674810025187		5.8250000000000455	1_sub-pilot049_SVR_EEG_block3-4.protocol.csv	step59	8349	832.135	STIMULATE	49.0	48.9	49.0	49.0	49.3	59	1680.505
1674.631	0	1674631	10/Hi	10001	3	0	3	0	12.0	0.0	12.0	0.0					1758.8695691998582	1764.7028622999787	1764.7028622999787	7.0	['7', 'return']	[2.318985499907285, 3.047656700015068]	5.83	6.22	0.0	10hz	high_pain	49.0				sub-049	250	49	48	49	COM5	COM15	COM3	2024-11-15_14h48.19.807	001-EEG_SVR_Officel	2022.2.5	239.89674810025187		6.220000000000027	1_sub-pilot049_SVR_EEG_block3-4.protocol.csv	step59	8349	832.135	STIMULATE	49.0	48.9	49.0	49.0	49.3	59	1680.505
1683.731	0	1683731	wait	10004	3	0	3	0	13.0	0.0	13.0	0.0					1780.7651929999702	1786.7610825998709	1786.7610825998709	6.0	['6', 'return']	[2.335591500159353, 2.9676901001948863]	5.99	5.24	1.0	20hz	low_pain	48.0				sub-049	250	49	48	49	COM5	COM15	COM3	2024-11-15_14h48.19.807	001-EEG_SVR_Officel	2022.2.5	239.89674810025187		9.849999999999909	1_sub-pilot049_SVR_EEG_block3-4.protocol.csv	step61	8550	853.314	STIMULATE	48.0	47.9	47.9	47.9	48.1	61	1701.684
1689.719	0	1689719	20hz	10003	3	0	3	0	13.0	0.0	13.0	0.0					1780.7651929999702	1786.7610825998709	1786.7610825998709	6.0	['6', 'return']	[2.335591500159353, 2.9676901001948863]	5.99	5.24	1.0	20hz	low_pain	48.0				sub-049	250	49	48	49	COM5	COM15	COM3	2024-11-15_14h48.19.807	001-EEG_SVR_Officel	2022.2.5	239.89674810025187		5.988000000000056	1_sub-pilot049_SVR_EEG_block3-4.protocol.csv	step61	8550	853.314	STIMULATE	48.0	47.9	47.9	47.9	48.1	61	1701.684
1695.711	0	1695711	20/Lo	10001	3	0	3	0	13.0	0.0	13.0	0.0					1780.7651929999702	1786.7610825998709	1786.7610825998709	6.0	['6', 'return']	[2.335591500159353, 2.9676901001948863]	5.99	5.24	1.0	20hz	low_pain	48.0				sub-049	250	49	48	49	COM5	COM15	COM3	2024-11-15_14h48.19.807	001-EEG_SVR_Officel	2022.2.5	239.89674810025187		5.241999999999962	1_sub-pilot049_SVR_EEG_block3-4.protocol.csv	step61	8550	853.314	STIMULATE	48.0	47.9	47.9	47.9	48.1	61	1701.684
1705.72	0	1705720	wait	10004	3	0	3	0	14.0	0.0	14.0	0.0					1802.7542471999768	1810.6122491999995	1810.6122491999995	6.8	['6', 'a', '8', 'return']	[2.1611963999457657, 2.480621499940753, 2.68150409986265, 3.498389499960467]	7.85	5.34	2.0	controle	high_pain	49.0				sub-049	250	49	48	49	COM5	COM15	COM3	2024-11-15_14h48.19.807	001-EEG_SVR_Officel	2022.2.5	239.89674810025187		10.759000000000015	1_sub-pilot049_SVR_EEG_block3-4.protocol.csv	step63	8775	877.17	STIMULATE	49.0	49.0	49.0	49.0	49.0	63	1725.54
1713.57	0	1713570	CNhz	10003	3	0	3	0	14.0	0.0	14.0	0.0					1802.7542471999768	1810.6122491999995	1810.6122491999995	6.8	['6', 'a', '8', 'return']	[2.1611963999457657, 2.480621499940753, 2.68150409986265, 3.498389499960467]	7.85	5.34	2.0	controle	high_pain	49.0				sub-049	250	49	48	49	COM5	COM15	COM3	2024-11-15_14h48.19.807	001-EEG_SVR_Officel	2022.2.5	239.89674810025187		7.849999999999909	1_sub-pilot049_SVR_EEG_block3-4.protocol.csv	step63	8775	877.17	STIMULATE	49.0	49.0	49.0	49.0	49.0	63	1725.54
1719.665	0	1719665	CN/Hi	10001	3	0	3	0	14.0	0.0	14.0	0.0					1802.7542471999768	1810.6122491999995	1810.6122491999995	6.8	['6', 'a', '8', 'return']	[2.1611963999457657, 2.480621499940753, 2.68150409986265, 3.498389499960467]	7.85	5.34	2.0	controle	high_pain	49.0				sub-049	250	49	48	49	COM5	COM15	COM3	2024-11-15_14h48.19.807	001-EEG_SVR_Officel	2022.2.5	239.89674810025187		5.345000000000027	1_sub-pilot049_SVR_EEG_block3-4.protocol.csv	step63	8775	877.17	STIMULATE	49.0	49.0	49.0	49.0	49.0	63	1725.54
1730.095	0	1730095	wait	10004	3	0	3	0	15.0	0.0	15.0	0.0					1827.1288196998648	1834.5356446998196	1834.5356446998196	6.0	['6', 'return']	[2.845840400084853, 3.503342099953443]	7.4	5.93	3.0	20hz	low_pain	48.0				sub-049	250	49	48	49	COM5	COM15	COM3	2024-11-15_14h48.19.807	001-EEG_SVR_Officel	2022.2.5	239.89674810025187		11.180000000000064	1_sub-pilot049_SVR_EEG_block3-4.protocol.csv	step65	9004	901.711	STIMULATE	48.0	48.0	48.0	48.0	48.0	65	1750.0810000000001
1737.494	0	1737494	20hz	10003	3	0	3	0	15.0	0.0	15.0	0.0					1827.1288196998648	1834.5356446998196	1834.5356446998196	6.0	['6', 'return']	[2.845840400084853, 3.503342099953443]	7.4	5.93	3.0	20hz	low_pain	48.0				sub-049	250	49	48	49	COM5	COM15	COM3	2024-11-15_14h48.19.807	001-EEG_SVR_Officel	2022.2.5	239.89674810025187		7.398999999999887	1_sub-pilot049_SVR_EEG_block3-4.protocol.csv	step65	9004	901.711	STIMULATE	48.0	48.0	48.0	48.0	48.0	65	1750.0810000000001
1744.177	0	1744177	20/Lo	10001	3	0	3	0	15.0	0.0	15.0	0.0					1827.1288196998648	1834.5356446998196	1834.5356446998196	6.0	['6', 'return']	[2.845840400084853, 3.503342099953443]	7.4	5.93	3.0	20hz	low_pain	48.0				sub-049	250	49	48	49	COM5	COM15	COM3	2024-11-15_14h48.19.807	001-EEG_SVR_Officel	2022.2.5	239.89674810025187		5.932999999999993	1_sub-pilot049_SVR_EEG_block3-4.protocol.csv	step65	9004	901.711	STIMULATE	48.0	48.0	48.0	48.0	48.0	65	1750.0810000000001
1816.847	0	1816847	wait	10004	4	0	4	0	0.0	0.0	0.0	0.0			p	2.272225600201637	1913.880836599972	1921.7689001997933	1921.7689001997933	6.5	['6', 'a', '5', 'return']	[2.000575600191951, 2.456642600009218, 2.6557100999634713, 4.025428800145164]	7.88	6.26	0.0	40hz	high_pain	49.0				sub-049	250	49	48	49	COM5	COM15	COM3	2024-11-15_14h48.19.807	001-EEG_SVR_Officel	2022.2.5	239.89674810025187		73.42000000000007	2_sub-pilot049_SVR_EEG_block5-6.protocol.csv	step3	720	71.824	STIMULATE	49.0	48.9	49.0	49.0	49.3	3	1837.489
1824.727	0	1824727	40hz	10003	4	0	4	0	0.0	0.0	0.0	0.0			p	2.272225600201637	1913.880836599972	1921.7689001997933	1921.7689001997933	6.5	['6', 'a', '5', 'return']	[2.000575600191951, 2.456642600009218, 2.6557100999634713, 4.025428800145164]	7.88	6.26	0.0	40hz	high_pain	49.0				sub-049	250	49	48	49	COM5	COM15	COM3	2024-11-15_14h48.19.807	001-EEG_SVR_Officel	2022.2.5	239.89674810025187		7.880000000000109	2_sub-pilot049_SVR_EEG_block5-6.protocol.csv	step3	720	71.824	STIMULATE	49.0	48.9	49.0	49.0	49.3	3	1837.489
1831.74	0	1831740	40/Hi	10001	4	0	4	0	0.0	0.0	0.0	0.0			p	2.272225600201637	1913.880836599972	1921.7689001997933	1921.7689001997933	6.5	['6', 'a', '5', 'return']	[2.000575600191951, 2.456642600009218, 2.6557100999634713, 4.025428800145164]	7.88	6.26	0.0	40hz	high_pain	49.0				sub-049	250	49	48	49	COM5	COM15	COM3	2024-11-15_14h48.19.807	001-EEG_SVR_Officel	2022.2.5	239.89674810025187		6.26299999999992	2_sub-pilot049_SVR_EEG_block5-6.protocol.csv	step3	720	71.824	STIMULATE	49.0	48.9	49.0	49.0	49.3	3	1837.489
1841.789	0	1841789	wait	10004	4	0	4	0	1.0	0.0	1.0	0.0					1938.8235611999407	1946.6234933999367	1946.6234933999367	6.5	['6', 'a', '5', 'return']	[2.468016800004989, 2.7078476999886334, 2.9001237000338733, 3.779342500027269]	7.79	5.84	1.0	40hz	high_pain	49.0				sub-049	250	49	48	49	COM5	COM15	COM3	2024-11-15_14h48.19.807	001-EEG_SVR_Officel	2022.2.5	239.89674810025187		10.798999999999978	2_sub-pilot049_SVR_EEG_block5-6.protocol.csv	step5	968	96.415	STIMULATE	49.0	49.0	49.0	49.0	49.3	5	1862.08
1849.578	0	1849578	40hz	10003	4	0	4	0	1.0	0.0	1.0	0.0					1938.8235611999407	1946.6234933999367	1946.6234933999367	6.5	['6', 'a', '5', 'return']	[2.468016800004989, 2.7078476999886334, 2.9001237000338733, 3.779342500027269]	7.79	5.84	1.0	40hz	high_pain	49.0				sub-049	250	49	48	49	COM5	COM15	COM3	2024-11-15_14h48.19.807	001-EEG_SVR_Officel	2022.2.5	239.89674810025187		7.788999999999987	2_sub-pilot049_SVR_EEG_block5-6.protocol.csv	step5	968	96.415	STIMULATE	49.0	49.0	49.0	49.0	49.3	5	1862.08
1856.171	0	1856171	40/Hi	10001	4	0	4	0	1.0	0.0	1.0	0.0					1938.8235611999407	1946.6234933999367	1946.6234933999367	6.5	['6', 'a', '5', 'return']	[2.468016800004989, 2.7078476999886334, 2.9001237000338733, 3.779342500027269]	7.79	5.84	1.0	40hz	high_pain	49.0				sub-049	250	49	48	49	COM5	COM15	COM3	2024-11-15_14h48.19.807	001-EEG_SVR_Officel	2022.2.5	239.89674810025187		5.843000000000075	2_sub-pilot049_SVR_EEG_block5-6.protocol.csv	step5	968	96.415	STIMULATE	49.0	49.0	49.0	49.0	49.3	5	1862.08
1866.38	0	1866380	wait	10004	4	0	4	0	2.0	0.0	2.0	0.0					1963.413919399958	1969.9387447999325	1969.9387447999325	6.5	['6', 'a', '5', 'return']	[2.158995399950072, 2.3514407000038773, 2.54352379986085, 3.408563499804586]	6.52	5.9	2.0	20hz	low_pain	48.0				sub-049	250	49	48	49	COM5	COM15	COM3	2024-11-15_14h48.19.807	001-EEG_SVR_Officel	2022.2.5	239.89674810025187		10.95900000000006	2_sub-pilot049_SVR_EEG_block5-6.protocol.csv	step7	1203	119.703	STIMULATE	48.0	48.0	48.0	48.0	48.1	7	1885.368
1872.896	0	1872896	20hz	10003	4	0	4	0	2.0	0.0	2.0	0.0					1963.413919399958	1969.9387447999325	1969.9387447999325	6.5	['6', 'a', '5', 'return']	[2.158995399950072, 2.3514407000038773, 2.54352379986085, 3.408563499804586]	6.52	5.9	2.0	20hz	low_pain	48.0				sub-049	250	49	48	49	COM5	COM15	COM3	2024-11-15_14h48.19.807	001-EEG_SVR_Officel	2022.2.5	239.89674810025187		6.515999999999849	2_sub-pilot049_SVR_EEG_block5-6.protocol.csv	step7	1203	119.703	STIMULATE	48.0	48.0	48.0	48.0	48.1	7	1885.368
1879.546	0	1879546	20/Lo	10001	4	0	4	0	2.0	0.0	2.0	0.0					1963.413919399958	1969.9387447999325	1969.9387447999325	6.5	['6', 'a', '5', 'return']	[2.158995399950072, 2.3514407000038773, 2.54352379986085, 3.408563499804586]	6.52	5.9	2.0	20hz	low_pain	48.0				sub-049	250	49	48	49	COM5	COM15	COM3	2024-11-15_14h48.19.807	001-EEG_SVR_Officel	2022.2.5	239.89674810025187		5.900000000000091	2_sub-pilot049_SVR_EEG_block5-6.protocol.csv	step7	1203	119.703	STIMULATE	48.0	48.0	48.0	48.0	48.1	7	1885.368
1889.325	0	1889325	wait	10004	4	0	4	0	3.0	0.0	3.0	0.0					1986.3594301999549	1991.7482798998244	1991.7482798998244	6.0	['6', 'return']	[2.310024900129065, 3.2467804001644254]	5.38	5.67	3.0	40hz	low_pain	48.0				sub-049	250	49	48	49	COM5	COM15	COM3	2024-11-15_14h48.19.807	001-EEG_SVR_Officel	2022.2.5	239.89674810025187		10.528999999999996	2_sub-pilot049_SVR_EEG_block5-6.protocol.csv	step9	1421	141.347	STIMULATE	48.0	48.0	48.0	48.0	48.0	9	1907.012
1894.706	0	1894706	40hz	10003	4	0	4	0	3.0	0.0	3.0	0.0					1986.3594301999549	1991.7482798998244	1991.7482798998244	6.0	['6', 'return']	[2.310024900129065, 3.2467804001644254]	5.38	5.67	3.0	40hz	low_pain	48.0				sub-049	250	49	48	49	COM5	COM15	COM3	2024-11-15_14h48.19.807	001-EEG_SVR_Officel	2022.2.5	239.89674810025187		5.380999999999858	2_sub-pilot049_SVR_EEG_block5-6.protocol.csv	step9	1421	141.347	STIMULATE	48.0	48.0	48.0	48.0	48.0	9	1907.012
1901.129	0	1901129	40/Lo	10001	4	0	4	0	3.0	0.0	3.0	0.0					1986.3594301999549	1991.7482798998244	1991.7482798998244	6.0	['6', 'return']	[2.310024900129065, 3.2467804001644254]	5.38	5.67	3.0	40hz	low_pain	48.0				sub-049	250	49	48	49	COM5	COM15	COM3	2024-11-15_14h48.19.807	001-EEG_SVR_Officel	2022.2.5	239.89674810025187		5.673000000000002	2_sub-pilot049_SVR_EEG_block5-6.protocol.csv	step9	1421	141.347	STIMULATE	48.0	48.0	48.0	48.0	48.0	9	1907.012
1910.979	0	1910979	wait	10004	4	0	4	0	4.0	0.0	4.0	0.0					2008.0134377998768	2014.9754203998016	2014.9754203998016	6.0	['6', 'return']	[1.977090499829501, 2.8334129999857396]	6.96	5.09	0.0	controle	low_pain	48.0				sub-049	250	49	48	49	COM5	COM15	COM3	2024-11-15_14h48.19.807	001-EEG_SVR_Officel	2022.2.5	239.89674810025187		10.600000000000136	2_sub-pilot049_SVR_EEG_block5-6.protocol.csv	step11	1650	164.002	STIMULATE	48.0	47.9	47.9	48.0	48.3	11	1929.667
1917.938	0	1917938	CNhz	10003	4	0	4	0	4.0	0.0	4.0	0.0					2008.0134377998768	2014.9754203998016	2014.9754203998016	6.0	['6', 'return']	[1.977090499829501, 2.8334129999857396]	6.96	5.09	0.0	controle	low_pain	48.0				sub-049	250	49	48	49	COM5	COM15	COM3	2024-11-15_14h48.19.807	001-EEG_SVR_Officel	2022.2.5	239.89674810025187		6.95900000000006	2_sub-pilot049_SVR_EEG_block5-6.protocol.csv	step11	1650	164.002	STIMULATE	48.0	47.9	47.9	48.0	48.3	11	1929.667
1923.779	0	1923779	CN/Lo	10001	4	0	4	0	4.0	0.0	4.0	0.0					2008.0134377998768	2014.9754203998016	2014.9754203998016	6.0	['6', 'return']	[1.977090499829501, 2.8334129999857396]	6.96	5.09	0.0	controle	low_pain	48.0				sub-049	250	49	48	49	COM5	COM15	COM3	2024-11-15_14h48.19.807	001-EEG_SVR_Officel	2022.2.5	239.89674810025187		5.0909999999998945	2_sub-pilot049_SVR_EEG_block5-6.protocol.csv	step11	1650	164.002	STIMULATE	48.0	47.9	47.9	48.0	48.3	11	1929.667
