onset	duration	sample	trial_type	value	block.thisRepN	block.thisTrialN	block.thisN	block.thisIndex	reps.thisRepN	reps.thisTrialN	reps.thisN	reps.thisIndex	afrec_start	rec_start	rec_start_egi	key_resp.keys	key_resp.rt	wait_time_text.started	wait_time_text.stopped	therm_loca_text.started	subResponse	keyResp.keys	keyResp.rt	ITI_wait	wait_trigger	loca_thermode	Hz_condition	temp_condition	temp_valeur	text.started	text.stopped	participant	brightness	num_part	low	high	com_svr	com_thermode	com_eeg	date	expName	psychopyVersion	frameRate	Unnamed: 39	distance_from_previous	file	step	index	time	type	temp1	temp2	temp3	temp4	temp5	step_num	time_sync
2.784	0	1392	wait	20	0	0	0	0	0.0	0.0	0.0	0.0	184.9955753000031	184.7779339000008	1700244651.0041895	p	2.5400173000016366	187.56294620000332	193.93899320000128	193.93899320000128	6.0	['6', 'return']	[3.181543099999544, 3.8778853000003437]	6.37	6.31	0.0	40hz	high_pain	46.5			sub-pilot020	250	20	44	46.5	COM11	COM7	COM3	2023-11-17_13h08.05.879	001-EEG_SVR_Officel	2022.2.5	143.37575343989676		2.784	0_sub-pilot020_SVR_EEG_block1-2.protocol.csv	step3	1196	119.429	STIMULATE	46.7	46.4	46.4	46.4	46.5	3	22.095000000000006
9.148	0	4574	40hz	9	0	0	0	0	0.0	0.0	0.0	0.0	184.9955753000031	184.7779339000008	1700244651.0041895	p	2.5400173000016366	187.56294620000332	193.93899320000128	193.93899320000128	6.0	['6', 'return']	[3.181543099999544, 3.8778853000003437]	6.37	6.31	0.0	40hz	high_pain	46.5			sub-pilot020	250	20	44	46.5	COM11	COM7	COM3	2023-11-17_13h08.05.879	001-EEG_SVR_Officel	2022.2.5	143.37575343989676		6.364	0_sub-pilot020_SVR_EEG_block1-2.protocol.csv	step3	1196	119.429	STIMULATE	46.7	46.4	46.4	46.4	46.5	3	22.095000000000006
16.21	0	8105	40/Hi	7	0	0	0	0	0.0	0.0	0.0	0.0	184.9955753000031	184.7779339000008	1700244651.0041895	p	2.5400173000016366	187.56294620000332	193.93899320000128	193.93899320000128	6.0	['6', 'return']	[3.181543099999544, 3.8778853000003437]	6.37	6.31	0.0	40hz	high_pain	46.5			sub-pilot020	250	20	44	46.5	COM11	COM7	COM3	2023-11-17_13h08.05.879	001-EEG_SVR_Officel	2022.2.5	143.37575343989676		6.312000000000001	0_sub-pilot020_SVR_EEG_block1-2.protocol.csv	step3	1196	119.429	STIMULATE	46.7	46.4	46.4	46.4	46.5	3	22.095000000000006
26.05	0	13025	wait	20	0	0	0	0	1.0	0.0	1.0	0.0						210.8291358000024	218.59513900000093	218.59513900000093	8.0	['8', 'return']	[3.261662700002489, 5.301883500000258]	7.76	5.39	1.0	controle	high_pain	46.5			sub-pilot020	250	20	44	46.5	COM11	COM7	COM3	2023-11-17_13h08.05.879	001-EEG_SVR_Officel	2022.2.5	143.37575343989676		10.59	0_sub-pilot020_SVR_EEG_block1-2.protocol.csv	step5	1435	143.127	STIMULATE	46.8	46.4	46.4	46.5	46.7	5	45.79300000000001
33.806	0	16903	CNhz	12	0	0	0	0	1.0	0.0	1.0	0.0						210.8291358000024	218.59513900000093	218.59513900000093	8.0	['8', 'return']	[3.261662700002489, 5.301883500000258]	7.76	5.39	1.0	controle	high_pain	46.5			sub-pilot020	250	20	44	46.5	COM11	COM7	COM3	2023-11-17_13h08.05.879	001-EEG_SVR_Officel	2022.2.5	143.37575343989676		7.755999999999997	0_sub-pilot020_SVR_EEG_block1-2.protocol.csv	step5	1435	143.127	STIMULATE	46.8	46.4	46.4	46.5	46.7	5	45.79300000000001
39.95	0	19975	CN/Hi	10	0	0	0	0	1.0	0.0	1.0	0.0						210.8291358000024	218.59513900000093	218.59513900000093	8.0	['8', 'return']	[3.261662700002489, 5.301883500000258]	7.76	5.39	1.0	controle	high_pain	46.5			sub-pilot020	250	20	44	46.5	COM11	COM7	COM3	2023-11-17_13h08.05.879	001-EEG_SVR_Officel	2022.2.5	143.37575343989676		5.3940000000000055	0_sub-pilot020_SVR_EEG_block1-2.protocol.csv	step5	1435	143.127	STIMULATE	46.8	46.4	46.4	46.5	46.7	5	45.79300000000001
52.138	0	26069	wait	20	0	0	0	0	2.0	0.0	2.0	0.0						236.9164641000025	243.4725698000002	243.4725698000002	4.0	['4', 'return']	[3.7672306999993452, 4.351482100002613]	6.55	5.8	2.0	controle	low_pain	44.0			sub-pilot020	250	20	44	46.5	COM11	COM7	COM3	2023-11-17_13h08.05.879	001-EEG_SVR_Officel	2022.2.5	143.37575343989676		12.937999999999995	0_sub-pilot020_SVR_EEG_block1-2.protocol.csv	step7	1690	168.447	STIMULATE	43.9	43.9	43.9	43.9	44.1	7	71.113
58.682	0	29341	CNhz	12	0	0	0	0	2.0	0.0	2.0	0.0						236.9164641000025	243.4725698000002	243.4725698000002	4.0	['4', 'return']	[3.7672306999993452, 4.351482100002613]	6.55	5.8	2.0	controle	low_pain	44.0			sub-pilot020	250	20	44	46.5	COM11	COM7	COM3	2023-11-17_13h08.05.879	001-EEG_SVR_Officel	2022.2.5	143.37575343989676		6.544000000000004	0_sub-pilot020_SVR_EEG_block1-2.protocol.csv	step7	1690	168.447	STIMULATE	43.9	43.9	43.9	43.9	44.1	7	71.113
65.236	0	32618	CN/Lo	11	0	0	0	0	2.0	0.0	2.0	0.0						236.9164641000025	243.4725698000002	243.4725698000002	4.0	['4', 'return']	[3.7672306999993452, 4.351482100002613]	6.55	5.8	2.0	controle	low_pain	44.0			sub-pilot020	250	20	44	46.5	COM11	COM7	COM3	2023-11-17_13h08.05.879	001-EEG_SVR_Officel	2022.2.5	143.37575343989676		5.804000000000002	0_sub-pilot020_SVR_EEG_block1-2.protocol.csv	step7	1690	168.447	STIMULATE	43.9	43.9	43.9	43.9	44.1	7	71.113
76.056	0	38028	wait	20	0	0	0	0	3.0	0.0	3.0	0.0						260.83526300000085	267.0657243000024	267.0657243000024	4.0	['4', 'return']	[3.22285230000125, 3.9921515000023646]	6.22	6.13	3.0	40hz	high_pain	46.5			sub-pilot020	250	20	44	46.5	COM11	COM7	COM3	2023-11-17_13h08.05.879	001-EEG_SVR_Officel	2022.2.5	143.37575343989676		11.569999999999993	0_sub-pilot020_SVR_EEG_block1-2.protocol.csv	step9	1930	192.217	STIMULATE	46.5	46.4	46.4	46.5	46.6	9	94.88300000000001
82.276	0	41138	40hz	9	0	0	0	0	3.0	0.0	3.0	0.0						260.83526300000085	267.0657243000024	267.0657243000024	4.0	['4', 'return']	[3.22285230000125, 3.9921515000023646]	6.22	6.13	3.0	40hz	high_pain	46.5			sub-pilot020	250	20	44	46.5	COM11	COM7	COM3	2023-11-17_13h08.05.879	001-EEG_SVR_Officel	2022.2.5	143.37575343989676		6.219999999999999	0_sub-pilot020_SVR_EEG_block1-2.protocol.csv	step9	1930	192.217	STIMULATE	46.5	46.4	46.4	46.5	46.6	9	94.88300000000001
89.156	0	44578	40/Hi	7	0	0	0	0	3.0	0.0	3.0	0.0						260.83526300000085	267.0657243000024	267.0657243000024	4.0	['4', 'return']	[3.22285230000125, 3.9921515000023646]	6.22	6.13	3.0	40hz	high_pain	46.5			sub-pilot020	250	20	44	46.5	COM11	COM7	COM3	2023-11-17_13h08.05.879	001-EEG_SVR_Officel	2022.2.5	143.37575343989676		6.13000000000001	0_sub-pilot020_SVR_EEG_block1-2.protocol.csv	step9	1930	192.217	STIMULATE	46.5	46.4	46.4	46.5	46.6	9	94.88300000000001
99.296	0	49648	wait	20	0	0	0	0	4.0	0.0	4.0	0.0						284.07456000000093	289.33218110000234	289.33218110000234	5.0	['5', 'return']	[3.1244501000001037, 3.7082687000001897]	5.25	5.16	0.0	20hz	high_pain	46.5			sub-pilot020	250	20	44	46.5	COM11	COM7	COM3	2023-11-17_13h08.05.879	001-EEG_SVR_Officel	2022.2.5	143.37575343989676		10.89	0_sub-pilot020_SVR_EEG_block1-2.protocol.csv	step11	2146	213.604	STIMULATE	46.8	46.4	46.4	46.5	46.6	11	116.27000000000001
104.542	0	52271	20hz	6	0	0	0	0	4.0	0.0	4.0	0.0						284.07456000000093	289.33218110000234	289.33218110000234	5.0	['5', 'return']	[3.1244501000001037, 3.7082687000001897]	5.25	5.16	0.0	20hz	high_pain	46.5			sub-pilot020	250	20	44	46.5	COM11	COM7	COM3	2023-11-17_13h08.05.879	001-EEG_SVR_Officel	2022.2.5	143.37575343989676		5.245999999999995	0_sub-pilot020_SVR_EEG_block1-2.protocol.csv	step11	2146	213.604	STIMULATE	46.8	46.4	46.4	46.5	46.6	11	116.27000000000001
110.45	0	55225	20/Hi	4	0	0	0	0	4.0	0.0	4.0	0.0						284.07456000000093	289.33218110000234	289.33218110000234	5.0	['5', 'return']	[3.1244501000001037, 3.7082687000001897]	5.25	5.16	0.0	20hz	high_pain	46.5			sub-pilot020	250	20	44	46.5	COM11	COM7	COM3	2023-11-17_13h08.05.879	001-EEG_SVR_Officel	2022.2.5	143.37575343989676		5.158000000000001	0_sub-pilot020_SVR_EEG_block1-2.protocol.csv	step11	2146	213.604	STIMULATE	46.8	46.4	46.4	46.5	46.6	11	116.27000000000001
121.278	0	60639	wait	20	0	0	0	0	5.0	0.0	5.0	0.0						306.05647930000123	312.1127059000028	312.1127059000028	4.0	['4', 'return']	[3.0163021000007575, 3.7843586999988474]	6.05	5.62	1.0	10hz	low_pain	44.0			sub-pilot020	250	20	44	46.5	COM11	COM7	COM3	2023-11-17_13h08.05.879	001-EEG_SVR_Officel	2022.2.5	143.37575343989676		11.578000000000003	0_sub-pilot020_SVR_EEG_block1-2.protocol.csv	step13	2381	236.916	STIMULATE	44.2	43.8	43.9	43.9	44.0	13	139.582
127.322	0	63661	10hz	3	0	0	0	0	5.0	0.0	5.0	0.0						306.05647930000123	312.1127059000028	312.1127059000028	4.0	['4', 'return']	[3.0163021000007575, 3.7843586999988474]	6.05	5.62	1.0	10hz	low_pain	44.0			sub-pilot020	250	20	44	46.5	COM11	COM7	COM3	2023-11-17_13h08.05.879	001-EEG_SVR_Officel	2022.2.5	143.37575343989676		6.043999999999997	0_sub-pilot020_SVR_EEG_block1-2.protocol.csv	step13	2381	236.916	STIMULATE	44.2	43.8	43.9	43.9	44.0	13	139.582
133.696	0	66848	10/Lo	2	0	0	0	0	5.0	0.0	5.0	0.0						306.05647930000123	312.1127059000028	312.1127059000028	4.0	['4', 'return']	[3.0163021000007575, 3.7843586999988474]	6.05	5.62	1.0	10hz	low_pain	44.0			sub-pilot020	250	20	44	46.5	COM11	COM7	COM3	2023-11-17_13h08.05.879	001-EEG_SVR_Officel	2022.2.5	143.37575343989676		5.623999999999995	0_sub-pilot020_SVR_EEG_block1-2.protocol.csv	step13	2381	236.916	STIMULATE	44.2	43.8	43.9	43.9	44.0	13	139.582
144.128	0	72064	wait	20	0	0	0	0	6.0	0.0	6.0	0.0						328.906374000002	334.1779877000008	334.1779877000008	7.0	['7', 'return']	[3.7899065999990853, 4.358407899999293]	5.26	5.42	2.0	40hz	high_pain	46.5			sub-pilot020	250	20	44	46.5	COM11	COM7	COM3	2023-11-17_13h08.05.879	001-EEG_SVR_Officel	2022.2.5	143.37575343989676		11.181999999999988	0_sub-pilot020_SVR_EEG_block1-2.protocol.csv	step15	2601	258.741	STIMULATE	46.6	46.4	46.4	46.4	46.7	15	161.407
149.386	0	74693	40hz	9	0	0	0	0	6.0	0.0	6.0	0.0						328.906374000002	334.1779877000008	334.1779877000008	7.0	['7', 'return']	[3.7899065999990853, 4.358407899999293]	5.26	5.42	2.0	40hz	high_pain	46.5			sub-pilot020	250	20	44	46.5	COM11	COM7	COM3	2023-11-17_13h08.05.879	001-EEG_SVR_Officel	2022.2.5	143.37575343989676		5.25800000000001	0_sub-pilot020_SVR_EEG_block1-2.protocol.csv	step15	2601	258.741	STIMULATE	46.6	46.4	46.4	46.4	46.7	15	161.407
155.558	0	77779	40/Hi	7	0	0	0	0	6.0	0.0	6.0	0.0						328.906374000002	334.1779877000008	334.1779877000008	7.0	['7', 'return']	[3.7899065999990853, 4.358407899999293]	5.26	5.42	2.0	40hz	high_pain	46.5			sub-pilot020	250	20	44	46.5	COM11	COM7	COM3	2023-11-17_13h08.05.879	001-EEG_SVR_Officel	2022.2.5	143.37575343989676		5.421999999999997	0_sub-pilot020_SVR_EEG_block1-2.protocol.csv	step15	2601	258.741	STIMULATE	46.6	46.4	46.4	46.4	46.7	15	161.407
166.768	0	83384	wait	20	0	0	0	0	7.0	0.0	7.0	0.0						351.54801190000217	356.7778739000023	356.7778739000023	6.0	['6', 'return']	[3.0143563999990874, 3.5831550999973842]	5.22	6.31	3.0	40hz	low_pain	44.0			sub-pilot020	250	20	44	46.5	COM11	COM7	COM3	2023-11-17_13h08.05.879	001-EEG_SVR_Officel	2022.2.5	143.37575343989676		11.960000000000008	0_sub-pilot020_SVR_EEG_block1-2.protocol.csv	step17	2839	282.316	STIMULATE	43.9	43.9	43.9	43.9	44.2	17	184.982
171.986	0	85993	40hz	9	0	0	0	0	7.0	0.0	7.0	0.0						351.54801190000217	356.7778739000023	356.7778739000023	6.0	['6', 'return']	[3.0143563999990874, 3.5831550999973842]	5.22	6.31	3.0	40hz	low_pain	44.0			sub-pilot020	250	20	44	46.5	COM11	COM7	COM3	2023-11-17_13h08.05.879	001-EEG_SVR_Officel	2022.2.5	143.37575343989676		5.217999999999989	0_sub-pilot020_SVR_EEG_block1-2.protocol.csv	step17	2839	282.316	STIMULATE	43.9	43.9	43.9	43.9	44.2	17	184.982
179.048	0	89524	40/Lo	8	0	0	0	0	7.0	0.0	7.0	0.0						351.54801190000217	356.7778739000023	356.7778739000023	6.0	['6', 'return']	[3.0143563999990874, 3.5831550999973842]	5.22	6.31	3.0	40hz	low_pain	44.0			sub-pilot020	250	20	44	46.5	COM11	COM7	COM3	2023-11-17_13h08.05.879	001-EEG_SVR_Officel	2022.2.5	143.37575343989676		6.312000000000012	0_sub-pilot020_SVR_EEG_block1-2.protocol.csv	step17	2839	282.316	STIMULATE	43.9	43.9	43.9	43.9	44.2	17	184.982
188.598	0	94299	wait	20	0	0	0	0	8.0	0.0	8.0	0.0						373.3771059000028	380.4197242000009	380.4197242000009	8.0	['8', 'return']	[2.836174199997913, 3.42848359999698]	7.03	6.22	0.0	controle	high_pain	46.5			sub-pilot020	250	20	44	46.5	COM11	COM7	COM3	2023-11-17_13h08.05.879	001-EEG_SVR_Officel	2022.2.5	143.37575343989676		10.300000000000011	0_sub-pilot020_SVR_EEG_block1-2.protocol.csv	step19	3075	305.765	STIMULATE	46.5	46.4	46.4	46.4	46.6	19	208.431
195.63	0	97815	CNhz	12	0	0	0	0	8.0	0.0	8.0	0.0						373.3771059000028	380.4197242000009	380.4197242000009	8.0	['8', 'return']	[2.836174199997913, 3.42848359999698]	7.03	6.22	0.0	controle	high_pain	46.5			sub-pilot020	250	20	44	46.5	COM11	COM7	COM3	2023-11-17_13h08.05.879	001-EEG_SVR_Officel	2022.2.5	143.37575343989676		7.031999999999982	0_sub-pilot020_SVR_EEG_block1-2.protocol.csv	step19	3075	305.765	STIMULATE	46.5	46.4	46.4	46.4	46.6	19	208.431
202.6	0	101300	CN/Hi	10	0	0	0	0	8.0	0.0	8.0	0.0						373.3771059000028	380.4197242000009	380.4197242000009	8.0	['8', 'return']	[2.836174199997913, 3.42848359999698]	7.03	6.22	0.0	controle	high_pain	46.5			sub-pilot020	250	20	44	46.5	COM11	COM7	COM3	2023-11-17_13h08.05.879	001-EEG_SVR_Officel	2022.2.5	143.37575343989676		6.219999999999999	0_sub-pilot020_SVR_EEG_block1-2.protocol.csv	step19	3075	305.765	STIMULATE	46.5	46.4	46.4	46.4	46.6	19	208.431
212.086	0	106043	wait	20	0	0	0	0	9.0	0.0	9.0	0.0						396.8661604000008	404.0335987000035	404.0335987000035	7.0	['7', 'return']	[2.7907297000019753, 3.208118500002456]	7.16	5.4	1.0	controle	low_pain	44.0			sub-pilot020	250	20	44	46.5	COM11	COM7	COM3	2023-11-17_13h08.05.879	001-EEG_SVR_Officel	2022.2.5	143.37575343989676		10.236000000000018	0_sub-pilot020_SVR_EEG_block1-2.protocol.csv	step21	3305	328.573	STIMULATE	43.9	43.9	43.9	43.9	44.0	21	231.239
219.242	0	109621	CNhz	12	0	0	0	0	9.0	0.0	9.0	0.0						396.8661604000008	404.0335987000035	404.0335987000035	7.0	['7', 'return']	[2.7907297000019753, 3.208118500002456]	7.16	5.4	1.0	controle	low_pain	44.0			sub-pilot020	250	20	44	46.5	COM11	COM7	COM3	2023-11-17_13h08.05.879	001-EEG_SVR_Officel	2022.2.5	143.37575343989676		7.1559999999999775	0_sub-pilot020_SVR_EEG_block1-2.protocol.csv	step21	3305	328.573	STIMULATE	43.9	43.9	43.9	43.9	44.0	21	231.239
225.394	0	112697	CN/Lo	11	0	0	0	0	9.0	0.0	9.0	0.0						396.8661604000008	404.0335987000035	404.0335987000035	7.0	['7', 'return']	[2.7907297000019753, 3.208118500002456]	7.16	5.4	1.0	controle	low_pain	44.0			sub-pilot020	250	20	44	46.5	COM11	COM7	COM3	2023-11-17_13h08.05.879	001-EEG_SVR_Officel	2022.2.5	143.37575343989676		5.402000000000015	0_sub-pilot020_SVR_EEG_block1-2.protocol.csv	step21	3305	328.573	STIMULATE	43.9	43.9	43.9	43.9	44.0	21	231.239
235.47	0	117735	wait	20	0	0	0	0	10.0	0.0	10.0	0.0						420.2503701000023	427.1474723000029	427.1474723000029	3.0	['3', 'return']	[2.397538400000485, 2.9419522999996843]	6.89	6.16	2.0	10hz	low_pain	44.0			sub-pilot020	250	20	44	46.5	COM11	COM7	COM3	2023-11-17_13h08.05.879	001-EEG_SVR_Officel	2022.2.5	143.37575343989676		10.825999999999993	0_sub-pilot020_SVR_EEG_block1-2.protocol.csv	step23	3546	352.447	STIMULATE	43.9	43.9	43.9	43.9	44.2	23	255.11300000000003
242.356	0	121178	10hz	3	0	0	0	0	10.0	0.0	10.0	0.0						420.2503701000023	427.1474723000029	427.1474723000029	3.0	['3', 'return']	[2.397538400000485, 2.9419522999996843]	6.89	6.16	2.0	10hz	low_pain	44.0			sub-pilot020	250	20	44	46.5	COM11	COM7	COM3	2023-11-17_13h08.05.879	001-EEG_SVR_Officel	2022.2.5	143.37575343989676		6.885999999999996	0_sub-pilot020_SVR_EEG_block1-2.protocol.csv	step23	3546	352.447	STIMULATE	43.9	43.9	43.9	43.9	44.2	23	255.11300000000003
249.264	0	124632	10/Lo	2	0	0	0	0	10.0	0.0	10.0	0.0						420.2503701000023	427.1474723000029	427.1474723000029	3.0	['3', 'return']	[2.397538400000485, 2.9419522999996843]	6.89	6.16	2.0	10hz	low_pain	44.0			sub-pilot020	250	20	44	46.5	COM11	COM7	COM3	2023-11-17_13h08.05.879	001-EEG_SVR_Officel	2022.2.5	143.37575343989676		6.1580000000000155	0_sub-pilot020_SVR_EEG_block1-2.protocol.csv	step23	3546	352.447	STIMULATE	43.9	43.9	43.9	43.9	44.2	23	255.11300000000003
258.328	0	129163	wait	20	0	0	0	0	11.0	0.0	11.0	0.0						443.1077834000025	449.0459133000004	449.0459133000004	2.0	['2', 'return']	[2.330612400000973, 2.931264900002134]	5.93	5.11	3.0	controle	low_pain	44.0			sub-pilot020	250	20	44	46.5	COM11	COM7	COM3	2023-11-17_13h08.05.879	001-EEG_SVR_Officel	2022.2.5	143.37575343989676		9.813999999999965	0_sub-pilot020_SVR_EEG_block1-2.protocol.csv	step25	3756	373.298	STIMULATE	43.9	43.9	43.9	43.9	44.1	25	275.964
264.254	0	132127	CNhz	12	0	0	0	0	11.0	0.0	11.0	0.0						443.1077834000025	449.0459133000004	449.0459133000004	2.0	['2', 'return']	[2.330612400000973, 2.931264900002134]	5.93	5.11	3.0	controle	low_pain	44.0			sub-pilot020	250	20	44	46.5	COM11	COM7	COM3	2023-11-17_13h08.05.879	001-EEG_SVR_Officel	2022.2.5	143.37575343989676		5.926000000000045	0_sub-pilot020_SVR_EEG_block1-2.protocol.csv	step25	3756	373.298	STIMULATE	43.9	43.9	43.9	43.9	44.1	25	275.964
270.114	0	135057	CN/Lo	11	0	0	0	0	11.0	0.0	11.0	0.0						443.1077834000025	449.0459133000004	449.0459133000004	2.0	['2', 'return']	[2.330612400000973, 2.931264900002134]	5.93	5.11	3.0	controle	low_pain	44.0			sub-pilot020	250	20	44	46.5	COM11	COM7	COM3	2023-11-17_13h08.05.879	001-EEG_SVR_Officel	2022.2.5	143.37575343989676		5.109999999999957	0_sub-pilot020_SVR_EEG_block1-2.protocol.csv	step25	3756	373.298	STIMULATE	43.9	43.9	43.9	43.9	44.1	25	275.964
280.22	0	140110	wait	20	0	0	0	0	12.0	0.0	12.0	0.0						464.99970900000335	470.7370048000012	470.7370048000012	4.0	['4', 'return']	[2.841406300001836, 3.3363368999998784]	5.73	6.27	0.0	10hz	high_pain	46.5			sub-pilot020	250	20	44	46.5	COM11	COM7	COM3	2023-11-17_13h08.05.879	001-EEG_SVR_Officel	2022.2.5	143.37575343989676		10.856000000000051	0_sub-pilot020_SVR_EEG_block1-2.protocol.csv	step27	3987	396.136	STIMULATE	46.7	46.4	46.4	46.4	46.6	27	298.802
285.944	0	142972	10hz	3	0	0	0	0	12.0	0.0	12.0	0.0						464.99970900000335	470.7370048000012	470.7370048000012	4.0	['4', 'return']	[2.841406300001836, 3.3363368999998784]	5.73	6.27	0.0	10hz	high_pain	46.5			sub-pilot020	250	20	44	46.5	COM11	COM7	COM3	2023-11-17_13h08.05.879	001-EEG_SVR_Officel	2022.2.5	143.37575343989676		5.7239999999999895	0_sub-pilot020_SVR_EEG_block1-2.protocol.csv	step27	3987	396.136	STIMULATE	46.7	46.4	46.4	46.4	46.6	27	298.802
292.964	0	146482	10/Hi	1	0	0	0	0	12.0	0.0	12.0	0.0						464.99970900000335	470.7370048000012	470.7370048000012	4.0	['4', 'return']	[2.841406300001836, 3.3363368999998784]	5.73	6.27	0.0	10hz	high_pain	46.5			sub-pilot020	250	20	44	46.5	COM11	COM7	COM3	2023-11-17_13h08.05.879	001-EEG_SVR_Officel	2022.2.5	143.37575343989676		6.269999999999982	0_sub-pilot020_SVR_EEG_block1-2.protocol.csv	step27	3987	396.136	STIMULATE	46.7	46.4	46.4	46.4	46.6	27	298.802
302.312	0	151156	wait	20	0	0	0	0	13.0	0.0	13.0	0.0						487.0923727000009	494.5724458000004	494.5724458000004	2.0	['2', 'return']	[2.724341599998297, 3.348441300000559]	7.47	5.89	1.0	40hz	low_pain	44.0			sub-pilot020	250	20	44	46.5	COM11	COM7	COM3	2023-11-17_13h08.05.879	001-EEG_SVR_Officel	2022.2.5	143.37575343989676		10.098000000000013	0_sub-pilot020_SVR_EEG_block1-2.protocol.csv	step29	4224	419.644	STIMULATE	44.2	43.9	43.9	43.9	44.1	29	322.31
309.78	0	154890	40hz	9	0	0	0	0	13.0	0.0	13.0	0.0						487.0923727000009	494.5724458000004	494.5724458000004	2.0	['2', 'return']	[2.724341599998297, 3.348441300000559]	7.47	5.89	1.0	40hz	low_pain	44.0			sub-pilot020	250	20	44	46.5	COM11	COM7	COM3	2023-11-17_13h08.05.879	001-EEG_SVR_Officel	2022.2.5	143.37575343989676		7.467999999999961	0_sub-pilot020_SVR_EEG_block1-2.protocol.csv	step29	4224	419.644	STIMULATE	44.2	43.9	43.9	43.9	44.1	29	322.31
316.426	0	158213	40/Lo	8	0	0	0	0	13.0	0.0	13.0	0.0						487.0923727000009	494.5724458000004	494.5724458000004	2.0	['2', 'return']	[2.724341599998297, 3.348441300000559]	7.47	5.89	1.0	40hz	low_pain	44.0			sub-pilot020	250	20	44	46.5	COM11	COM7	COM3	2023-11-17_13h08.05.879	001-EEG_SVR_Officel	2022.2.5	143.37575343989676		5.896000000000015	0_sub-pilot020_SVR_EEG_block1-2.protocol.csv	step29	4224	419.644	STIMULATE	44.2	43.9	43.9	43.9	44.1	29	322.31
326.154	0	163077	wait	20	0	0	0	0	14.0	0.0	14.0	0.0						510.9350801000001	518.2072809000019	518.2072809000019	8.0	['8', 'return']	[2.7703542999988713, 3.129968099998223]	7.26	5.36	2.0	controle	high_pain	46.5			sub-pilot020	250	20	44	46.5	COM11	COM7	COM3	2023-11-17_13h08.05.879	001-EEG_SVR_Officel	2022.2.5	143.37575343989676		10.478000000000009	0_sub-pilot020_SVR_EEG_block1-2.protocol.csv	step31	4457	442.782	STIMULATE	46.8	46.5	46.4	46.5	46.5	31	345.448
333.414	0	166707	CNhz	12	0	0	0	0	14.0	0.0	14.0	0.0						510.9350801000001	518.2072809000019	518.2072809000019	8.0	['8', 'return']	[2.7703542999988713, 3.129968099998223]	7.26	5.36	2.0	controle	high_pain	46.5			sub-pilot020	250	20	44	46.5	COM11	COM7	COM3	2023-11-17_13h08.05.879	001-EEG_SVR_Officel	2022.2.5	143.37575343989676		7.259999999999991	0_sub-pilot020_SVR_EEG_block1-2.protocol.csv	step31	4457	442.782	STIMULATE	46.8	46.5	46.4	46.5	46.5	31	345.448
339.526	0	169763	CN/Hi	10	0	0	0	0	14.0	0.0	14.0	0.0						510.9350801000001	518.2072809000019	518.2072809000019	8.0	['8', 'return']	[2.7703542999988713, 3.129968099998223]	7.26	5.36	2.0	controle	high_pain	46.5			sub-pilot020	250	20	44	46.5	COM11	COM7	COM3	2023-11-17_13h08.05.879	001-EEG_SVR_Officel	2022.2.5	143.37575343989676		5.362000000000023	0_sub-pilot020_SVR_EEG_block1-2.protocol.csv	step31	4457	442.782	STIMULATE	46.8	46.5	46.4	46.5	46.5	31	345.448
349.568	0	174784	wait	20	0	0	0	0	15.0	0.0	15.0	0.0						534.3483666000029	541.828070800002	541.828070800002	5.0	['5', 'return']	[3.3646372000002884, 3.8458033000024443]	7.47	5.18	3.0	20hz	low_pain	44.0			sub-pilot020	250	20	44	46.5	COM11	COM7	COM3	2023-11-17_13h08.05.879	001-EEG_SVR_Officel	2022.2.5	143.37575343989676		10.791999999999973	0_sub-pilot020_SVR_EEG_block1-2.protocol.csv	step33	4693	466.193	STIMULATE	44.0	43.9	43.9	43.9	44.1	33	368.859
357.036	0	178518	20hz	6	0	0	0	0	15.0	0.0	15.0	0.0						534.3483666000029	541.828070800002	541.828070800002	5.0	['5', 'return']	[3.3646372000002884, 3.8458033000024443]	7.47	5.18	3.0	20hz	low_pain	44.0			sub-pilot020	250	20	44	46.5	COM11	COM7	COM3	2023-11-17_13h08.05.879	001-EEG_SVR_Officel	2022.2.5	143.37575343989676		7.468000000000018	0_sub-pilot020_SVR_EEG_block1-2.protocol.csv	step33	4693	466.193	STIMULATE	44.0	43.9	43.9	43.9	44.1	33	368.859
362.964	0	181482	20/Lo	5	0	0	0	0	15.0	0.0	15.0	0.0						534.3483666000029	541.828070800002	541.828070800002	5.0	['5', 'return']	[3.3646372000002884, 3.8458033000024443]	7.47	5.18	3.0	20hz	low_pain	44.0			sub-pilot020	250	20	44	46.5	COM11	COM7	COM3	2023-11-17_13h08.05.879	001-EEG_SVR_Officel	2022.2.5	143.37575343989676		5.177999999999997	0_sub-pilot020_SVR_EEG_block1-2.protocol.csv	step33	4693	466.193	STIMULATE	44.0	43.9	43.9	43.9	44.1	33	368.859
404.462	0	202231	wait	20	1	0	1	0	0.0	0.0	0.0	0.0				p	0.3927786999993259	589.2442794000017	595.9461437000027	595.9461437000027	2.0	['2', 'return']	[2.4157589999995253, 3.8709791000001132]	6.69	6.14	0.0	10hz	low_pain	44.0			sub-pilot020	250	20	44	46.5	COM11	COM7	COM3	2023-11-17_13h08.05.879	001-EEG_SVR_Officel	2022.2.5	143.37575343989676		42.24799999999999	0_sub-pilot020_SVR_EEG_block1-2.protocol.csv	step35	5247	521.355	STIMULATE	44.1	43.9	43.9	43.9	43.9	35	423.971
411.154	0	205577	10hz	3	1	0	1	0	0.0	0.0	0.0	0.0				p	0.3927786999993259	589.2442794000017	595.9461437000027	595.9461437000027	2.0	['2', 'return']	[2.4157589999995253, 3.8709791000001132]	6.69	6.14	0.0	10hz	low_pain	44.0			sub-pilot020	250	20	44	46.5	COM11	COM7	COM3	2023-11-17_13h08.05.879	001-EEG_SVR_Officel	2022.2.5	143.37575343989676		6.692000000000007	0_sub-pilot020_SVR_EEG_block1-2.protocol.csv	step35	5247	521.355	STIMULATE	44.1	43.9	43.9	43.9	43.9	35	423.971
418.048	0	209024	10/Lo	2	1	0	1	0	0.0	0.0	0.0	0.0				p	0.3927786999993259	589.2442794000017	595.9461437000027	595.9461437000027	2.0	['2', 'return']	[2.4157589999995253, 3.8709791000001132]	6.69	6.14	0.0	10hz	low_pain	44.0			sub-pilot020	250	20	44	46.5	COM11	COM7	COM3	2023-11-17_13h08.05.879	001-EEG_SVR_Officel	2022.2.5	143.37575343989676		6.1440000000000055	0_sub-pilot020_SVR_EEG_block1-2.protocol.csv	step35	5247	521.355	STIMULATE	44.1	43.9	43.9	43.9	43.9	35	423.971
428.048	0	214024	wait	20	1	0	1	0	1.0	0.0	1.0	0.0						612.8294913000027	620.5390394000024	620.5390394000024	6.0	['6', 'return']	[2.1659671000015805, 2.718279299999267]	7.7	5.0	1.0	40hz	high_pain	46.5			sub-pilot020	250	20	44	46.5	COM11	COM7	COM3	2023-11-17_13h08.05.879	001-EEG_SVR_Officel	2022.2.5	143.37575343989676		10.75	0_sub-pilot020_SVR_EEG_block1-2.protocol.csv	step37	5483	544.741	STIMULATE	46.7	46.4	46.4	46.4	46.6	37	447.35699999999997
435.744	0	217872	40hz	9	1	0	1	0	1.0	0.0	1.0	0.0						612.8294913000027	620.5390394000024	620.5390394000024	6.0	['6', 'return']	[2.1659671000015805, 2.718279299999267]	7.7	5.0	1.0	40hz	high_pain	46.5			sub-pilot020	250	20	44	46.5	COM11	COM7	COM3	2023-11-17_13h08.05.879	001-EEG_SVR_Officel	2022.2.5	143.37575343989676		7.696000000000026	0_sub-pilot020_SVR_EEG_block1-2.protocol.csv	step37	5483	544.741	STIMULATE	46.7	46.4	46.4	46.4	46.6	37	447.35699999999997
441.494	0	220747	40/Hi	7	1	0	1	0	1.0	0.0	1.0	0.0						612.8294913000027	620.5390394000024	620.5390394000024	6.0	['6', 'return']	[2.1659671000015805, 2.718279299999267]	7.7	5.0	1.0	40hz	high_pain	46.5			sub-pilot020	250	20	44	46.5	COM11	COM7	COM3	2023-11-17_13h08.05.879	001-EEG_SVR_Officel	2022.2.5	143.37575343989676		5.0	0_sub-pilot020_SVR_EEG_block1-2.protocol.csv	step37	5483	544.741	STIMULATE	46.7	46.4	46.4	46.4	46.6	37	447.35699999999997
451.488	0	225744	wait	20	1	0	1	0	2.0	0.0	2.0	0.0						636.2696323000018	642.0069731000003	642.0069731000003	5.0	['5', 'return']	[2.2917403999999806, 2.875325900000462]	5.73	5.88	2.0	20hz	high_pain	46.5			sub-pilot020	250	20	44	46.5	COM11	COM7	COM3	2023-11-17_13h08.05.879	001-EEG_SVR_Officel	2022.2.5	143.37575343989676		10.743999999999971	0_sub-pilot020_SVR_EEG_block1-2.protocol.csv	step39	5708	567.061	STIMULATE	46.6	46.4	46.4	46.4	46.7	39	469.677
457.214	0	228607	20hz	6	1	0	1	0	2.0	0.0	2.0	0.0						636.2696323000018	642.0069731000003	642.0069731000003	5.0	['5', 'return']	[2.2917403999999806, 2.875325900000462]	5.73	5.88	2.0	20hz	high_pain	46.5			sub-pilot020	250	20	44	46.5	COM11	COM7	COM3	2023-11-17_13h08.05.879	001-EEG_SVR_Officel	2022.2.5	143.37575343989676		5.725999999999999	0_sub-pilot020_SVR_EEG_block1-2.protocol.csv	step39	5708	567.061	STIMULATE	46.6	46.4	46.4	46.4	46.7	39	469.677
463.844	0	231922	20/Hi	4	1	0	1	0	2.0	0.0	2.0	0.0						636.2696323000018	642.0069731000003	642.0069731000003	5.0	['5', 'return']	[2.2917403999999806, 2.875325900000462]	5.73	5.88	2.0	20hz	high_pain	46.5			sub-pilot020	250	20	44	46.5	COM11	COM7	COM3	2023-11-17_13h08.05.879	001-EEG_SVR_Officel	2022.2.5	143.37575343989676		5.8799999999999955	0_sub-pilot020_SVR_EEG_block1-2.protocol.csv	step39	5708	567.061	STIMULATE	46.6	46.4	46.4	46.4	46.7	39	469.677
473.11	0	236555	wait	20	1	0	1	0	3.0	0.0	3.0	0.0						657.8907254000005	663.8289360000017	663.8289360000017	8.0	['8', 'return']	[2.3804788000015833, 2.821003799999744]	5.93	6.43	3.0	controle	high_pain	46.5			sub-pilot020	250	20	44	46.5	COM11	COM7	COM3	2023-11-17_13h08.05.879	001-EEG_SVR_Officel	2022.2.5	143.37575343989676		10.01600000000002	0_sub-pilot020_SVR_EEG_block1-2.protocol.csv	step41	5935	589.507	STIMULATE	46.5	46.4	46.4	46.5	46.8	41	492.12299999999993
479.036	0	239518	CNhz	12	1	0	1	0	3.0	0.0	3.0	0.0						657.8907254000005	663.8289360000017	663.8289360000017	8.0	['8', 'return']	[2.3804788000015833, 2.821003799999744]	5.93	6.43	3.0	controle	high_pain	46.5			sub-pilot020	250	20	44	46.5	COM11	COM7	COM3	2023-11-17_13h08.05.879	001-EEG_SVR_Officel	2022.2.5	143.37575343989676		5.925999999999988	0_sub-pilot020_SVR_EEG_block1-2.protocol.csv	step41	5935	589.507	STIMULATE	46.5	46.4	46.4	46.5	46.8	41	492.12299999999993
486.214	0	243107	CN/Hi	10	1	0	1	0	3.0	0.0	3.0	0.0						657.8907254000005	663.8289360000017	663.8289360000017	8.0	['8', 'return']	[2.3804788000015833, 2.821003799999744]	5.93	6.43	3.0	controle	high_pain	46.5			sub-pilot020	250	20	44	46.5	COM11	COM7	COM3	2023-11-17_13h08.05.879	001-EEG_SVR_Officel	2022.2.5	143.37575343989676		6.427999999999997	0_sub-pilot020_SVR_EEG_block1-2.protocol.csv	step41	5935	589.507	STIMULATE	46.5	46.4	46.4	46.5	46.8	41	492.12299999999993
494.89	0	247445	wait	20	1	0	1	0	4.0	0.0	4.0	0.0						679.6712961000012	686.2484997000029	686.2484997000029	3.0	['3', 'return']	[2.4733727000020735, 3.073215100001107]	6.57	6.49	0.0	20hz	low_pain	44.0			sub-pilot020	250	20	44	46.5	COM11	COM7	COM3	2023-11-17_13h08.05.879	001-EEG_SVR_Officel	2022.2.5	143.37575343989676		9.425999999999988	0_sub-pilot020_SVR_EEG_block1-2.protocol.csv	step43	6161	611.971	STIMULATE	44.1	43.9	43.9	43.9	44.1	43	514.587
501.454	0	250727	20hz	6	1	0	1	0	4.0	0.0	4.0	0.0						679.6712961000012	686.2484997000029	686.2484997000029	3.0	['3', 'return']	[2.4733727000020735, 3.073215100001107]	6.57	6.49	0.0	20hz	low_pain	44.0			sub-pilot020	250	20	44	46.5	COM11	COM7	COM3	2023-11-17_13h08.05.879	001-EEG_SVR_Officel	2022.2.5	143.37575343989676		6.564000000000021	0_sub-pilot020_SVR_EEG_block1-2.protocol.csv	step43	6161	611.971	STIMULATE	44.1	43.9	43.9	43.9	44.1	43	514.587
508.696	0	254348	20/Lo	5	1	0	1	0	4.0	0.0	4.0	0.0						679.6712961000012	686.2484997000029	686.2484997000029	3.0	['3', 'return']	[2.4733727000020735, 3.073215100001107]	6.57	6.49	0.0	20hz	low_pain	44.0			sub-pilot020	250	20	44	46.5	COM11	COM7	COM3	2023-11-17_13h08.05.879	001-EEG_SVR_Officel	2022.2.5	143.37575343989676		6.492000000000019	0_sub-pilot020_SVR_EEG_block1-2.protocol.csv	step43	6161	611.971	STIMULATE	44.1	43.9	43.9	43.9	44.1	43	514.587
517.552	0	258776	wait	20	1	0	1	0	5.0	0.0	5.0	0.0						702.3342007000028	707.7860050000018	707.7860050000018	6.0	['6', 'return']	[2.464315599998372, 3.000634199997876]	5.44	5.36	1.0	10hz	high_pain	46.5			sub-pilot020	250	20	44	46.5	COM11	COM7	COM3	2023-11-17_13h08.05.879	001-EEG_SVR_Officel	2022.2.5	143.37575343989676		9.605999999999995	0_sub-pilot020_SVR_EEG_block1-2.protocol.csv	step45	6367	632.367	STIMULATE	46.7	46.4	46.5	46.5	46.8	45	534.983
522.992	0	261495	10hz	3	1	0	1	0	5.0	0.0	5.0	0.0						702.3342007000028	707.7860050000018	707.7860050000018	6.0	['6', 'return']	[2.464315599998372, 3.000634199997876]	5.44	5.36	1.0	10hz	high_pain	46.5			sub-pilot020	250	20	44	46.5	COM11	COM7	COM3	2023-11-17_13h08.05.879	001-EEG_SVR_Officel	2022.2.5	143.37575343989676		5.439999999999941	0_sub-pilot020_SVR_EEG_block1-2.protocol.csv	step45	6367	632.367	STIMULATE	46.7	46.4	46.5	46.5	46.8	45	534.983
529.102	0	264551	10/Hi	1	1	0	1	0	5.0	0.0	5.0	0.0						702.3342007000028	707.7860050000018	707.7860050000018	6.0	['6', 'return']	[2.464315599998372, 3.000634199997876]	5.44	5.36	1.0	10hz	high_pain	46.5			sub-pilot020	250	20	44	46.5	COM11	COM7	COM3	2023-11-17_13h08.05.879	001-EEG_SVR_Officel	2022.2.5	143.37575343989676		5.360000000000014	0_sub-pilot020_SVR_EEG_block1-2.protocol.csv	step45	6367	632.367	STIMULATE	46.7	46.4	46.5	46.5	46.8	45	534.983
539.012	0	269506	wait	20	1	0	1	0	6.0	0.0	6.0	0.0						723.7945371000023	729.2257596000018	729.2257596000018	2.0	['2', 'return']	[2.6313904999988154, 3.2797486999988905]	5.42	5.51	2.0	20hz	low_pain	44.0			sub-pilot020	250	20	44	46.5	COM11	COM7	COM3	2023-11-17_13h08.05.879	001-EEG_SVR_Officel	2022.2.5	143.37575343989676		10.659999999999968	0_sub-pilot020_SVR_EEG_block1-2.protocol.csv	step47	6585	653.983	STIMULATE	44.1	43.9	43.9	43.9	44.2	47	556.5989999999999
544.432	0	272216	20hz	6	1	0	1	0	6.0	0.0	6.0	0.0						723.7945371000023	729.2257596000018	729.2257596000018	2.0	['2', 'return']	[2.6313904999988154, 3.2797486999988905]	5.42	5.51	2.0	20hz	low_pain	44.0			sub-pilot020	250	20	44	46.5	COM11	COM7	COM3	2023-11-17_13h08.05.879	001-EEG_SVR_Officel	2022.2.5	143.37575343989676		5.420000000000073	0_sub-pilot020_SVR_EEG_block1-2.protocol.csv	step47	6585	653.983	STIMULATE	44.1	43.9	43.9	43.9	44.2	47	556.5989999999999
550.694	0	275347	20/Lo	5	1	0	1	0	6.0	0.0	6.0	0.0						723.7945371000023	729.2257596000018	729.2257596000018	2.0	['2', 'return']	[2.6313904999988154, 3.2797486999988905]	5.42	5.51	2.0	20hz	low_pain	44.0			sub-pilot020	250	20	44	46.5	COM11	COM7	COM3	2023-11-17_13h08.05.879	001-EEG_SVR_Officel	2022.2.5	143.37575343989676		5.511999999999944	0_sub-pilot020_SVR_EEG_block1-2.protocol.csv	step47	6585	653.983	STIMULATE	44.1	43.9	43.9	43.9	44.2	47	556.5989999999999
560.744	0	280372	wait	20	1	0	1	0	7.0	0.0	7.0	0.0						745.5264797000018	751.124241700003	751.124241700003	3.0	['3', 'return']	[2.403845299999375, 3.0445204000025115]	5.59	5.71	3.0	10hz	low_pain	44.0			sub-pilot020	250	20	44	46.5	COM11	COM7	COM3	2023-11-17_13h08.05.879	001-EEG_SVR_Officel	2022.2.5	143.37575343989676		10.800000000000068	0_sub-pilot020_SVR_EEG_block1-2.protocol.csv	step49	6807	675.973	STIMULATE	43.9	43.9	43.9	43.9	44.1	49	578.5889999999999
566.33	0	283165	10hz	3	1	0	1	0	7.0	0.0	7.0	0.0						745.5264797000018	751.124241700003	751.124241700003	3.0	['3', 'return']	[2.403845299999375, 3.0445204000025115]	5.59	5.71	3.0	10hz	low_pain	44.0			sub-pilot020	250	20	44	46.5	COM11	COM7	COM3	2023-11-17_13h08.05.879	001-EEG_SVR_Officel	2022.2.5	143.37575343989676		5.586000000000013	0_sub-pilot020_SVR_EEG_block1-2.protocol.csv	step49	6807	675.973	STIMULATE	43.9	43.9	43.9	43.9	44.1	49	578.5889999999999
572.794	0	286397	10/Lo	2	1	0	1	0	7.0	0.0	7.0	0.0						745.5264797000018	751.124241700003	751.124241700003	3.0	['3', 'return']	[2.403845299999375, 3.0445204000025115]	5.59	5.71	3.0	10hz	low_pain	44.0			sub-pilot020	250	20	44	46.5	COM11	COM7	COM3	2023-11-17_13h08.05.879	001-EEG_SVR_Officel	2022.2.5	143.37575343989676		5.713999999999942	0_sub-pilot020_SVR_EEG_block1-2.protocol.csv	step49	6807	675.973	STIMULATE	43.9	43.9	43.9	43.9	44.1	49	578.5889999999999
582.4	0	291200	wait	20	1	0	1	0	8.0	0.0	8.0	0.0						767.1822058000034	773.8844171000019	773.8844171000019	3.0	['3', 'return']	[2.5650241000003007, 3.1574684000006528]	6.69	5.68	0.0	controle	low_pain	44.0			sub-pilot020	250	20	44	46.5	COM11	COM7	COM3	2023-11-17_13h08.05.879	001-EEG_SVR_Officel	2022.2.5	143.37575343989676		10.355999999999995	0_sub-pilot020_SVR_EEG_block1-2.protocol.csv	step51	7037	698.783	STIMULATE	44.1	43.9	43.9	43.9	44.1	51	601.399
589.09	0	294545	CNhz	12	1	0	1	0	8.0	0.0	8.0	0.0						767.1822058000034	773.8844171000019	773.8844171000019	3.0	['3', 'return']	[2.5650241000003007, 3.1574684000006528]	6.69	5.68	0.0	controle	low_pain	44.0			sub-pilot020	250	20	44	46.5	COM11	COM7	COM3	2023-11-17_13h08.05.879	001-EEG_SVR_Officel	2022.2.5	143.37575343989676		6.690000000000055	0_sub-pilot020_SVR_EEG_block1-2.protocol.csv	step51	7037	698.783	STIMULATE	44.1	43.9	43.9	43.9	44.1	51	601.399
595.52	0	297760	CN/Lo	11	1	0	1	0	8.0	0.0	8.0	0.0						767.1822058000034	773.8844171000019	773.8844171000019	3.0	['3', 'return']	[2.5650241000003007, 3.1574684000006528]	6.69	5.68	0.0	controle	low_pain	44.0			sub-pilot020	250	20	44	46.5	COM11	COM7	COM3	2023-11-17_13h08.05.879	001-EEG_SVR_Officel	2022.2.5	143.37575343989676		5.67999999999995	0_sub-pilot020_SVR_EEG_block1-2.protocol.csv	step51	7037	698.783	STIMULATE	44.1	43.9	43.9	43.9	44.1	51	601.399
605.278	0	302639	wait	20	1	0	1	0	9.0	0.0	9.0	0.0						790.0599961000007	795.6226828000035	795.6226828000035	7.0	['7', 'return']	[2.4346488999981375, 2.8831804000001284]	5.55	5.78	1.0	20hz	high_pain	46.5			sub-pilot020	250	20	44	46.5	COM11	COM7	COM3	2023-11-17_13h08.05.879	001-EEG_SVR_Officel	2022.2.5	143.37575343989676		10.508000000000038	0_sub-pilot020_SVR_EEG_block1-2.protocol.csv	step53	7258	720.618	STIMULATE	46.6	46.4	46.5	46.5	46.6	53	623.234
610.828	0	305414	20hz	6	1	0	1	0	9.0	0.0	9.0	0.0						790.0599961000007	795.6226828000035	795.6226828000035	7.0	['7', 'return']	[2.4346488999981375, 2.8831804000001284]	5.55	5.78	1.0	20hz	high_pain	46.5			sub-pilot020	250	20	44	46.5	COM11	COM7	COM3	2023-11-17_13h08.05.879	001-EEG_SVR_Officel	2022.2.5	143.37575343989676		5.5499999999999545	0_sub-pilot020_SVR_EEG_block1-2.protocol.csv	step53	7258	720.618	STIMULATE	46.6	46.4	46.5	46.5	46.6	53	623.234
617.362	0	308681	20/Hi	4	1	0	1	0	9.0	0.0	9.0	0.0						790.0599961000007	795.6226828000035	795.6226828000035	7.0	['7', 'return']	[2.4346488999981375, 2.8831804000001284]	5.55	5.78	1.0	20hz	high_pain	46.5			sub-pilot020	250	20	44	46.5	COM11	COM7	COM3	2023-11-17_13h08.05.879	001-EEG_SVR_Officel	2022.2.5	143.37575343989676		5.783999999999992	0_sub-pilot020_SVR_EEG_block1-2.protocol.csv	step53	7258	720.618	STIMULATE	46.6	46.4	46.5	46.5	46.6	53	623.234
626.738	0	313369	wait	20	1	0	1	0	10.0	0.0	10.0	0.0						811.5201655000019	817.6678699000004	817.6678699000004	5.0	['5', 'return']	[2.3732780999998795, 2.894633799998701]	6.14	5.64	2.0	10hz	high_pain	46.5			sub-pilot020	250	20	44	46.5	COM11	COM7	COM3	2023-11-17_13h08.05.879	001-EEG_SVR_Officel	2022.2.5	143.37575343989676		10.12600000000009	0_sub-pilot020_SVR_EEG_block1-2.protocol.csv	step55	7479	742.585	STIMULATE	46.5	46.4	46.4	46.5	46.8	55	645.201
632.872	0	316436	10hz	3	1	0	1	0	10.0	0.0	10.0	0.0						811.5201655000019	817.6678699000004	817.6678699000004	5.0	['5', 'return']	[2.3732780999998795, 2.894633799998701]	6.14	5.64	2.0	10hz	high_pain	46.5			sub-pilot020	250	20	44	46.5	COM11	COM7	COM3	2023-11-17_13h08.05.879	001-EEG_SVR_Officel	2022.2.5	143.37575343989676		6.133999999999901	0_sub-pilot020_SVR_EEG_block1-2.protocol.csv	step55	7479	742.585	STIMULATE	46.5	46.4	46.4	46.5	46.8	55	645.201
639.268	0	319634	10/Hi	1	1	0	1	0	10.0	0.0	10.0	0.0						811.5201655000019	817.6678699000004	817.6678699000004	5.0	['5', 'return']	[2.3732780999998795, 2.894633799998701]	6.14	5.64	2.0	10hz	high_pain	46.5			sub-pilot020	250	20	44	46.5	COM11	COM7	COM3	2023-11-17_13h08.05.879	001-EEG_SVR_Officel	2022.2.5	143.37575343989676		5.646000000000072	0_sub-pilot020_SVR_EEG_block1-2.protocol.csv	step55	7479	742.585	STIMULATE	46.5	46.4	46.4	46.5	46.8	55	645.201
648.796	0	324398	wait	20	1	0	1	0	11.0	0.0	11.0	0.0						833.5791277000026	838.885660400003	838.885660400003	4.0	['4', 'return']	[2.3000879999999597, 2.893044500000542]	5.3	5.81	3.0	20hz	high_pain	46.5			sub-pilot020	250	20	44	46.5	COM11	COM7	COM3	2023-11-17_13h08.05.879	001-EEG_SVR_Officel	2022.2.5	143.37575343989676		10.27800000000002	0_sub-pilot020_SVR_EEG_block1-2.protocol.csv	step57	7694	763.904	STIMULATE	46.5	46.4	46.4	46.5	46.8	57	666.52
654.09	0	327045	20hz	6	1	0	1	0	11.0	0.0	11.0	0.0						833.5791277000026	838.885660400003	838.885660400003	4.0	['4', 'return']	[2.3000879999999597, 2.893044500000542]	5.3	5.81	3.0	20hz	high_pain	46.5			sub-pilot020	250	20	44	46.5	COM11	COM7	COM3	2023-11-17_13h08.05.879	001-EEG_SVR_Officel	2022.2.5	143.37575343989676		5.293999999999983	0_sub-pilot020_SVR_EEG_block1-2.protocol.csv	step57	7694	763.904	STIMULATE	46.5	46.4	46.4	46.5	46.8	57	666.52
660.652	0	330326	20/Hi	4	1	0	1	0	11.0	0.0	11.0	0.0						833.5791277000026	838.885660400003	838.885660400003	4.0	['4', 'return']	[2.3000879999999597, 2.893044500000542]	5.3	5.81	3.0	20hz	high_pain	46.5			sub-pilot020	250	20	44	46.5	COM11	COM7	COM3	2023-11-17_13h08.05.879	001-EEG_SVR_Officel	2022.2.5	143.37575343989676		5.812000000000012	0_sub-pilot020_SVR_EEG_block1-2.protocol.csv	step57	7694	763.904	STIMULATE	46.5	46.4	46.4	46.5	46.8	57	666.52
670.006	0	335003	wait	20	1	0	1	0	12.0	0.0	12.0	0.0						854.7892545000032	862.4294480000026	862.4294480000026	1.0	['1', 'return']	[3.5789363000003505, 4.403857199999038]	7.63	6.31	0.0	40hz	low_pain	44.0			sub-pilot020	250	20	44	46.5	COM11	COM7	COM3	2023-11-17_13h08.05.879	001-EEG_SVR_Officel	2022.2.5	143.37575343989676		10.103999999999928	0_sub-pilot020_SVR_EEG_block1-2.protocol.csv	step59	7936	787.98	STIMULATE	44.0	43.9	43.9	43.9	44.0	59	690.596
677.634	0	338817	40hz	9	1	0	1	0	12.0	0.0	12.0	0.0						854.7892545000032	862.4294480000026	862.4294480000026	1.0	['1', 'return']	[3.5789363000003505, 4.403857199999038]	7.63	6.31	0.0	40hz	low_pain	44.0			sub-pilot020	250	20	44	46.5	COM11	COM7	COM3	2023-11-17_13h08.05.879	001-EEG_SVR_Officel	2022.2.5	143.37575343989676		7.628000000000043	0_sub-pilot020_SVR_EEG_block1-2.protocol.csv	step59	7936	787.98	STIMULATE	44.0	43.9	43.9	43.9	44.0	59	690.596
684.696	0	342348	40/Lo	8	1	0	1	0	12.0	0.0	12.0	0.0						854.7892545000032	862.4294480000026	862.4294480000026	1.0	['1', 'return']	[3.5789363000003505, 4.403857199999038]	7.63	6.31	0.0	40hz	low_pain	44.0			sub-pilot020	250	20	44	46.5	COM11	COM7	COM3	2023-11-17_13h08.05.879	001-EEG_SVR_Officel	2022.2.5	143.37575343989676		6.312000000000012	0_sub-pilot020_SVR_EEG_block1-2.protocol.csv	step59	7936	787.98	STIMULATE	44.0	43.9	43.9	43.9	44.0	59	690.596
695.066	0	347533	wait	20	1	0	1	0	13.0	0.0	13.0	0.0						879.848689800001	885.4808668000005	885.4808668000005	3.0	['3', 'return']	[2.3677921000016795, 2.992729000001418]	5.62	5.47	1.0	20hz	low_pain	44.0			sub-pilot020	250	20	44	46.5	COM11	COM7	COM3	2023-11-17_13h08.05.879	001-EEG_SVR_Officel	2022.2.5	143.37575343989676		11.120000000000005	0_sub-pilot020_SVR_EEG_block1-2.protocol.csv	step61	8154	810.134	STIMULATE	44.0	43.9	43.9	43.9	44.1	61	712.75
700.686	0	350343	20hz	6	1	0	1	0	13.0	0.0	13.0	0.0						879.848689800001	885.4808668000005	885.4808668000005	3.0	['3', 'return']	[2.3677921000016795, 2.992729000001418]	5.62	5.47	1.0	20hz	low_pain	44.0			sub-pilot020	250	20	44	46.5	COM11	COM7	COM3	2023-11-17_13h08.05.879	001-EEG_SVR_Officel	2022.2.5	143.37575343989676		5.6200000000000045	0_sub-pilot020_SVR_EEG_block1-2.protocol.csv	step61	8154	810.134	STIMULATE	44.0	43.9	43.9	43.9	44.1	61	712.75
706.906	0	353453	20/Lo	5	1	0	1	0	13.0	0.0	13.0	0.0						879.848689800001	885.4808668000005	885.4808668000005	3.0	['3', 'return']	[2.3677921000016795, 2.992729000001418]	5.62	5.47	1.0	20hz	low_pain	44.0			sub-pilot020	250	20	44	46.5	COM11	COM7	COM3	2023-11-17_13h08.05.879	001-EEG_SVR_Officel	2022.2.5	143.37575343989676		5.469999999999914	0_sub-pilot020_SVR_EEG_block1-2.protocol.csv	step61	8154	810.134	STIMULATE	44.0	43.9	43.9	43.9	44.1	61	712.75
716.7	0	358350	wait	20	1	0	1	0	14.0	0.0	14.0	0.0						901.482763	906.6014062000032	906.6014062000032	3.0	['3', 'return']	[2.655596399999922, 3.2414568999993207]	5.11	6.29	2.0	40hz	low_pain	44.0			sub-pilot020	250	20	44	46.5	COM11	COM7	COM3	2023-11-17_13h08.05.879	001-EEG_SVR_Officel	2022.2.5	143.37575343989676		10.544000000000096	0_sub-pilot020_SVR_EEG_block1-2.protocol.csv	step63	8367	832.134	STIMULATE	44.1	43.9	43.9	43.9	44.1	63	734.75
721.806	0	360903	40hz	9	1	0	1	0	14.0	0.0	14.0	0.0						901.482763	906.6014062000032	906.6014062000032	3.0	['3', 'return']	[2.655596399999922, 3.2414568999993207]	5.11	6.29	2.0	40hz	low_pain	44.0			sub-pilot020	250	20	44	46.5	COM11	COM7	COM3	2023-11-17_13h08.05.879	001-EEG_SVR_Officel	2022.2.5	143.37575343989676		5.1059999999999945	0_sub-pilot020_SVR_EEG_block1-2.protocol.csv	step63	8367	832.134	STIMULATE	44.1	43.9	43.9	43.9	44.1	63	734.75
728.846	0	364423	40/Lo	8	1	0	1	0	14.0	0.0	14.0	0.0						901.482763	906.6014062000032	906.6014062000032	3.0	['3', 'return']	[2.655596399999922, 3.2414568999993207]	5.11	6.29	2.0	40hz	low_pain	44.0			sub-pilot020	250	20	44	46.5	COM11	COM7	COM3	2023-11-17_13h08.05.879	001-EEG_SVR_Officel	2022.2.5	143.37575343989676		6.289999999999964	0_sub-pilot020_SVR_EEG_block1-2.protocol.csv	step63	8367	832.134	STIMULATE	44.1	43.9	43.9	43.9	44.1	63	734.75
738.068	0	369034	wait	20	1	0	1	0	15.0	0.0	15.0	0.0						922.8525591000034	929.4514982	929.4514982	8.0	['8', 'return']	[2.3737784000004467, 2.7653925999984494]	6.59	5.4	3.0	10hz	high_pain	46.5			sub-pilot020	250	20	44	46.5	COM11	COM7	COM3	2023-11-17_13h08.05.879	001-EEG_SVR_Officel	2022.2.5	143.37575343989676		9.97199999999998	0_sub-pilot020_SVR_EEG_block1-2.protocol.csv	step65	8578	854.089	STIMULATE	46.5	46.4	46.4	46.5	46.6	65	756.705
744.656	0	372328	10hz	3	1	0	1	0	15.0	0.0	15.0	0.0						922.8525591000034	929.4514982	929.4514982	8.0	['8', 'return']	[2.3737784000004467, 2.7653925999984494]	6.59	5.4	3.0	10hz	high_pain	46.5			sub-pilot020	250	20	44	46.5	COM11	COM7	COM3	2023-11-17_13h08.05.879	001-EEG_SVR_Officel	2022.2.5	143.37575343989676		6.587999999999965	0_sub-pilot020_SVR_EEG_block1-2.protocol.csv	step65	8578	854.089	STIMULATE	46.5	46.4	46.4	46.5	46.6	65	756.705
750.808	0	375404	10/Hi	1	1	0	1	0	15.0	0.0	15.0	0.0						922.8525591000034	929.4514982	929.4514982	8.0	['8', 'return']	[2.3737784000004467, 2.7653925999984494]	6.59	5.4	3.0	10hz	high_pain	46.5			sub-pilot020	250	20	44	46.5	COM11	COM7	COM3	2023-11-17_13h08.05.879	001-EEG_SVR_Officel	2022.2.5	143.37575343989676		5.402000000000044	0_sub-pilot020_SVR_EEG_block1-2.protocol.csv	step65	8578	854.089	STIMULATE	46.5	46.4	46.4	46.5	46.6	65	756.705
791.526	0	395763	wait	20	2	0	2	0	0.0	0.0	0.0	0.0				p	0.2461186999971687	976.3106020000014	981.7009087000006	981.7009087000006	5.0	['5', 'return']	[2.2688342000001285, 2.7966654999981984]	5.38	6.4	0.0	10hz	high_pain	46.5			sub-pilot020	250	20	44	46.5	COM11	COM7	COM3	2023-11-17_13h08.05.879	001-EEG_SVR_Officel	2022.2.5	143.37575343989676		41.46799999999996	1_sub-pilot020_SVR_EEG_block3-4.protocol.csv	step3	388	38.604	STIMULATE	46.7	46.5	46.4	46.5	46.5	3	809.918
796.906	0	398453	10hz	3	2	0	2	0	0.0	0.0	0.0	0.0				p	0.2461186999971687	976.3106020000014	981.7009087000006	981.7009087000006	5.0	['5', 'return']	[2.2688342000001285, 2.7966654999981984]	5.38	6.4	0.0	10hz	high_pain	46.5			sub-pilot020	250	20	44	46.5	COM11	COM7	COM3	2023-11-17_13h08.05.879	001-EEG_SVR_Officel	2022.2.5	143.37575343989676		5.3799999999999955	1_sub-pilot020_SVR_EEG_block3-4.protocol.csv	step3	388	38.604	STIMULATE	46.7	46.5	46.4	46.5	46.5	3	809.918
804.056	0	402028	10/Hi	1	2	0	2	0	0.0	0.0	0.0	0.0				p	0.2461186999971687	976.3106020000014	981.7009087000006	981.7009087000006	5.0	['5', 'return']	[2.2688342000001285, 2.7966654999981984]	5.38	6.4	0.0	10hz	high_pain	46.5			sub-pilot020	250	20	44	46.5	COM11	COM7	COM3	2023-11-17_13h08.05.879	001-EEG_SVR_Officel	2022.2.5	143.37575343989676		6.400000000000091	1_sub-pilot020_SVR_EEG_block3-4.protocol.csv	step3	388	38.604	STIMULATE	46.7	46.5	46.4	46.5	46.5	3	809.918
812.724	0	406362	wait	20	2	0	2	0	1.0	0.0	1.0	0.0						997.5082591000028	1005.3843320000016	1005.3843320000016	4.0	['4', 'return']	[2.2647956000000704, 2.8254540000016277]	7.87	5.86	1.0	10hz	low_pain	44.0			sub-pilot020	250	20	44	46.5	COM11	COM7	COM3	2023-11-17_13h08.05.879	001-EEG_SVR_Officel	2022.2.5	143.37575343989676		9.418000000000006	1_sub-pilot020_SVR_EEG_block3-4.protocol.csv	step5	621	61.747	STIMULATE	44.1	43.9	43.9	43.9	44.0	5	833.061
820.588	0	410294	10hz	3	2	0	2	0	1.0	0.0	1.0	0.0						997.5082591000028	1005.3843320000016	1005.3843320000016	4.0	['4', 'return']	[2.2647956000000704, 2.8254540000016277]	7.87	5.86	1.0	10hz	low_pain	44.0			sub-pilot020	250	20	44	46.5	COM11	COM7	COM3	2023-11-17_13h08.05.879	001-EEG_SVR_Officel	2022.2.5	143.37575343989676		7.863999999999919	1_sub-pilot020_SVR_EEG_block3-4.protocol.csv	step5	621	61.747	STIMULATE	44.1	43.9	43.9	43.9	44.0	5	833.061
827.198	0	413599	10/Lo	2	2	0	2	0	1.0	0.0	1.0	0.0						997.5082591000028	1005.3843320000016	1005.3843320000016	4.0	['4', 'return']	[2.2647956000000704, 2.8254540000016277]	7.87	5.86	1.0	10hz	low_pain	44.0			sub-pilot020	250	20	44	46.5	COM11	COM7	COM3	2023-11-17_13h08.05.879	001-EEG_SVR_Officel	2022.2.5	143.37575343989676		5.860000000000014	1_sub-pilot020_SVR_EEG_block3-4.protocol.csv	step5	621	61.747	STIMULATE	44.1	43.9	43.9	43.9	44.0	5	833.061
836.434	0	418217	wait	20	2	0	2	0	2.0	0.0	2.0	0.0						1021.219069900002	1028.2898096000026	1028.2898096000026	2.0	['2', 'return']	[2.6316371000029903, 3.3029249999999593]	7.06	6.5	2.0	10hz	low_pain	44.0			sub-pilot020	250	20	44	46.5	COM11	COM7	COM3	2023-11-17_13h08.05.879	001-EEG_SVR_Officel	2022.2.5	143.37575343989676		9.98599999999999	1_sub-pilot020_SVR_EEG_block3-4.protocol.csv	step7	859	85.341	STIMULATE	44.0	43.9	43.9	43.9	44.0	7	856.655
843.494	0	421747	10hz	3	2	0	2	0	2.0	0.0	2.0	0.0						1021.219069900002	1028.2898096000026	1028.2898096000026	2.0	['2', 'return']	[2.6316371000029903, 3.3029249999999593]	7.06	6.5	2.0	10hz	low_pain	44.0			sub-pilot020	250	20	44	46.5	COM11	COM7	COM3	2023-11-17_13h08.05.879	001-EEG_SVR_Officel	2022.2.5	143.37575343989676		7.060000000000059	1_sub-pilot020_SVR_EEG_block3-4.protocol.csv	step7	859	85.341	STIMULATE	44.0	43.9	43.9	43.9	44.0	7	856.655
850.742	0	425371	10/Lo	2	2	0	2	0	2.0	0.0	2.0	0.0						1021.219069900002	1028.2898096000026	1028.2898096000026	2.0	['2', 'return']	[2.6316371000029903, 3.3029249999999593]	7.06	6.5	2.0	10hz	low_pain	44.0			sub-pilot020	250	20	44	46.5	COM11	COM7	COM3	2023-11-17_13h08.05.879	001-EEG_SVR_Officel	2022.2.5	143.37575343989676		6.497999999999934	1_sub-pilot020_SVR_EEG_block3-4.protocol.csv	step7	859	85.341	STIMULATE	44.0	43.9	43.9	43.9	44.0	7	856.655
859.828	0	429914	wait	20	2	0	2	0	3.0	0.0	3.0	0.0						1044.6113552000024	1052.0913981000012	1052.0913981000012	7.0	['7', 'return']	[1.9985016999999061, 2.4781330000005255]	7.47	6.15	3.0	20hz	high_pain	46.5			sub-pilot020	250	20	44	46.5	COM11	COM7	COM3	2023-11-17_13h08.05.879	001-EEG_SVR_Officel	2022.2.5	143.37575343989676		9.836000000000013	1_sub-pilot020_SVR_EEG_block3-4.protocol.csv	step9	1095	108.739	STIMULATE	46.5	46.4	46.5	46.5	46.7	9	880.053
867.294	0	433647	20hz	6	2	0	2	0	3.0	0.0	3.0	0.0						1044.6113552000024	1052.0913981000012	1052.0913981000012	7.0	['7', 'return']	[1.9985016999999061, 2.4781330000005255]	7.47	6.15	3.0	20hz	high_pain	46.5			sub-pilot020	250	20	44	46.5	COM11	COM7	COM3	2023-11-17_13h08.05.879	001-EEG_SVR_Officel	2022.2.5	143.37575343989676		7.466000000000008	1_sub-pilot020_SVR_EEG_block3-4.protocol.csv	step9	1095	108.739	STIMULATE	46.5	46.4	46.5	46.5	46.7	9	880.053
874.196	0	437098	20/Hi	4	2	0	2	0	3.0	0.0	3.0	0.0						1044.6113552000024	1052.0913981000012	1052.0913981000012	7.0	['7', 'return']	[1.9985016999999061, 2.4781330000005255]	7.47	6.15	3.0	20hz	high_pain	46.5			sub-pilot020	250	20	44	46.5	COM11	COM7	COM3	2023-11-17_13h08.05.879	001-EEG_SVR_Officel	2022.2.5	143.37575343989676		6.152000000000044	1_sub-pilot020_SVR_EEG_block3-4.protocol.csv	step9	1095	108.739	STIMULATE	46.5	46.4	46.5	46.5	46.7	9	880.053
882.802	0	441401	wait	20	2	0	2	0	4.0	0.0	4.0	0.0						1067.5864575000014	1075.4484215000011	1075.4484215000011	9.0	['9', 'return']	[2.3692444000007526, 2.8901503999986744]	7.85	5.58	0.0	controle	high_pain	46.5			sub-pilot020	250	20	44	46.5	COM11	COM7	COM3	2023-11-17_13h08.05.879	001-EEG_SVR_Officel	2022.2.5	143.37575343989676		9.355999999999995	1_sub-pilot020_SVR_EEG_block3-4.protocol.csv	step11	1325	131.527	STIMULATE	46.7	46.5	46.4	46.5	46.5	11	902.841
890.652	0	445326	CNhz	12	2	0	2	0	4.0	0.0	4.0	0.0						1067.5864575000014	1075.4484215000011	1075.4484215000011	9.0	['9', 'return']	[2.3692444000007526, 2.8901503999986744]	7.85	5.58	0.0	controle	high_pain	46.5			sub-pilot020	250	20	44	46.5	COM11	COM7	COM3	2023-11-17_13h08.05.879	001-EEG_SVR_Officel	2022.2.5	143.37575343989676		7.850000000000023	1_sub-pilot020_SVR_EEG_block3-4.protocol.csv	step11	1325	131.527	STIMULATE	46.7	46.5	46.4	46.5	46.5	11	902.841
896.984	0	448492	CN/Hi	10	2	0	2	0	4.0	0.0	4.0	0.0						1067.5864575000014	1075.4484215000011	1075.4484215000011	9.0	['9', 'return']	[2.3692444000007526, 2.8901503999986744]	7.85	5.58	0.0	controle	high_pain	46.5			sub-pilot020	250	20	44	46.5	COM11	COM7	COM3	2023-11-17_13h08.05.879	001-EEG_SVR_Officel	2022.2.5	143.37575343989676		5.581999999999994	1_sub-pilot020_SVR_EEG_block3-4.protocol.csv	step11	1325	131.527	STIMULATE	46.7	46.5	46.4	46.5	46.5	11	902.841
906.568	0	453284	wait	20	2	0	2	0	5.0	0.0	5.0	0.0						1091.3527852000009	1098.1317031000035	1098.1317031000035	4.0	['4', 'return']	[2.2701258000015514, 2.7830001000002085]	6.77	5.99	1.0	40hz	low_pain	44.0			sub-pilot020	250	20	44	46.5	COM11	COM7	COM3	2023-11-17_13h08.05.879	001-EEG_SVR_Officel	2022.2.5	143.37575343989676		10.333999999999946	1_sub-pilot020_SVR_EEG_block3-4.protocol.csv	step13	1558	154.623	STIMULATE	44.1	43.9	43.9	43.9	43.9	13	925.937
913.334	0	456667	40hz	9	2	0	2	0	5.0	0.0	5.0	0.0						1091.3527852000009	1098.1317031000035	1098.1317031000035	4.0	['4', 'return']	[2.2701258000015514, 2.7830001000002085]	6.77	5.99	1.0	40hz	low_pain	44.0			sub-pilot020	250	20	44	46.5	COM11	COM7	COM3	2023-11-17_13h08.05.879	001-EEG_SVR_Officel	2022.2.5	143.37575343989676		6.765999999999963	1_sub-pilot020_SVR_EEG_block3-4.protocol.csv	step13	1558	154.623	STIMULATE	44.1	43.9	43.9	43.9	43.9	13	925.937
920.076	0	460038	40/Lo	8	2	0	2	0	5.0	0.0	5.0	0.0						1091.3527852000009	1098.1317031000035	1098.1317031000035	4.0	['4', 'return']	[2.2701258000015514, 2.7830001000002085]	6.77	5.99	1.0	40hz	low_pain	44.0			sub-pilot020	250	20	44	46.5	COM11	COM7	COM3	2023-11-17_13h08.05.879	001-EEG_SVR_Officel	2022.2.5	143.37575343989676		5.9920000000000755	1_sub-pilot020_SVR_EEG_block3-4.protocol.csv	step13	1558	154.623	STIMULATE	44.1	43.9	43.9	43.9	43.9	13	925.937
929.146	0	464573	wait	20	2	0	2	0	6.0	0.0	6.0	0.0						1113.932240500002	1120.939897100001	1120.939897100001	8.0	['8', 'return']	[2.141329499998392, 2.5899408999976004]	7.0	6.06	2.0	20hz	high_pain	46.5			sub-pilot020	250	20	44	46.5	COM11	COM7	COM3	2023-11-17_13h08.05.879	001-EEG_SVR_Officel	2022.2.5	143.37575343989676		9.819999999999936	1_sub-pilot020_SVR_EEG_block3-4.protocol.csv	step15	1789	177.508	STIMULATE	46.5	46.4	46.4	46.5	46.7	15	948.8220000000001
936.142	0	468071	20hz	6	2	0	2	0	6.0	0.0	6.0	0.0						1113.932240500002	1120.939897100001	1120.939897100001	8.0	['8', 'return']	[2.141329499998392, 2.5899408999976004]	7.0	6.06	2.0	20hz	high_pain	46.5			sub-pilot020	250	20	44	46.5	COM11	COM7	COM3	2023-11-17_13h08.05.879	001-EEG_SVR_Officel	2022.2.5	143.37575343989676		6.996000000000095	1_sub-pilot020_SVR_EEG_block3-4.protocol.csv	step15	1789	177.508	STIMULATE	46.5	46.4	46.4	46.5	46.7	15	948.8220000000001
942.954	0	471477	20/Hi	4	2	0	2	0	6.0	0.0	6.0	0.0						1113.932240500002	1120.939897100001	1120.939897100001	8.0	['8', 'return']	[2.141329499998392, 2.5899408999976004]	7.0	6.06	2.0	20hz	high_pain	46.5			sub-pilot020	250	20	44	46.5	COM11	COM7	COM3	2023-11-17_13h08.05.879	001-EEG_SVR_Officel	2022.2.5	143.37575343989676		6.061999999999898	1_sub-pilot020_SVR_EEG_block3-4.protocol.csv	step15	1789	177.508	STIMULATE	46.5	46.4	46.4	46.5	46.7	15	948.8220000000001
951.752	0	475876	wait	20	2	0	2	0	7.0	0.0	7.0	0.0						1136.5382389000006	1144.2275904000016	1144.2275904000016	2.0	['2', 'return']	[2.3582931000019016, 3.014509900000121]	7.68	6.5	3.0	40hz	high_pain	46.5			sub-pilot020	250	20	44	46.5	COM11	COM7	COM3	2023-11-17_13h08.05.879	001-EEG_SVR_Officel	2022.2.5	143.37575343989676		9.548000000000002	1_sub-pilot020_SVR_EEG_block3-4.protocol.csv	step17	2028	201.265	STIMULATE	46.5	46.4	46.4	46.5	46.6	17	972.5790000000001
959.43	0	479715	40hz	9	2	0	2	0	7.0	0.0	7.0	0.0						1136.5382389000006	1144.2275904000016	1144.2275904000016	2.0	['2', 'return']	[2.3582931000019016, 3.014509900000121]	7.68	6.5	3.0	40hz	high_pain	46.5			sub-pilot020	250	20	44	46.5	COM11	COM7	COM3	2023-11-17_13h08.05.879	001-EEG_SVR_Officel	2022.2.5	143.37575343989676		7.677999999999997	1_sub-pilot020_SVR_EEG_block3-4.protocol.csv	step17	2028	201.265	STIMULATE	46.5	46.4	46.4	46.5	46.6	17	972.5790000000001
966.68	0	483340	40/Hi	7	2	0	2	0	7.0	0.0	7.0	0.0						1136.5382389000006	1144.2275904000016	1144.2275904000016	2.0	['2', 'return']	[2.3582931000019016, 3.014509900000121]	7.68	6.5	3.0	40hz	high_pain	46.5			sub-pilot020	250	20	44	46.5	COM11	COM7	COM3	2023-11-17_13h08.05.879	001-EEG_SVR_Officel	2022.2.5	143.37575343989676		6.5	1_sub-pilot020_SVR_EEG_block3-4.protocol.csv	step17	2028	201.265	STIMULATE	46.5	46.4	46.4	46.5	46.6	17	972.5790000000001
975.478	0	487739	wait	20	2	0	2	0	8.0	0.0	8.0	0.0						1160.2641602000003	1165.4732097000017	1165.4732097000017	4.0	['4', 'return']	[2.439485800001421, 2.9925325000003795]	5.2	6.36	0.0	controle	low_pain	44.0			sub-pilot020	250	20	44	46.5	COM11	COM7	COM3	2023-11-17_13h08.05.879	001-EEG_SVR_Officel	2022.2.5	143.37575343989676		9.548000000000002	1_sub-pilot020_SVR_EEG_block3-4.protocol.csv	step19	2241	222.309	STIMULATE	44.0	43.9	43.9	43.9	44.1	19	993.623
980.676	0	490338	CNhz	12	2	0	2	0	8.0	0.0	8.0	0.0						1160.2641602000003	1165.4732097000017	1165.4732097000017	4.0	['4', 'return']	[2.439485800001421, 2.9925325000003795]	5.2	6.36	0.0	controle	low_pain	44.0			sub-pilot020	250	20	44	46.5	COM11	COM7	COM3	2023-11-17_13h08.05.879	001-EEG_SVR_Officel	2022.2.5	143.37575343989676		5.198000000000093	1_sub-pilot020_SVR_EEG_block3-4.protocol.csv	step19	2241	222.309	STIMULATE	44.0	43.9	43.9	43.9	44.1	19	993.623
987.784	0	493892	CN/Lo	11	2	0	2	0	8.0	0.0	8.0	0.0						1160.2641602000003	1165.4732097000017	1165.4732097000017	4.0	['4', 'return']	[2.439485800001421, 2.9925325000003795]	5.2	6.36	0.0	controle	low_pain	44.0			sub-pilot020	250	20	44	46.5	COM11	COM7	COM3	2023-11-17_13h08.05.879	001-EEG_SVR_Officel	2022.2.5	143.37575343989676		6.357999999999947	1_sub-pilot020_SVR_EEG_block3-4.protocol.csv	step19	2241	222.309	STIMULATE	44.0	43.9	43.9	43.9	44.1	19	993.623
996.696	0	498348	wait	20	2	0	2	0	9.0	0.0	9.0	0.0						1181.482827900003	1188.6152425	1188.6152425	3.0	['3', 'return']	[2.4257333999994444, 3.010080200001539]	7.12	6.4	1.0	controle	low_pain	44.0			sub-pilot020	250	20	44	46.5	COM11	COM7	COM3	2023-11-17_13h08.05.879	001-EEG_SVR_Officel	2022.2.5	143.37575343989676		9.662000000000035	1_sub-pilot020_SVR_EEG_block3-4.protocol.csv	step21	2475	245.557	STIMULATE	44.2	43.9	43.9	43.9	44.0	21	1016.8710000000001
1003.818	0	501909	CNhz	12	2	0	2	0	9.0	0.0	9.0	0.0						1181.482827900003	1188.6152425	1188.6152425	3.0	['3', 'return']	[2.4257333999994444, 3.010080200001539]	7.12	6.4	1.0	controle	low_pain	44.0			sub-pilot020	250	20	44	46.5	COM11	COM7	COM3	2023-11-17_13h08.05.879	001-EEG_SVR_Officel	2022.2.5	143.37575343989676		7.121999999999957	1_sub-pilot020_SVR_EEG_block3-4.protocol.csv	step21	2475	245.557	STIMULATE	44.2	43.9	43.9	43.9	44.0	21	1016.8710000000001
1010.968	0	505484	CN/Lo	11	2	0	2	0	9.0	0.0	9.0	0.0						1181.482827900003	1188.6152425	1188.6152425	3.0	['3', 'return']	[2.4257333999994444, 3.010080200001539]	7.12	6.4	1.0	controle	low_pain	44.0			sub-pilot020	250	20	44	46.5	COM11	COM7	COM3	2023-11-17_13h08.05.879	001-EEG_SVR_Officel	2022.2.5	143.37575343989676		6.399999999999977	1_sub-pilot020_SVR_EEG_block3-4.protocol.csv	step21	2475	245.557	STIMULATE	44.2	43.9	43.9	43.9	44.0	21	1016.8710000000001
1019.86	0	509930	wait	20	2	0	2	0	10.0	0.0	10.0	0.0						1204.6446582000026	1212.4857295000002	1212.4857295000002	6.0	['6', 'return']	[2.0914837999989686, 2.90782770000078]	7.83	5.73	2.0	10hz	high_pain	46.5			sub-pilot020	250	20	44	46.5	COM11	COM7	COM3	2023-11-17_13h08.05.879	001-EEG_SVR_Officel	2022.2.5	143.37575343989676		9.642000000000053	1_sub-pilot020_SVR_EEG_block3-4.protocol.csv	step23	2709	268.721	STIMULATE	46.6	46.4	46.5	46.4	46.7	23	1040.035
1027.688	0	513844	10hz	3	2	0	2	0	10.0	0.0	10.0	0.0						1204.6446582000026	1212.4857295000002	1212.4857295000002	6.0	['6', 'return']	[2.0914837999989686, 2.90782770000078]	7.83	5.73	2.0	10hz	high_pain	46.5			sub-pilot020	250	20	44	46.5	COM11	COM7	COM3	2023-11-17_13h08.05.879	001-EEG_SVR_Officel	2022.2.5	143.37575343989676		7.828000000000088	1_sub-pilot020_SVR_EEG_block3-4.protocol.csv	step23	2709	268.721	STIMULATE	46.6	46.4	46.5	46.4	46.7	23	1040.035
1034.166	0	517082	10/Hi	1	2	0	2	0	10.0	0.0	10.0	0.0						1204.6446582000026	1212.4857295000002	1212.4857295000002	6.0	['6', 'return']	[2.0914837999989686, 2.90782770000078]	7.83	5.73	2.0	10hz	high_pain	46.5			sub-pilot020	250	20	44	46.5	COM11	COM7	COM3	2023-11-17_13h08.05.879	001-EEG_SVR_Officel	2022.2.5	143.37575343989676		5.727999999999838	1_sub-pilot020_SVR_EEG_block3-4.protocol.csv	step23	2709	268.721	STIMULATE	46.6	46.4	46.5	46.4	46.7	23	1040.035
1043.626	0	521813	wait	20	2	0	2	0	11.0	0.0	11.0	0.0						1228.4113811000025	1233.4813557000016	1233.4813557000016	3.0	['3', 'return']	[2.536271199998737, 3.3205563999981678]	5.06	5.96	3.0	40hz	low_pain	44.0			sub-pilot020	250	20	44	46.5	COM11	COM7	COM3	2023-11-17_13h08.05.879	001-EEG_SVR_Officel	2022.2.5	143.37575343989676		10.210000000000036	1_sub-pilot020_SVR_EEG_block3-4.protocol.csv	step25	2923	289.938	STIMULATE	43.9	43.9	43.9	43.9	44.0	25	1061.252
1048.682	0	524341	40hz	9	2	0	2	0	11.0	0.0	11.0	0.0						1228.4113811000025	1233.4813557000016	1233.4813557000016	3.0	['3', 'return']	[2.536271199998737, 3.3205563999981678]	5.06	5.96	3.0	40hz	low_pain	44.0			sub-pilot020	250	20	44	46.5	COM11	COM7	COM3	2023-11-17_13h08.05.879	001-EEG_SVR_Officel	2022.2.5	143.37575343989676		5.05600000000004	1_sub-pilot020_SVR_EEG_block3-4.protocol.csv	step25	2923	289.938	STIMULATE	43.9	43.9	43.9	43.9	44.0	25	1061.252
1055.396	0	527698	40/Lo	8	2	0	2	0	11.0	0.0	11.0	0.0						1228.4113811000025	1233.4813557000016	1233.4813557000016	3.0	['3', 'return']	[2.536271199998737, 3.3205563999981678]	5.06	5.96	3.0	40hz	low_pain	44.0			sub-pilot020	250	20	44	46.5	COM11	COM7	COM3	2023-11-17_13h08.05.879	001-EEG_SVR_Officel	2022.2.5	143.37575343989676		5.963999999999942	1_sub-pilot020_SVR_EEG_block3-4.protocol.csv	step25	2923	289.938	STIMULATE	43.9	43.9	43.9	43.9	44.0	25	1061.252
1065.03	0	532515	wait	20	2	0	2	0	12.0	0.0	12.0	0.0						1249.8162880000018	1254.963313100001	1254.963313100001	2.0	['2', 'return']	[2.0306109999983164, 2.5347108999994816]	5.14	5.1	0.0	40hz	low_pain	44.0			sub-pilot020	250	20	44	46.5	COM11	COM7	COM3	2023-11-17_13h08.05.879	001-EEG_SVR_Officel	2022.2.5	143.37575343989676		10.384000000000015	1_sub-pilot020_SVR_EEG_block3-4.protocol.csv	step27	3132	310.645	STIMULATE	44.1	43.9	43.9	43.9	43.9	27	1081.959
1070.166	0	535083	40hz	9	2	0	2	0	12.0	0.0	12.0	0.0						1249.8162880000018	1254.963313100001	1254.963313100001	2.0	['2', 'return']	[2.0306109999983164, 2.5347108999994816]	5.14	5.1	0.0	40hz	low_pain	44.0			sub-pilot020	250	20	44	46.5	COM11	COM7	COM3	2023-11-17_13h08.05.879	001-EEG_SVR_Officel	2022.2.5	143.37575343989676		5.135999999999967	1_sub-pilot020_SVR_EEG_block3-4.protocol.csv	step27	3132	310.645	STIMULATE	44.1	43.9	43.9	43.9	43.9	27	1081.959
1076.018	0	538009	40/Lo	8	2	0	2	0	12.0	0.0	12.0	0.0						1249.8162880000018	1254.963313100001	1254.963313100001	2.0	['2', 'return']	[2.0306109999983164, 2.5347108999994816]	5.14	5.1	0.0	40hz	low_pain	44.0			sub-pilot020	250	20	44	46.5	COM11	COM7	COM3	2023-11-17_13h08.05.879	001-EEG_SVR_Officel	2022.2.5	143.37575343989676		5.102000000000089	1_sub-pilot020_SVR_EEG_block3-4.protocol.csv	step27	3132	310.645	STIMULATE	44.1	43.9	43.9	43.9	43.9	27	1081.959
1085.72	0	542860	wait	20	2	0	2	0	13.0	0.0	13.0	0.0						1270.5061668000017	1278.493864	1278.493864	9.0	['9', 'return']	[2.531531200002064, 3.539610600000742]	7.98	5.41	1.0	10hz	high_pain	46.5			sub-pilot020	250	20	44	46.5	COM11	COM7	COM3	2023-11-17_13h08.05.879	001-EEG_SVR_Officel	2022.2.5	143.37575343989676		10.451999999999998	1_sub-pilot020_SVR_EEG_block3-4.protocol.csv	step29	3372	334.454	STIMULATE	46.6	46.5	46.4	46.4	46.5	29	1105.768
1093.694	0	546847	10hz	3	2	0	2	0	13.0	0.0	13.0	0.0						1270.5061668000017	1278.493864	1278.493864	9.0	['9', 'return']	[2.531531200002064, 3.539610600000742]	7.98	5.41	1.0	10hz	high_pain	46.5			sub-pilot020	250	20	44	46.5	COM11	COM7	COM3	2023-11-17_13h08.05.879	001-EEG_SVR_Officel	2022.2.5	143.37575343989676		7.973999999999933	1_sub-pilot020_SVR_EEG_block3-4.protocol.csv	step29	3372	334.454	STIMULATE	46.6	46.5	46.4	46.4	46.5	29	1105.768
1099.852	0	549926	10/Hi	1	2	0	2	0	13.0	0.0	13.0	0.0						1270.5061668000017	1278.493864	1278.493864	9.0	['9', 'return']	[2.531531200002064, 3.539610600000742]	7.98	5.41	1.0	10hz	high_pain	46.5			sub-pilot020	250	20	44	46.5	COM11	COM7	COM3	2023-11-17_13h08.05.879	001-EEG_SVR_Officel	2022.2.5	143.37575343989676		5.408000000000129	1_sub-pilot020_SVR_EEG_block3-4.protocol.csv	step29	3372	334.454	STIMULATE	46.6	46.5	46.4	46.4	46.5	29	1105.768
1110.264	0	555132	wait	20	2	0	2	0	14.0	0.0	14.0	0.0						1295.0517635000033	1302.3240349000007	1302.3240349000007	4.0	['4', 'return']	[2.3739112000002933, 2.9115505000008852]	7.26	6.38	2.0	40hz	low_pain	44.0			sub-pilot020	250	20	44	46.5	COM11	COM7	COM3	2023-11-17_13h08.05.879	001-EEG_SVR_Officel	2022.2.5	143.37575343989676		11.161999999999807	1_sub-pilot020_SVR_EEG_block3-4.protocol.csv	step31	3621	359.113	STIMULATE	44.0	43.9	43.9	43.9	44.1	31	1130.4270000000001
1117.524	0	558762	40hz	9	2	0	2	0	14.0	0.0	14.0	0.0						1295.0517635000033	1302.3240349000007	1302.3240349000007	4.0	['4', 'return']	[2.3739112000002933, 2.9115505000008852]	7.26	6.38	2.0	40hz	low_pain	44.0			sub-pilot020	250	20	44	46.5	COM11	COM7	COM3	2023-11-17_13h08.05.879	001-EEG_SVR_Officel	2022.2.5	143.37575343989676		7.259999999999991	1_sub-pilot020_SVR_EEG_block3-4.protocol.csv	step31	3621	359.113	STIMULATE	44.0	43.9	43.9	43.9	44.1	31	1130.4270000000001
1124.656	0	562328	40/Lo	8	2	0	2	0	14.0	0.0	14.0	0.0						1295.0517635000033	1302.3240349000007	1302.3240349000007	4.0	['4', 'return']	[2.3739112000002933, 2.9115505000008852]	7.26	6.38	2.0	40hz	low_pain	44.0			sub-pilot020	250	20	44	46.5	COM11	COM7	COM3	2023-11-17_13h08.05.879	001-EEG_SVR_Officel	2022.2.5	143.37575343989676		6.382000000000062	1_sub-pilot020_SVR_EEG_block3-4.protocol.csv	step31	3621	359.113	STIMULATE	44.0	43.9	43.9	43.9	44.1	31	1130.4270000000001
1133.47	0	566735	wait	20	2	0	2	0	15.0	0.0	15.0	0.0						1318.2559489000014	1323.8118385000016	1323.8118385000016	3.0	['3', 'return']	[2.093681700000161, 2.702589900000021]	5.55	5.59	3.0	controle	high_pain	46.5			sub-pilot020	250	20	44	46.5	COM11	COM7	COM3	2023-11-17_13h08.05.879	001-EEG_SVR_Officel	2022.2.5	143.37575343989676		9.564000000000078	1_sub-pilot020_SVR_EEG_block3-4.protocol.csv	step33	3831	379.915	STIMULATE	46.5	46.4	46.5	46.5	46.6	33	1151.229
1139.012	0	569506	CNhz	12	2	0	2	0	15.0	0.0	15.0	0.0						1318.2559489000014	1323.8118385000016	1323.8118385000016	3.0	['3', 'return']	[2.093681700000161, 2.702589900000021]	5.55	5.59	3.0	controle	high_pain	46.5			sub-pilot020	250	20	44	46.5	COM11	COM7	COM3	2023-11-17_13h08.05.879	001-EEG_SVR_Officel	2022.2.5	143.37575343989676		5.541999999999916	1_sub-pilot020_SVR_EEG_block3-4.protocol.csv	step33	3831	379.915	STIMULATE	46.5	46.4	46.5	46.5	46.6	33	1151.229
1145.352	0	572676	CN/Hi	10	2	0	2	0	15.0	0.0	15.0	0.0						1318.2559489000014	1323.8118385000016	1323.8118385000016	3.0	['3', 'return']	[2.093681700000161, 2.702589900000021]	5.55	5.59	3.0	controle	high_pain	46.5			sub-pilot020	250	20	44	46.5	COM11	COM7	COM3	2023-11-17_13h08.05.879	001-EEG_SVR_Officel	2022.2.5	143.37575343989676		5.5900000000001455	1_sub-pilot020_SVR_EEG_block3-4.protocol.csv	step33	3831	379.915	STIMULATE	46.5	46.4	46.5	46.5	46.6	33	1151.229
1187.968	0	593984	wait	20	3	0	3	0	0.0	0.0	0.0	0.0				p	0.277081399999588	1372.755229800001	1379.5059132000024	1379.5059132000024	2.0	['2', 'return']	[2.5600245999994513, 4.16833029999907]	6.74	6.41	0.0	20hz	low_pain	44.0			sub-pilot020	250	20	44	46.5	COM11	COM7	COM3	2023-11-17_13h08.05.879	001-EEG_SVR_Officel	2022.2.5	143.37575343989676		43.365999999999985	1_sub-pilot020_SVR_EEG_block3-4.protocol.csv	step35	4398	436.491	STIMULATE	44.2	43.9	43.9	43.9	44.1	35	1207.79
1194.706	0	597353	20hz	6	3	0	3	0	0.0	0.0	0.0	0.0				p	0.277081399999588	1372.755229800001	1379.5059132000024	1379.5059132000024	2.0	['2', 'return']	[2.5600245999994513, 4.16833029999907]	6.74	6.41	0.0	20hz	low_pain	44.0			sub-pilot020	250	20	44	46.5	COM11	COM7	COM3	2023-11-17_13h08.05.879	001-EEG_SVR_Officel	2022.2.5	143.37575343989676		6.737999999999829	1_sub-pilot020_SVR_EEG_block3-4.protocol.csv	step35	4398	436.491	STIMULATE	44.2	43.9	43.9	43.9	44.1	35	1207.79
1201.866	0	600933	20/Lo	5	3	0	3	0	0.0	0.0	0.0	0.0				p	0.277081399999588	1372.755229800001	1379.5059132000024	1379.5059132000024	2.0	['2', 'return']	[2.5600245999994513, 4.16833029999907]	6.74	6.41	0.0	20hz	low_pain	44.0			sub-pilot020	250	20	44	46.5	COM11	COM7	COM3	2023-11-17_13h08.05.879	001-EEG_SVR_Officel	2022.2.5	143.37575343989676		6.410000000000082	1_sub-pilot020_SVR_EEG_block3-4.protocol.csv	step35	4398	436.491	STIMULATE	44.2	43.9	43.9	43.9	44.1	35	1207.79
1211.908	0	605954	wait	20	3	0	3	0	1.0	0.0	1.0	0.0						1396.6957256000023	1402.3076342000022	1402.3076342000022	7.0	['7', 'return']	[2.23859999999695, 2.5344617999980983]	5.6	5.78	1.0	20hz	high_pain	46.5			sub-pilot020	250	20	44	46.5	COM11	COM7	COM3	2023-11-17_13h08.05.879	001-EEG_SVR_Officel	2022.2.5	143.37575343989676		10.791999999999916	1_sub-pilot020_SVR_EEG_block3-4.protocol.csv	step37	4622	458.652	STIMULATE	46.8	46.4	46.5	46.4	46.6	37	1229.951
1217.508	0	608754	20hz	6	3	0	3	0	1.0	0.0	1.0	0.0						1396.6957256000023	1402.3076342000022	1402.3076342000022	7.0	['7', 'return']	[2.23859999999695, 2.5344617999980983]	5.6	5.78	1.0	20hz	high_pain	46.5			sub-pilot020	250	20	44	46.5	COM11	COM7	COM3	2023-11-17_13h08.05.879	001-EEG_SVR_Officel	2022.2.5	143.37575343989676		5.600000000000136	1_sub-pilot020_SVR_EEG_block3-4.protocol.csv	step37	4622	458.652	STIMULATE	46.8	46.4	46.5	46.4	46.6	37	1229.951
1224.042	0	612021	20/Hi	4	3	0	3	0	1.0	0.0	1.0	0.0						1396.6957256000023	1402.3076342000022	1402.3076342000022	7.0	['7', 'return']	[2.23859999999695, 2.5344617999980983]	5.6	5.78	1.0	20hz	high_pain	46.5			sub-pilot020	250	20	44	46.5	COM11	COM7	COM3	2023-11-17_13h08.05.879	001-EEG_SVR_Officel	2022.2.5	143.37575343989676		5.783999999999878	1_sub-pilot020_SVR_EEG_block3-4.protocol.csv	step37	4622	458.652	STIMULATE	46.8	46.4	46.5	46.4	46.6	37	1229.951
1233.07	0	616535	wait	20	3	0	3	0	2.0	0.0	2.0	0.0						1417.8580355000013	1423.1850957000024	1423.1850957000024	4.0	['4', 'return']	[2.009042599998793, 2.424689200001012]	5.32	5.87	2.0	20hz	low_pain	44.0			sub-pilot020	250	20	44	46.5	COM11	COM7	COM3	2023-11-17_13h08.05.879	001-EEG_SVR_Officel	2022.2.5	143.37575343989676		9.77800000000002	1_sub-pilot020_SVR_EEG_block3-4.protocol.csv	step39	4834	479.643	STIMULATE	44.1	43.9	43.9	43.9	44.2	39	1250.942
1238.386	0	619193	20hz	6	3	0	3	0	2.0	0.0	2.0	0.0						1417.8580355000013	1423.1850957000024	1423.1850957000024	4.0	['4', 'return']	[2.009042599998793, 2.424689200001012]	5.32	5.87	2.0	20hz	low_pain	44.0			sub-pilot020	250	20	44	46.5	COM11	COM7	COM3	2023-11-17_13h08.05.879	001-EEG_SVR_Officel	2022.2.5	143.37575343989676		5.316000000000031	1_sub-pilot020_SVR_EEG_block3-4.protocol.csv	step39	4834	479.643	STIMULATE	44.1	43.9	43.9	43.9	44.2	39	1250.942
1245.008	0	622504	20/Lo	5	3	0	3	0	2.0	0.0	2.0	0.0						1417.8580355000013	1423.1850957000024	1423.1850957000024	4.0	['4', 'return']	[2.009042599998793, 2.424689200001012]	5.32	5.87	2.0	20hz	low_pain	44.0			sub-pilot020	250	20	44	46.5	COM11	COM7	COM3	2023-11-17_13h08.05.879	001-EEG_SVR_Officel	2022.2.5	143.37575343989676		5.872000000000071	1_sub-pilot020_SVR_EEG_block3-4.protocol.csv	step39	4834	479.643	STIMULATE	44.1	43.9	43.9	43.9	44.2	39	1250.942
1253.844	0	626922	wait	20	3	0	3	0	3.0	0.0	3.0	0.0						1438.6312190000026	1446.2920261	1446.2920261	3.0	['3', 'return']	[2.029998699999851, 2.582699999999022]	7.65	6.06	3.0	10hz	low_pain	44.0			sub-pilot020	250	20	44	46.5	COM11	COM7	COM3	2023-11-17_13h08.05.879	001-EEG_SVR_Officel	2022.2.5	143.37575343989676		9.586000000000013	1_sub-pilot020_SVR_EEG_block3-4.protocol.csv	step41	5068	502.894	STIMULATE	43.9	43.9	43.9	43.9	44.1	41	1274.193
1261.492	0	630746	10hz	3	3	0	3	0	3.0	0.0	3.0	0.0						1438.6312190000026	1446.2920261	1446.2920261	3.0	['3', 'return']	[2.029998699999851, 2.582699999999022]	7.65	6.06	3.0	10hz	low_pain	44.0			sub-pilot020	250	20	44	46.5	COM11	COM7	COM3	2023-11-17_13h08.05.879	001-EEG_SVR_Officel	2022.2.5	143.37575343989676		7.647999999999911	1_sub-pilot020_SVR_EEG_block3-4.protocol.csv	step41	5068	502.894	STIMULATE	43.9	43.9	43.9	43.9	44.1	41	1274.193
1268.304	0	634152	10/Lo	2	3	0	3	0	3.0	0.0	3.0	0.0						1438.6312190000026	1446.2920261	1446.2920261	3.0	['3', 'return']	[2.029998699999851, 2.582699999999022]	7.65	6.06	3.0	10hz	low_pain	44.0			sub-pilot020	250	20	44	46.5	COM11	COM7	COM3	2023-11-17_13h08.05.879	001-EEG_SVR_Officel	2022.2.5	143.37575343989676		6.0620000000001255	1_sub-pilot020_SVR_EEG_block3-4.protocol.csv	step41	5068	502.894	STIMULATE	43.9	43.9	43.9	43.9	44.1	41	1274.193
1277.096	0	638548	wait	20	3	0	3	0	4.0	0.0	4.0	0.0						1461.8834953000005	1467.1209062000016	1467.1209062000016	8.0	['8', 'return']	[2.570043399999122, 3.081219100000453]	5.22	5.01	0.0	40hz	high_pain	46.5			sub-pilot020	250	20	44	46.5	COM11	COM7	COM3	2023-11-17_13h08.05.879	001-EEG_SVR_Officel	2022.2.5	143.37575343989676		9.541999999999916	1_sub-pilot020_SVR_EEG_block3-4.protocol.csv	step43	5269	522.745	STIMULATE	46.6	46.4	46.5	46.5	46.5	43	1294.0439999999999
1282.32	0	641160	40hz	9	3	0	3	0	4.0	0.0	4.0	0.0						1461.8834953000005	1467.1209062000016	1467.1209062000016	8.0	['8', 'return']	[2.570043399999122, 3.081219100000453]	5.22	5.01	0.0	40hz	high_pain	46.5			sub-pilot020	250	20	44	46.5	COM11	COM7	COM3	2023-11-17_13h08.05.879	001-EEG_SVR_Officel	2022.2.5	143.37575343989676		5.223999999999933	1_sub-pilot020_SVR_EEG_block3-4.protocol.csv	step43	5269	522.745	STIMULATE	46.6	46.4	46.5	46.5	46.5	43	1294.0439999999999
1288.084	0	644042	40/Hi	7	3	0	3	0	4.0	0.0	4.0	0.0						1461.8834953000005	1467.1209062000016	1467.1209062000016	8.0	['8', 'return']	[2.570043399999122, 3.081219100000453]	5.22	5.01	0.0	40hz	high_pain	46.5			sub-pilot020	250	20	44	46.5	COM11	COM7	COM3	2023-11-17_13h08.05.879	001-EEG_SVR_Officel	2022.2.5	143.37575343989676		5.014000000000124	1_sub-pilot020_SVR_EEG_block3-4.protocol.csv	step43	5269	522.745	STIMULATE	46.6	46.4	46.5	46.5	46.5	43	1294.0439999999999
1298.424	0	649212	wait	20	3	0	3	0	5.0	0.0	5.0	0.0						1483.212258200001	1489.5126354000022	1489.5126354000022	7.0	['7', 'return']	[2.3135345000009693, 2.649892400000681]	6.29	5.45	1.0	controle	high_pain	46.5			sub-pilot020	250	20	44	46.5	COM11	COM7	COM3	2023-11-17_13h08.05.879	001-EEG_SVR_Officel	2022.2.5	143.37575343989676		11.089999999999918	1_sub-pilot020_SVR_EEG_block3-4.protocol.csv	step45	5499	545.526	STIMULATE	46.7	46.4	46.4	46.4	46.5	45	1316.8249999999998
1304.712	0	652356	CNhz	12	3	0	3	0	5.0	0.0	5.0	0.0						1483.212258200001	1489.5126354000022	1489.5126354000022	7.0	['7', 'return']	[2.3135345000009693, 2.649892400000681]	6.29	5.45	1.0	controle	high_pain	46.5			sub-pilot020	250	20	44	46.5	COM11	COM7	COM3	2023-11-17_13h08.05.879	001-EEG_SVR_Officel	2022.2.5	143.37575343989676		6.288000000000011	1_sub-pilot020_SVR_EEG_block3-4.protocol.csv	step45	5499	545.526	STIMULATE	46.7	46.4	46.4	46.4	46.5	45	1316.8249999999998
1310.912	0	655456	CN/Hi	10	3	0	3	0	5.0	0.0	5.0	0.0						1483.212258200001	1489.5126354000022	1489.5126354000022	7.0	['7', 'return']	[2.3135345000009693, 2.649892400000681]	6.29	5.45	1.0	controle	high_pain	46.5			sub-pilot020	250	20	44	46.5	COM11	COM7	COM3	2023-11-17_13h08.05.879	001-EEG_SVR_Officel	2022.2.5	143.37575343989676		5.4500000000000455	1_sub-pilot020_SVR_EEG_block3-4.protocol.csv	step45	5499	545.526	STIMULATE	46.7	46.4	46.4	46.4	46.5	45	1316.8249999999998
1320.394	0	660197	wait	20	3	0	3	0	6.0	0.0	6.0	0.0						1505.1811307000023	1510.3830544000011	1510.3830544000011	6.0	['6', 'return']	[2.3403113999993366, 2.947889600000053]	5.19	5.31	2.0	controle	low_pain	44.0			sub-pilot020	250	20	44	46.5	COM11	COM7	COM3	2023-11-17_13h08.05.879	001-EEG_SVR_Officel	2022.2.5	143.37575343989676		10.231999999999971	1_sub-pilot020_SVR_EEG_block3-4.protocol.csv	step47	5709	566.309	STIMULATE	44.1	43.9	43.9	43.9	44.1	47	1337.608
1325.582	0	662791	CNhz	12	3	0	3	0	6.0	0.0	6.0	0.0						1505.1811307000023	1510.3830544000011	1510.3830544000011	6.0	['6', 'return']	[2.3403113999993366, 2.947889600000053]	5.19	5.31	2.0	controle	low_pain	44.0			sub-pilot020	250	20	44	46.5	COM11	COM7	COM3	2023-11-17_13h08.05.879	001-EEG_SVR_Officel	2022.2.5	143.37575343989676		5.188000000000102	1_sub-pilot020_SVR_EEG_block3-4.protocol.csv	step47	5709	566.309	STIMULATE	44.1	43.9	43.9	43.9	44.1	47	1337.608
1331.644	0	665822	CN/Lo	11	3	0	3	0	6.0	0.0	6.0	0.0						1505.1811307000023	1510.3830544000011	1510.3830544000011	6.0	['6', 'return']	[2.3403113999993366, 2.947889600000053]	5.19	5.31	2.0	controle	low_pain	44.0			sub-pilot020	250	20	44	46.5	COM11	COM7	COM3	2023-11-17_13h08.05.879	001-EEG_SVR_Officel	2022.2.5	143.37575343989676		5.311999999999898	1_sub-pilot020_SVR_EEG_block3-4.protocol.csv	step47	5709	566.309	STIMULATE	44.1	43.9	43.9	43.9	44.1	47	1337.608
1341.562	0	670781	wait	20	3	0	3	0	7.0	0.0	7.0	0.0						1526.3498841	1533.747681300003	1533.747681300003	4.0	['4', 'return']	[2.0942021000009845, 2.758100999999442]	7.39	5.61	3.0	controle	low_pain	44.0			sub-pilot020	250	20	44	46.5	COM11	COM7	COM3	2023-11-17_13h08.05.879	001-EEG_SVR_Officel	2022.2.5	143.37575343989676		10.667999999999893	1_sub-pilot020_SVR_EEG_block3-4.protocol.csv	step49	5946	589.908	STIMULATE	44.0	43.9	43.9	43.9	43.9	49	1361.2069999999999
1348.946	0	674473	CNhz	12	3	0	3	0	7.0	0.0	7.0	0.0						1526.3498841	1533.747681300003	1533.747681300003	4.0	['4', 'return']	[2.0942021000009845, 2.758100999999442]	7.39	5.61	3.0	controle	low_pain	44.0			sub-pilot020	250	20	44	46.5	COM11	COM7	COM3	2023-11-17_13h08.05.879	001-EEG_SVR_Officel	2022.2.5	143.37575343989676		7.3840000000000146	1_sub-pilot020_SVR_EEG_block3-4.protocol.csv	step49	5946	589.908	STIMULATE	44.0	43.9	43.9	43.9	43.9	49	1361.2069999999999
1355.306	0	677653	CN/Lo	11	3	0	3	0	7.0	0.0	7.0	0.0						1526.3498841	1533.747681300003	1533.747681300003	4.0	['4', 'return']	[2.0942021000009845, 2.758100999999442]	7.39	5.61	3.0	controle	low_pain	44.0			sub-pilot020	250	20	44	46.5	COM11	COM7	COM3	2023-11-17_13h08.05.879	001-EEG_SVR_Officel	2022.2.5	143.37575343989676		5.610000000000127	1_sub-pilot020_SVR_EEG_block3-4.protocol.csv	step49	5946	589.908	STIMULATE	44.0	43.9	43.9	43.9	43.9	49	1361.2069999999999
1364.738	0	682369	wait	20	3	0	3	0	8.0	0.0	8.0	0.0						1549.5270132000005	1557.2990179000008	1557.2990179000008	4.0	['4', 'return']	[3.1027528000013262, 3.6474669000017457]	7.76	5.88	0.0	20hz	high_pain	46.5			sub-pilot020	250	20	44	46.5	COM11	COM7	COM3	2023-11-17_13h08.05.879	001-EEG_SVR_Officel	2022.2.5	143.37575343989676		10.182000000000016	1_sub-pilot020_SVR_EEG_block3-4.protocol.csv	step51	6187	613.742	STIMULATE	46.7	46.4	46.4	46.5	46.7	51	1385.041
1372.498	0	686249	20hz	6	3	0	3	0	8.0	0.0	8.0	0.0						1549.5270132000005	1557.2990179000008	1557.2990179000008	4.0	['4', 'return']	[3.1027528000013262, 3.6474669000017457]	7.76	5.88	0.0	20hz	high_pain	46.5			sub-pilot020	250	20	44	46.5	COM11	COM7	COM3	2023-11-17_13h08.05.879	001-EEG_SVR_Officel	2022.2.5	143.37575343989676		7.759999999999991	1_sub-pilot020_SVR_EEG_block3-4.protocol.csv	step51	6187	613.742	STIMULATE	46.7	46.4	46.4	46.5	46.7	51	1385.041
1379.13	0	689565	20/Hi	4	3	0	3	0	8.0	0.0	8.0	0.0						1549.5270132000005	1557.2990179000008	1557.2990179000008	4.0	['4', 'return']	[3.1027528000013262, 3.6474669000017457]	7.76	5.88	0.0	20hz	high_pain	46.5			sub-pilot020	250	20	44	46.5	COM11	COM7	COM3	2023-11-17_13h08.05.879	001-EEG_SVR_Officel	2022.2.5	143.37575343989676		5.882000000000062	1_sub-pilot020_SVR_EEG_block3-4.protocol.csv	step51	6187	613.742	STIMULATE	46.7	46.4	46.4	46.5	46.7	51	1385.041
1389.17	0	694585	wait	20	3	0	3	0	9.0	0.0	9.0	0.0						1573.959369100001	1579.1066555000034	1579.1066555000034	2.0	['2', 'return']	[2.959649200001877, 3.584872399998858]	5.14	5.23	1.0	20hz	low_pain	44.0			sub-pilot020	250	20	44	46.5	COM11	COM7	COM3	2023-11-17_13h08.05.879	001-EEG_SVR_Officel	2022.2.5	143.37575343989676		10.789999999999964	1_sub-pilot020_SVR_EEG_block3-4.protocol.csv	step53	6401	634.964	STIMULATE	44.0	43.9	43.9	43.9	44.1	53	1406.263
1394.306	0	697153	20hz	6	3	0	3	0	9.0	0.0	9.0	0.0						1573.959369100001	1579.1066555000034	1579.1066555000034	2.0	['2', 'return']	[2.959649200001877, 3.584872399998858]	5.14	5.23	1.0	20hz	low_pain	44.0			sub-pilot020	250	20	44	46.5	COM11	COM7	COM3	2023-11-17_13h08.05.879	001-EEG_SVR_Officel	2022.2.5	143.37575343989676		5.135999999999967	1_sub-pilot020_SVR_EEG_block3-4.protocol.csv	step53	6401	634.964	STIMULATE	44.0	43.9	43.9	43.9	44.1	53	1406.263
1400.29	0	700145	20/Lo	5	3	0	3	0	9.0	0.0	9.0	0.0						1573.959369100001	1579.1066555000034	1579.1066555000034	2.0	['2', 'return']	[2.959649200001877, 3.584872399998858]	5.14	5.23	1.0	20hz	low_pain	44.0			sub-pilot020	250	20	44	46.5	COM11	COM7	COM3	2023-11-17_13h08.05.879	001-EEG_SVR_Officel	2022.2.5	143.37575343989676		5.233999999999924	1_sub-pilot020_SVR_EEG_block3-4.protocol.csv	step53	6401	634.964	STIMULATE	44.0	43.9	43.9	43.9	44.1	53	1406.263
1410.924	0	705462	wait	20	3	0	3	0	10.0	0.0	10.0	0.0						1595.7129082000029	1601.755338400002	1601.755338400002	7.0	['7', 'return']	[1.8872066999974777, 2.790636399997311]	6.03	5.72	2.0	40hz	high_pain	46.5			sub-pilot020	250	20	44	46.5	COM11	COM7	COM3	2023-11-17_13h08.05.879	001-EEG_SVR_Officel	2022.2.5	143.37575343989676		11.384000000000015	1_sub-pilot020_SVR_EEG_block3-4.protocol.csv	step55	6634	658.069	STIMULATE	46.7	46.4	46.5	46.4	46.6	55	1429.368
1416.956	0	708478	40hz	9	3	0	3	0	10.0	0.0	10.0	0.0						1595.7129082000029	1601.755338400002	1601.755338400002	7.0	['7', 'return']	[1.8872066999974777, 2.790636399997311]	6.03	5.72	2.0	40hz	high_pain	46.5			sub-pilot020	250	20	44	46.5	COM11	COM7	COM3	2023-11-17_13h08.05.879	001-EEG_SVR_Officel	2022.2.5	143.37575343989676		6.031999999999925	1_sub-pilot020_SVR_EEG_block3-4.protocol.csv	step55	6634	658.069	STIMULATE	46.7	46.4	46.5	46.4	46.6	55	1429.368
1423.426	0	711713	40/Hi	7	3	0	3	0	10.0	0.0	10.0	0.0						1595.7129082000029	1601.755338400002	1601.755338400002	7.0	['7', 'return']	[1.8872066999974777, 2.790636399997311]	6.03	5.72	2.0	40hz	high_pain	46.5			sub-pilot020	250	20	44	46.5	COM11	COM7	COM3	2023-11-17_13h08.05.879	001-EEG_SVR_Officel	2022.2.5	143.37575343989676		5.720000000000027	1_sub-pilot020_SVR_EEG_block3-4.protocol.csv	step55	6634	658.069	STIMULATE	46.7	46.4	46.5	46.4	46.6	55	1429.368
1432.766	0	716383	wait	20	3	0	3	0	11.0	0.0	11.0	0.0						1617.555254400002	1624.9941530000033	1624.9941530000033	6.0	['6', 'return']	[2.1514542999975674, 2.5110231999969983]	7.43	5.93	3.0	10hz	high_pain	46.5			sub-pilot020	250	20	44	46.5	COM11	COM7	COM3	2023-11-17_13h08.05.879	001-EEG_SVR_Officel	2022.2.5	143.37575343989676		10.090000000000146	1_sub-pilot020_SVR_EEG_block3-4.protocol.csv	step57	6870	681.461	STIMULATE	46.5	46.4	46.4	46.5	46.7	57	1452.76
1440.192	0	720096	10hz	3	3	0	3	0	11.0	0.0	11.0	0.0						1617.555254400002	1624.9941530000033	1624.9941530000033	6.0	['6', 'return']	[2.1514542999975674, 2.5110231999969983]	7.43	5.93	3.0	10hz	high_pain	46.5			sub-pilot020	250	20	44	46.5	COM11	COM7	COM3	2023-11-17_13h08.05.879	001-EEG_SVR_Officel	2022.2.5	143.37575343989676		7.425999999999931	1_sub-pilot020_SVR_EEG_block3-4.protocol.csv	step57	6870	681.461	STIMULATE	46.5	46.4	46.4	46.5	46.7	57	1452.76
1446.872	0	723436	10/Hi	1	3	0	3	0	11.0	0.0	11.0	0.0						1617.555254400002	1624.9941530000033	1624.9941530000033	6.0	['6', 'return']	[2.1514542999975674, 2.5110231999969983]	7.43	5.93	3.0	10hz	high_pain	46.5			sub-pilot020	250	20	44	46.5	COM11	COM7	COM3	2023-11-17_13h08.05.879	001-EEG_SVR_Officel	2022.2.5	143.37575343989676		5.930000000000064	1_sub-pilot020_SVR_EEG_block3-4.protocol.csv	step57	6870	681.461	STIMULATE	46.5	46.4	46.4	46.5	46.7	57	1452.76
1455.734	0	727867	wait	20	3	0	3	0	12.0	0.0	12.0	0.0						1640.523907400002	1648.4624129000003	1648.4624129000003	3.0	['3', 'return']	[2.755506500001502, 3.267133900000772]	7.93	6.31	0.0	10hz	low_pain	44.0			sub-pilot020	250	20	44	46.5	COM11	COM7	COM3	2023-11-17_13h08.05.879	001-EEG_SVR_Officel	2022.2.5	143.37575343989676		9.611999999999853	1_sub-pilot020_SVR_EEG_block3-4.protocol.csv	step59	7111	705.358	STIMULATE	43.9	43.9	43.9	43.9	44.1	59	1476.657
1463.66	0	731830	10hz	3	3	0	3	0	12.0	0.0	12.0	0.0						1640.523907400002	1648.4624129000003	1648.4624129000003	3.0	['3', 'return']	[2.755506500001502, 3.267133900000772]	7.93	6.31	0.0	10hz	low_pain	44.0			sub-pilot020	250	20	44	46.5	COM11	COM7	COM3	2023-11-17_13h08.05.879	001-EEG_SVR_Officel	2022.2.5	143.37575343989676		7.926000000000158	1_sub-pilot020_SVR_EEG_block3-4.protocol.csv	step59	7111	705.358	STIMULATE	43.9	43.9	43.9	43.9	44.1	59	1476.657
1470.722	0	735361	10/Lo	2	3	0	3	0	12.0	0.0	12.0	0.0						1640.523907400002	1648.4624129000003	1648.4624129000003	3.0	['3', 'return']	[2.755506500001502, 3.267133900000772]	7.93	6.31	0.0	10hz	low_pain	44.0			sub-pilot020	250	20	44	46.5	COM11	COM7	COM3	2023-11-17_13h08.05.879	001-EEG_SVR_Officel	2022.2.5	143.37575343989676		6.311999999999898	1_sub-pilot020_SVR_EEG_block3-4.protocol.csv	step59	7111	705.358	STIMULATE	43.9	43.9	43.9	43.9	44.1	59	1476.657
1479.96	0	739980	wait	20	3	0	3	0	13.0	0.0	13.0	0.0						1664.749401000001	1672.7159562000015	1672.7159562000015	9.0	['9', 'return']	[2.0950382000009995, 2.4794452999994974]	7.96	6.0	1.0	40hz	high_pain	46.5			sub-pilot020	250	20	44	46.5	COM11	COM7	COM3	2023-11-17_13h08.05.879	001-EEG_SVR_Officel	2022.2.5	143.37575343989676		9.988000000000056	1_sub-pilot020_SVR_EEG_block3-4.protocol.csv	step61	7352	729.26	STIMULATE	46.6	46.4	46.4	46.4	46.7	61	1500.559
1487.914	0	743957	40hz	9	3	0	3	0	13.0	0.0	13.0	0.0						1664.749401000001	1672.7159562000015	1672.7159562000015	9.0	['9', 'return']	[2.0950382000009995, 2.4794452999994974]	7.96	6.0	1.0	40hz	high_pain	46.5			sub-pilot020	250	20	44	46.5	COM11	COM7	COM3	2023-11-17_13h08.05.879	001-EEG_SVR_Officel	2022.2.5	143.37575343989676		7.953999999999951	1_sub-pilot020_SVR_EEG_block3-4.protocol.csv	step61	7352	729.26	STIMULATE	46.6	46.4	46.4	46.4	46.7	61	1500.559
1494.662	0	747331	40/Hi	7	3	0	3	0	13.0	0.0	13.0	0.0						1664.749401000001	1672.7159562000015	1672.7159562000015	9.0	['9', 'return']	[2.0950382000009995, 2.4794452999994974]	7.96	6.0	1.0	40hz	high_pain	46.5			sub-pilot020	250	20	44	46.5	COM11	COM7	COM3	2023-11-17_13h08.05.879	001-EEG_SVR_Officel	2022.2.5	143.37575343989676		5.998000000000047	1_sub-pilot020_SVR_EEG_block3-4.protocol.csv	step61	7352	729.26	STIMULATE	46.6	46.4	46.4	46.4	46.7	61	1500.559
1503.42	0	751710	wait	20	3	0	3	0	14.0	0.0	14.0	0.0						1688.2101755000003	1693.752495300003	1693.752495300003	6.0	['6', 'return']	[2.3549041999976907, 2.84050009999919]	5.53	6.26	2.0	controle	high_pain	46.5			sub-pilot020	250	20	44	46.5	COM11	COM7	COM3	2023-11-17_13h08.05.879	001-EEG_SVR_Officel	2022.2.5	143.37575343989676		9.508000000000038	1_sub-pilot020_SVR_EEG_block3-4.protocol.csv	step63	7566	750.581	STIMULATE	46.5	46.4	46.4	46.5	46.7	63	1521.88
1508.95	0	754475	CNhz	12	3	0	3	0	14.0	0.0	14.0	0.0						1688.2101755000003	1693.752495300003	1693.752495300003	6.0	['6', 'return']	[2.3549041999976907, 2.84050009999919]	5.53	6.26	2.0	controle	high_pain	46.5			sub-pilot020	250	20	44	46.5	COM11	COM7	COM3	2023-11-17_13h08.05.879	001-EEG_SVR_Officel	2022.2.5	143.37575343989676		5.529999999999973	1_sub-pilot020_SVR_EEG_block3-4.protocol.csv	step63	7566	750.581	STIMULATE	46.5	46.4	46.4	46.5	46.7	63	1521.88
1515.964	0	757982	CN/Hi	10	3	0	3	0	14.0	0.0	14.0	0.0						1688.2101755000003	1693.752495300003	1693.752495300003	6.0	['6', 'return']	[2.3549041999976907, 2.84050009999919]	5.53	6.26	2.0	controle	high_pain	46.5			sub-pilot020	250	20	44	46.5	COM11	COM7	COM3	2023-11-17_13h08.05.879	001-EEG_SVR_Officel	2022.2.5	143.37575343989676		6.263999999999896	1_sub-pilot020_SVR_EEG_block3-4.protocol.csv	step63	7566	750.581	STIMULATE	46.5	46.4	46.4	46.5	46.7	63	1521.88
1524.826	0	762413	wait	20	3	0	3	0	15.0	0.0	15.0	0.0						1709.6156617000015	1714.6439043000028	1714.6439043000028	4.0	['4', 'return']	[2.230952100002469, 2.7584576000008383]	5.02	6.03	3.0	20hz	low_pain	44.0			sub-pilot020	250	20	44	46.5	COM11	COM7	COM3	2023-11-17_13h08.05.879	001-EEG_SVR_Officel	2022.2.5	143.37575343989676		9.61200000000008	1_sub-pilot020_SVR_EEG_block3-4.protocol.csv	step65	7773	771.247	STIMULATE	43.9	43.9	43.9	43.9	44.0	65	1542.5459999999998
1529.842	0	764921	20hz	6	3	0	3	0	15.0	0.0	15.0	0.0						1709.6156617000015	1714.6439043000028	1714.6439043000028	4.0	['4', 'return']	[2.230952100002469, 2.7584576000008383]	5.02	6.03	3.0	20hz	low_pain	44.0			sub-pilot020	250	20	44	46.5	COM11	COM7	COM3	2023-11-17_13h08.05.879	001-EEG_SVR_Officel	2022.2.5	143.37575343989676		5.016000000000076	1_sub-pilot020_SVR_EEG_block3-4.protocol.csv	step65	7773	771.247	STIMULATE	43.9	43.9	43.9	43.9	44.0	65	1542.5459999999998
1536.626	0	768313	20/Lo	5	3	0	3	0	15.0	0.0	15.0	0.0						1709.6156617000015	1714.6439043000028	1714.6439043000028	4.0	['4', 'return']	[2.230952100002469, 2.7584576000008383]	5.02	6.03	3.0	20hz	low_pain	44.0			sub-pilot020	250	20	44	46.5	COM11	COM7	COM3	2023-11-17_13h08.05.879	001-EEG_SVR_Officel	2022.2.5	143.37575343989676		6.033999999999878	1_sub-pilot020_SVR_EEG_block3-4.protocol.csv	step65	7773	771.247	STIMULATE	43.9	43.9	43.9	43.9	44.0	65	1542.5459999999998
1647.842	0	823921	wait	20	4	0	4	0	0.0	0.0	0.0	0.0				p	0.4474450000016077	1832.6306564000008	1838.0478260000016	1838.0478260000016	2.0	['2', 'return']	[2.409683400001086, 2.8654553000014857]	5.41	5.34	0.0	20hz	low_pain	44.0			sub-pilot020	250	20	44	46.5	COM11	COM7	COM3	2023-11-17_13h08.05.879	001-EEG_SVR_Officel	2022.2.5	143.37575343989676		111.96600000000012	2_sub-pilot020_SVR_EEG_block5-6.protocol.csv	step3	1081	107.952	STIMULATE	44.2	43.9	43.9	43.9	43.9	3	1665.2050000000002
1653.244	0	826622	20hz	6	4	0	4	0	0.0	0.0	0.0	0.0				p	0.4474450000016077	1832.6306564000008	1838.0478260000016	1838.0478260000016	2.0	['2', 'return']	[2.409683400001086, 2.8654553000014857]	5.41	5.34	0.0	20hz	low_pain	44.0			sub-pilot020	250	20	44	46.5	COM11	COM7	COM3	2023-11-17_13h08.05.879	001-EEG_SVR_Officel	2022.2.5	143.37575343989676		5.401999999999816	2_sub-pilot020_SVR_EEG_block5-6.protocol.csv	step3	1081	107.952	STIMULATE	44.2	43.9	43.9	43.9	43.9	3	1665.2050000000002
1659.334	0	829667	20/Lo	5	4	0	4	0	0.0	0.0	0.0	0.0				p	0.4474450000016077	1832.6306564000008	1838.0478260000016	1838.0478260000016	2.0	['2', 'return']	[2.409683400001086, 2.8654553000014857]	5.41	5.34	0.0	20hz	low_pain	44.0			sub-pilot020	250	20	44	46.5	COM11	COM7	COM3	2023-11-17_13h08.05.879	001-EEG_SVR_Officel	2022.2.5	143.37575343989676		5.3400000000001455	2_sub-pilot020_SVR_EEG_block5-6.protocol.csv	step3	1081	107.952	STIMULATE	44.2	43.9	43.9	43.9	43.9	3	1665.2050000000002
1669.142	0	834571	wait	20	4	0	4	0	1.0	0.0	1.0	0.0						1853.9318265	1859.0088007000013	1859.0088007000013	3.0	['3', 'return']	[4.042348099999799, 4.514787200001592]	5.07	6.07	1.0	10hz	low_pain	44.0			sub-pilot020	250	20	44	46.5	COM11	COM7	COM3	2023-11-17_13h08.05.879	001-EEG_SVR_Officel	2022.2.5	143.37575343989676		10.557999999999993	2_sub-pilot020_SVR_EEG_block5-6.protocol.csv	step5	1300	129.641	STIMULATE	44.0	43.9	43.9	43.9	44.1	5	1686.894
1674.206	0	837103	10hz	3	4	0	4	0	1.0	0.0	1.0	0.0						1853.9318265	1859.0088007000013	1859.0088007000013	3.0	['3', 'return']	[4.042348099999799, 4.514787200001592]	5.07	6.07	1.0	10hz	low_pain	44.0			sub-pilot020	250	20	44	46.5	COM11	COM7	COM3	2023-11-17_13h08.05.879	001-EEG_SVR_Officel	2022.2.5	143.37575343989676		5.063999999999851	2_sub-pilot020_SVR_EEG_block5-6.protocol.csv	step5	1300	129.641	STIMULATE	44.0	43.9	43.9	43.9	44.1	5	1686.894
1681.024	0	840512	10/Lo	2	4	0	4	0	1.0	0.0	1.0	0.0						1853.9318265	1859.0088007000013	1859.0088007000013	3.0	['3', 'return']	[4.042348099999799, 4.514787200001592]	5.07	6.07	1.0	10hz	low_pain	44.0			sub-pilot020	250	20	44	46.5	COM11	COM7	COM3	2023-11-17_13h08.05.879	001-EEG_SVR_Officel	2022.2.5	143.37575343989676		6.067999999999984	2_sub-pilot020_SVR_EEG_block5-6.protocol.csv	step5	1300	129.641	STIMULATE	44.0	43.9	43.9	43.9	44.1	5	1686.894
1691.74	0	845870	wait	20	4	0	4	0	2.0	0.0	2.0	0.0						1876.5307944000012	1882.2410845000013	1882.2410845000013	3.0	['3', 'return']	[1.8506962999999814, 2.298168599998462]	5.7	5.52	2.0	controle	low_pain	44.0			sub-pilot020	250	20	44	46.5	COM11	COM7	COM3	2023-11-17_13h08.05.879	001-EEG_SVR_Officel	2022.2.5	143.37575343989676		11.466000000000122	2_sub-pilot020_SVR_EEG_block5-6.protocol.csv	step7	1529	152.336	STIMULATE	44.0	43.9	43.9	43.9	44.1	7	1709.5890000000002
1697.438	0	848719	CNhz	12	4	0	4	0	2.0	0.0	2.0	0.0						1876.5307944000012	1882.2410845000013	1882.2410845000013	3.0	['3', 'return']	[1.8506962999999814, 2.298168599998462]	5.7	5.52	2.0	controle	low_pain	44.0			sub-pilot020	250	20	44	46.5	COM11	COM7	COM3	2023-11-17_13h08.05.879	001-EEG_SVR_Officel	2022.2.5	143.37575343989676		5.698000000000093	2_sub-pilot020_SVR_EEG_block5-6.protocol.csv	step7	1529	152.336	STIMULATE	44.0	43.9	43.9	43.9	44.1	7	1709.5890000000002
1703.706	0	851853	CN/Lo	11	4	0	4	0	2.0	0.0	2.0	0.0						1876.5307944000012	1882.2410845000013	1882.2410845000013	3.0	['3', 'return']	[1.8506962999999814, 2.298168599998462]	5.7	5.52	2.0	controle	low_pain	44.0			sub-pilot020	250	20	44	46.5	COM11	COM7	COM3	2023-11-17_13h08.05.879	001-EEG_SVR_Officel	2022.2.5	143.37575343989676		5.517999999999802	2_sub-pilot020_SVR_EEG_block5-6.protocol.csv	step7	1529	152.336	STIMULATE	44.0	43.9	43.9	43.9	44.1	7	1709.5890000000002
1712.764	0	856382	wait	20	4	0	4	0	3.0	0.0	3.0	0.0						1897.5557477	1904.4936223000004	1904.4936223000004	8.0	['8', 'return']	[2.7744062000019767, 2.989430400000856]	6.93	5.83	3.0	40hz	high_pain	46.5			sub-pilot020	250	20	44	46.5	COM11	COM7	COM3	2023-11-17_13h08.05.879	001-EEG_SVR_Officel	2022.2.5	143.37575343989676		9.807999999999993	2_sub-pilot020_SVR_EEG_block5-6.protocol.csv	step9	1756	174.873	STIMULATE	46.5	46.4	46.4	46.5	46.8	9	1732.126
1719.69	0	859845	40hz	9	4	0	4	0	3.0	0.0	3.0	0.0						1897.5557477	1904.4936223000004	1904.4936223000004	8.0	['8', 'return']	[2.7744062000019767, 2.989430400000856]	6.93	5.83	3.0	40hz	high_pain	46.5			sub-pilot020	250	20	44	46.5	COM11	COM7	COM3	2023-11-17_13h08.05.879	001-EEG_SVR_Officel	2022.2.5	143.37575343989676		6.926000000000158	2_sub-pilot020_SVR_EEG_block5-6.protocol.csv	step9	1756	174.873	STIMULATE	46.5	46.4	46.4	46.5	46.8	9	1732.126
1726.274	0	863137	40/Hi	7	4	0	4	0	3.0	0.0	3.0	0.0						1897.5557477	1904.4936223000004	1904.4936223000004	8.0	['8', 'return']	[2.7744062000019767, 2.989430400000856]	6.93	5.83	3.0	40hz	high_pain	46.5			sub-pilot020	250	20	44	46.5	COM11	COM7	COM3	2023-11-17_13h08.05.879	001-EEG_SVR_Officel	2022.2.5	143.37575343989676		5.833999999999833	2_sub-pilot020_SVR_EEG_block5-6.protocol.csv	step9	1756	174.873	STIMULATE	46.5	46.4	46.4	46.5	46.8	9	1732.126
1735.712	0	867856	wait	20	4	0	4	0	4.0	0.0	4.0	0.0						1920.5029384000009	1927.5241140000037	1927.5241140000037	3.0	['3', 'return']	[2.6629176000024017, 3.1345031000018935]	7.01	5.62	0.0	10hz	low_pain	44.0			sub-pilot020	250	20	44	46.5	COM11	COM7	COM3	2023-11-17_13h08.05.879	001-EEG_SVR_Officel	2022.2.5	143.37575343989676		10.188000000000102	2_sub-pilot020_SVR_EEG_block5-6.protocol.csv	step11	1987	197.705	STIMULATE	44.1	43.9	43.9	43.9	44.0	11	1754.958
1742.72	0	871360	10hz	3	4	0	4	0	4.0	0.0	4.0	0.0						1920.5029384000009	1927.5241140000037	1927.5241140000037	3.0	['3', 'return']	[2.6629176000024017, 3.1345031000018935]	7.01	5.62	0.0	10hz	low_pain	44.0			sub-pilot020	250	20	44	46.5	COM11	COM7	COM3	2023-11-17_13h08.05.879	001-EEG_SVR_Officel	2022.2.5	143.37575343989676		7.008000000000038	2_sub-pilot020_SVR_EEG_block5-6.protocol.csv	step11	1987	197.705	STIMULATE	44.1	43.9	43.9	43.9	44.0	11	1754.958
1749.094	0	874547	10/Lo	2	4	0	4	0	4.0	0.0	4.0	0.0						1920.5029384000009	1927.5241140000037	1927.5241140000037	3.0	['3', 'return']	[2.6629176000024017, 3.1345031000018935]	7.01	5.62	0.0	10hz	low_pain	44.0			sub-pilot020	250	20	44	46.5	COM11	COM7	COM3	2023-11-17_13h08.05.879	001-EEG_SVR_Officel	2022.2.5	143.37575343989676		5.624000000000024	2_sub-pilot020_SVR_EEG_block5-6.protocol.csv	step11	1987	197.705	STIMULATE	44.1	43.9	43.9	43.9	44.0	11	1754.958
1758.88	0	879440	wait	20	4	0	4	0	5.0	0.0	5.0	0.0						1943.671280300001	1948.783478700003	1948.783478700003	7.0	['7', 'return']	[2.2268965000002936, 2.443595100001403]	5.1	5.71	1.0	10hz	high_pain	46.5			sub-pilot020	250	20	44	46.5	COM11	COM7	COM3	2023-11-17_13h08.05.879	001-EEG_SVR_Officel	2022.2.5	143.37575343989676		10.536000000000058	2_sub-pilot020_SVR_EEG_block5-6.protocol.csv	step13	2202	219.081	STIMULATE	46.5	46.4	46.4	46.5	46.4	13	1776.334
1763.98	0	881990	10hz	3	4	0	4	0	5.0	0.0	5.0	0.0						1943.671280300001	1948.783478700003	1948.783478700003	7.0	['7', 'return']	[2.2268965000002936, 2.443595100001403]	5.1	5.71	1.0	10hz	high_pain	46.5			sub-pilot020	250	20	44	46.5	COM11	COM7	COM3	2023-11-17_13h08.05.879	001-EEG_SVR_Officel	2022.2.5	143.37575343989676		5.099999999999909	2_sub-pilot020_SVR_EEG_block5-6.protocol.csv	step13	2202	219.081	STIMULATE	46.5	46.4	46.4	46.5	46.4	13	1776.334
1770.442	0	885221	10/Hi	1	4	0	4	0	5.0	0.0	5.0	0.0						1943.671280300001	1948.783478700003	1948.783478700003	7.0	['7', 'return']	[2.2268965000002936, 2.443595100001403]	5.1	5.71	1.0	10hz	high_pain	46.5			sub-pilot020	250	20	44	46.5	COM11	COM7	COM3	2023-11-17_13h08.05.879	001-EEG_SVR_Officel	2022.2.5	143.37575343989676		5.711999999999989	2_sub-pilot020_SVR_EEG_block5-6.protocol.csv	step13	2202	219.081	STIMULATE	46.5	46.4	46.4	46.5	46.4	13	1776.334
1779.452	0	889726	wait	20	4	0	4	0	6.0	0.0	6.0	0.0						1964.2436277000013	1970.2305204000004	1970.2305204000004	3.0	['3', 'return']	[2.3555150000029244, 2.8686626000016986]	5.98	5.98	2.0	40hz	high_pain	46.5			sub-pilot020	250	20	44	46.5	COM11	COM7	COM3	2023-11-17_13h08.05.879	001-EEG_SVR_Officel	2022.2.5	143.37575343989676		9.759999999999991	2_sub-pilot020_SVR_EEG_block5-6.protocol.csv	step15	2421	240.763	STIMULATE	46.5	46.4	46.5	46.5	46.7	15	1798.016
1785.426	0	892713	40hz	9	4	0	4	0	6.0	0.0	6.0	0.0						1964.2436277000013	1970.2305204000004	1970.2305204000004	3.0	['3', 'return']	[2.3555150000029244, 2.8686626000016986]	5.98	5.98	2.0	40hz	high_pain	46.5			sub-pilot020	250	20	44	46.5	COM11	COM7	COM3	2023-11-17_13h08.05.879	001-EEG_SVR_Officel	2022.2.5	143.37575343989676		5.973999999999933	2_sub-pilot020_SVR_EEG_block5-6.protocol.csv	step15	2421	240.763	STIMULATE	46.5	46.4	46.5	46.5	46.7	15	1798.016
1792.162	0	896081	40/Hi	7	4	0	4	0	6.0	0.0	6.0	0.0						1964.2436277000013	1970.2305204000004	1970.2305204000004	3.0	['3', 'return']	[2.3555150000029244, 2.8686626000016986]	5.98	5.98	2.0	40hz	high_pain	46.5			sub-pilot020	250	20	44	46.5	COM11	COM7	COM3	2023-11-17_13h08.05.879	001-EEG_SVR_Officel	2022.2.5	143.37575343989676		5.986000000000104	2_sub-pilot020_SVR_EEG_block5-6.protocol.csv	step15	2421	240.763	STIMULATE	46.5	46.4	46.5	46.5	46.7	15	1798.016
1801.33	0	900665	wait	20	4	0	4	0	7.0	0.0	7.0	0.0						1986.121324900003	1992.1222013000008	1992.1222013000008	2.0	['2', 'return']	[1.7762289000020246, 2.328337000002648]	5.99	5.63	3.0	controle	low_pain	44.0			sub-pilot020	250	20	44	46.5	COM11	COM7	COM3	2023-11-17_13h08.05.879	001-EEG_SVR_Officel	2022.2.5	143.37575343989676		9.917999999999893	2_sub-pilot020_SVR_EEG_block5-6.protocol.csv	step17	2639	262.35	STIMULATE	43.9	43.9	43.9	43.9	44.2	17	1819.603
1807.318	0	903659	CNhz	12	4	0	4	0	7.0	0.0	7.0	0.0						1986.121324900003	1992.1222013000008	1992.1222013000008	2.0	['2', 'return']	[1.7762289000020246, 2.328337000002648]	5.99	5.63	3.0	controle	low_pain	44.0			sub-pilot020	250	20	44	46.5	COM11	COM7	COM3	2023-11-17_13h08.05.879	001-EEG_SVR_Officel	2022.2.5	143.37575343989676		5.988000000000056	2_sub-pilot020_SVR_EEG_block5-6.protocol.csv	step17	2639	262.35	STIMULATE	43.9	43.9	43.9	43.9	44.2	17	1819.603
1813.7	0	906850	CN/Lo	11	4	0	4	0	7.0	0.0	7.0	0.0						1986.121324900003	1992.1222013000008	1992.1222013000008	2.0	['2', 'return']	[1.7762289000020246, 2.328337000002648]	5.99	5.63	3.0	controle	low_pain	44.0			sub-pilot020	250	20	44	46.5	COM11	COM7	COM3	2023-11-17_13h08.05.879	001-EEG_SVR_Officel	2022.2.5	143.37575343989676		5.632000000000062	2_sub-pilot020_SVR_EEG_block5-6.protocol.csv	step17	2639	262.35	STIMULATE	43.9	43.9	43.9	43.9	44.2	17	1819.603
1822.678	0	911339	wait	20	4	0	4	0	8.0	0.0	8.0	0.0						2007.471164900002	2014.187973400003	2014.187973400003	8.0	['8', 'return']	[3.550198899996758, 4.039271399997233]	6.71	5.77	0.0	20hz	high_pain	46.5			sub-pilot020	250	20	44	46.5	COM11	COM7	COM3	2023-11-17_13h08.05.879	001-EEG_SVR_Officel	2022.2.5	143.37575343989676		9.728000000000065	2_sub-pilot020_SVR_EEG_block5-6.protocol.csv	step19	2863	284.53	STIMULATE	46.5	46.4	46.5	46.5	46.8	19	1841.783
1829.384	0	914692	20hz	6	4	0	4	0	8.0	0.0	8.0	0.0						2007.471164900002	2014.187973400003	2014.187973400003	8.0	['8', 'return']	[3.550198899996758, 4.039271399997233]	6.71	5.77	0.0	20hz	high_pain	46.5			sub-pilot020	250	20	44	46.5	COM11	COM7	COM3	2023-11-17_13h08.05.879	001-EEG_SVR_Officel	2022.2.5	143.37575343989676		6.705999999999904	2_sub-pilot020_SVR_EEG_block5-6.protocol.csv	step19	2863	284.53	STIMULATE	46.5	46.4	46.5	46.5	46.8	19	1841.783
