onset	duration	sample	trial_type	value	block.thisRepN	block.thisTrialN	block.thisN	block.thisIndex	reps.thisRepN	reps.thisTrialN	reps.thisN	reps.thisIndex	afrec_start	rec_start	rec_start_egi	key_resp.keys	key_resp.rt	wait_time_text.started	wait_time_text.stopped	therm_loca_text.started	subResponse	keyResp.keys	keyResp.rt	ITI_wait	wait_trigger	loca_thermode	Hz_condition	temp_condition	temp_valeur	text.started	text.stopped	participant	brightness	num_part	low	high	com_svr	com_thermode	com_eeg	date	expName	psychopyVersion	frameRate	Unnamed: 39	distance_from_previous	file	step	index	time	type	temp1	temp2	temp3	temp4	temp5	step_num	time_sync
74.67	0	37335	wait	20	0	0	0	0	0.0	0.0	0.0	0.0	83.64216190000298	83.44328920001863	1700493929.3053918	p	74.43679140001768	158.11172620003344	164.46659850003198	164.46659850003198	8.5	['8', 'a', '5', 'return']	[3.996742500050459, 4.4833508000010625, 5.06708740000613, 6.036398700030986]	6.35	6.11	0.0	20hz	high_pain	46.0			sub-pilot021	250	21	44.5	46	COM11	COM7	COM3	2023-11-20_10h24.58.331	001-EEG_SVR_Officel	2022.2.5	143.95863204086615		74.67	0_sub-pilot021_SVR_EEG_block1-2.protocol.csv	step3	1291	128.96	STIMULATE	46.2	45.9	45.9	46.0	46.2	3	93.726
81.016	0	40508	20hz	6	0	0	0	0	0.0	0.0	0.0	0.0	83.64216190000298	83.44328920001863	1700493929.3053918	p	74.43679140001768	158.11172620003344	164.46659850003198	164.46659850003198	8.5	['8', 'a', '5', 'return']	[3.996742500050459, 4.4833508000010625, 5.06708740000613, 6.036398700030986]	6.35	6.11	0.0	20hz	high_pain	46.0			sub-pilot021	250	21	44.5	46	COM11	COM7	COM3	2023-11-20_10h24.58.331	001-EEG_SVR_Officel	2022.2.5	143.95863204086615		6.346000000000004	0_sub-pilot021_SVR_EEG_block1-2.protocol.csv	step3	1291	128.96	STIMULATE	46.2	45.9	45.9	46.0	46.2	3	93.726
87.88	0	43940	20/Hi	4	0	0	0	0	0.0	0.0	0.0	0.0	83.64216190000298	83.44328920001863	1700493929.3053918	p	74.43679140001768	158.11172620003344	164.46659850003198	164.46659850003198	8.5	['8', 'a', '5', 'return']	[3.996742500050459, 4.4833508000010625, 5.06708740000613, 6.036398700030986]	6.35	6.11	0.0	20hz	high_pain	46.0			sub-pilot021	250	21	44.5	46	COM11	COM7	COM3	2023-11-20_10h24.58.331	001-EEG_SVR_Officel	2022.2.5	143.95863204086615		6.11399999999999	0_sub-pilot021_SVR_EEG_block1-2.protocol.csv	step3	1291	128.96	STIMULATE	46.2	45.9	45.9	46.0	46.2	3	93.726
100.09	0	50045	wait	20	0	0	0	0	1.0	0.0	1.0	0.0						183.5315622999915	191.3588881000178	191.3588881000178	8.5	['8', 'a', '5', 'return']	[4.477982400043402, 5.021933200012427, 5.262820100004319, 5.94205160002457]	7.82	5.91	1.0	40hz	high_pain	46.0			sub-pilot021	250	21	44.5	46	COM11	COM7	COM3	2023-11-20_10h24.58.331	001-EEG_SVR_Officel	2022.2.5	143.95863204086615		12.960000000000008	0_sub-pilot021_SVR_EEG_block1-2.protocol.csv	step5	1560	155.674	STIMULATE	46.1	45.9	45.9	45.9	46.2	5	120.44
107.904	0	53952	40hz	9	0	0	0	0	1.0	0.0	1.0	0.0						183.5315622999915	191.3588881000178	191.3588881000178	8.5	['8', 'a', '5', 'return']	[4.477982400043402, 5.021933200012427, 5.262820100004319, 5.94205160002457]	7.82	5.91	1.0	40hz	high_pain	46.0			sub-pilot021	250	21	44.5	46	COM11	COM7	COM3	2023-11-20_10h24.58.331	001-EEG_SVR_Officel	2022.2.5	143.95863204086615		7.813999999999993	0_sub-pilot021_SVR_EEG_block1-2.protocol.csv	step5	1560	155.674	STIMULATE	46.1	45.9	45.9	45.9	46.2	5	120.44
114.564	0	57282	40/Hi	7	0	0	0	0	1.0	0.0	1.0	0.0						183.5315622999915	191.3588881000178	191.3588881000178	8.5	['8', 'a', '5', 'return']	[4.477982400043402, 5.021933200012427, 5.262820100004319, 5.94205160002457]	7.82	5.91	1.0	40hz	high_pain	46.0			sub-pilot021	250	21	44.5	46	COM11	COM7	COM3	2023-11-20_10h24.58.331	001-EEG_SVR_Officel	2022.2.5	143.95863204086615		5.909999999999997	0_sub-pilot021_SVR_EEG_block1-2.protocol.csv	step5	1560	155.674	STIMULATE	46.1	45.9	45.9	45.9	46.2	5	120.44
126.878	0	63439	wait	20	0	0	0	0	2.0	0.0	2.0	0.0						210.31995760003335	217.1891130000004	217.1891130000004	8.5	['8', 'a', '5', 'return']	[3.545100999996066, 4.016918800014537, 4.2724557999754325, 4.960280800005421]	6.86	6.04	2.0	20hz	high_pain	46.0			sub-pilot021	250	21	44.5	46	COM11	COM7	COM3	2023-11-20_10h24.58.331	001-EEG_SVR_Officel	2022.2.5	143.95863204086615		13.064000000000007	0_sub-pilot021_SVR_EEG_block1-2.protocol.csv	step7	1822	181.628	STIMULATE	46.2	45.9	45.9	45.9	45.9	7	146.39399999999998
133.734	0	66867	20hz	6	0	0	0	0	2.0	0.0	2.0	0.0						210.31995760003335	217.1891130000004	217.1891130000004	8.5	['8', 'a', '5', 'return']	[3.545100999996066, 4.016918800014537, 4.2724557999754325, 4.960280800005421]	6.86	6.04	2.0	20hz	high_pain	46.0			sub-pilot021	250	21	44.5	46	COM11	COM7	COM3	2023-11-20_10h24.58.331	001-EEG_SVR_Officel	2022.2.5	143.95863204086615		6.856000000000009	0_sub-pilot021_SVR_EEG_block1-2.protocol.csv	step7	1822	181.628	STIMULATE	46.2	45.9	45.9	45.9	45.9	7	146.39399999999998
140.524	0	70262	20/Hi	4	0	0	0	0	2.0	0.0	2.0	0.0						210.31995760003335	217.1891130000004	217.1891130000004	8.5	['8', 'a', '5', 'return']	[3.545100999996066, 4.016918800014537, 4.2724557999754325, 4.960280800005421]	6.86	6.04	2.0	20hz	high_pain	46.0			sub-pilot021	250	21	44.5	46	COM11	COM7	COM3	2023-11-20_10h24.58.331	001-EEG_SVR_Officel	2022.2.5	143.95863204086615		6.039999999999992	0_sub-pilot021_SVR_EEG_block1-2.protocol.csv	step7	1822	181.628	STIMULATE	46.2	45.9	45.9	45.9	45.9	7	146.39399999999998
151.734	0	75867	wait	20	0	0	0	0	3.0	0.0	3.0	0.0						235.1767439999967	242.28863810002804	242.28863810002804	7.0	['7', 'return']	[3.6458673999877647, 4.549374800000805]	7.1	5.71	3.0	20hz	low_pain	44.5			sub-pilot021	250	21	44.5	46	COM11	COM7	COM3	2023-11-20_10h24.58.331	001-EEG_SVR_Officel	2022.2.5	143.95863204086615		11.960000000000008	0_sub-pilot021_SVR_EEG_block1-2.protocol.csv	step9	2072	206.459	STIMULATE	44.5	44.4	44.4	44.4	44.4	9	171.225
158.834	0	79417	20hz	6	0	0	0	0	3.0	0.0	3.0	0.0						235.1767439999967	242.28863810002804	242.28863810002804	7.0	['7', 'return']	[3.6458673999877647, 4.549374800000805]	7.1	5.71	3.0	20hz	low_pain	44.5			sub-pilot021	250	21	44.5	46	COM11	COM7	COM3	2023-11-20_10h24.58.331	001-EEG_SVR_Officel	2022.2.5	143.95863204086615		7.099999999999994	0_sub-pilot021_SVR_EEG_block1-2.protocol.csv	step9	2072	206.459	STIMULATE	44.5	44.4	44.4	44.4	44.4	9	171.225
165.298	0	82649	20/Lo	5	0	0	0	0	3.0	0.0	3.0	0.0						235.1767439999967	242.28863810002804	242.28863810002804	7.0	['7', 'return']	[3.6458673999877647, 4.549374800000805]	7.1	5.71	3.0	20hz	low_pain	44.5			sub-pilot021	250	21	44.5	46	COM11	COM7	COM3	2023-11-20_10h24.58.331	001-EEG_SVR_Officel	2022.2.5	143.95863204086615		5.713999999999999	0_sub-pilot021_SVR_EEG_block1-2.protocol.csv	step9	2072	206.459	STIMULATE	44.5	44.4	44.4	44.4	44.4	9	171.225
176.41	0	88205	wait	20	0	0	0	0	4.0	0.0	4.0	0.0						259.8524640999967	265.67341920000035	265.67341920000035	7.5	['7', 'a', '5', 'return']	[3.98026129999198, 4.596094999986235, 4.859414500009734, 5.8353076000348665]	5.81	6.35	0.0	10hz	high_pain	46.0			sub-pilot021	250	21	44.5	46	COM11	COM7	COM3	2023-11-20_10h24.58.331	001-EEG_SVR_Officel	2022.2.5	143.95863204086615		11.861999999999995	0_sub-pilot021_SVR_EEG_block1-2.protocol.csv	step11	2313	230.306	STIMULATE	46.1	45.9	45.9	45.9	46.2	11	195.072
182.22	0	91110	10hz	3	0	0	0	0	4.0	0.0	4.0	0.0						259.8524640999967	265.67341920000035	265.67341920000035	7.5	['7', 'a', '5', 'return']	[3.98026129999198, 4.596094999986235, 4.859414500009734, 5.8353076000348665]	5.81	6.35	0.0	10hz	high_pain	46.0			sub-pilot021	250	21	44.5	46	COM11	COM7	COM3	2023-11-20_10h24.58.331	001-EEG_SVR_Officel	2022.2.5	143.95863204086615		5.810000000000002	0_sub-pilot021_SVR_EEG_block1-2.protocol.csv	step11	2313	230.306	STIMULATE	46.1	45.9	45.9	45.9	46.2	11	195.072
189.324	0	94662	10/Hi	1	0	0	0	0	4.0	0.0	4.0	0.0						259.8524640999967	265.67341920000035	265.67341920000035	7.5	['7', 'a', '5', 'return']	[3.98026129999198, 4.596094999986235, 4.859414500009734, 5.8353076000348665]	5.81	6.35	0.0	10hz	high_pain	46.0			sub-pilot021	250	21	44.5	46	COM11	COM7	COM3	2023-11-20_10h24.58.331	001-EEG_SVR_Officel	2022.2.5	143.95863204086615		6.354000000000013	0_sub-pilot021_SVR_EEG_block1-2.protocol.csv	step11	2313	230.306	STIMULATE	46.1	45.9	45.9	45.9	46.2	11	195.072
201.088	0	100544	wait	20	0	0	0	0	5.0	0.0	5.0	0.0						284.5300001000287	290.3361323000281	290.3361323000281	6.5	['6', 'a', '5', 'return']	[3.853141500032507, 4.109595999994781, 4.381653800024651, 5.078005800023675]	5.8	5.38	1.0	20hz	low_pain	44.5			sub-pilot021	250	21	44.5	46	COM11	COM7	COM3	2023-11-20_10h24.58.331	001-EEG_SVR_Officel	2022.2.5	143.95863204086615		12.513999999999982	0_sub-pilot021_SVR_EEG_block1-2.protocol.csv	step13	2553	254.115	STIMULATE	44.6	44.4	44.4	44.4	44.7	13	218.881
206.882	0	103441	20hz	6	0	0	0	0	5.0	0.0	5.0	0.0						284.5300001000287	290.3361323000281	290.3361323000281	6.5	['6', 'a', '5', 'return']	[3.853141500032507, 4.109595999994781, 4.381653800024651, 5.078005800023675]	5.8	5.38	1.0	20hz	low_pain	44.5			sub-pilot021	250	21	44.5	46	COM11	COM7	COM3	2023-11-20_10h24.58.331	001-EEG_SVR_Officel	2022.2.5	143.95863204086615		5.794000000000011	0_sub-pilot021_SVR_EEG_block1-2.protocol.csv	step13	2553	254.115	STIMULATE	44.6	44.4	44.4	44.4	44.7	13	218.881
213.012	0	106506	20/Lo	5	0	0	0	0	5.0	0.0	5.0	0.0						284.5300001000287	290.3361323000281	290.3361323000281	6.5	['6', 'a', '5', 'return']	[3.853141500032507, 4.109595999994781, 4.381653800024651, 5.078005800023675]	5.8	5.38	1.0	20hz	low_pain	44.5			sub-pilot021	250	21	44.5	46	COM11	COM7	COM3	2023-11-20_10h24.58.331	001-EEG_SVR_Officel	2022.2.5	143.95863204086615		5.3799999999999955	0_sub-pilot021_SVR_EEG_block1-2.protocol.csv	step13	2553	254.115	STIMULATE	44.6	44.4	44.4	44.4	44.7	13	218.881
224.992	0	112496	wait	20	0	0	0	0	6.0	0.0	6.0	0.0						308.43559330003336	316.34673400002066	316.34673400002066	6.0	['6', 'return']	[4.723676300025545, 5.387760800018441]	7.9	6.35	2.0	controle	high_pain	46.0			sub-pilot021	250	21	44.5	46	COM11	COM7	COM3	2023-11-20_10h24.58.331	001-EEG_SVR_Officel	2022.2.5	143.95863204086615		12.72999999999999	0_sub-pilot021_SVR_EEG_block1-2.protocol.csv	step15	2825	281.118	STIMULATE	46.0	45.9	45.9	46.0	46.2	15	245.884
232.892	0	116446	CNhz	12	0	0	0	0	6.0	0.0	6.0	0.0						308.43559330003336	316.34673400002066	316.34673400002066	6.0	['6', 'return']	[4.723676300025545, 5.387760800018441]	7.9	6.35	2.0	controle	high_pain	46.0			sub-pilot021	250	21	44.5	46	COM11	COM7	COM3	2023-11-20_10h24.58.331	001-EEG_SVR_Officel	2022.2.5	143.95863204086615		7.900000000000006	0_sub-pilot021_SVR_EEG_block1-2.protocol.csv	step15	2825	281.118	STIMULATE	46.0	45.9	45.9	46.0	46.2	15	245.884
239.994	0	119997	CN/Hi	10	0	0	0	0	6.0	0.0	6.0	0.0						308.43559330003336	316.34673400002066	316.34673400002066	6.0	['6', 'return']	[4.723676300025545, 5.387760800018441]	7.9	6.35	2.0	controle	high_pain	46.0			sub-pilot021	250	21	44.5	46	COM11	COM7	COM3	2023-11-20_10h24.58.331	001-EEG_SVR_Officel	2022.2.5	143.95863204086615		6.352000000000004	0_sub-pilot021_SVR_EEG_block1-2.protocol.csv	step15	2825	281.118	STIMULATE	46.0	45.9	45.9	46.0	46.2	15	245.884
251.31	0	125655	wait	20	0	0	0	0	7.0	0.0	7.0	0.0						334.75182599999243	341.0444753000047	341.0444753000047	8.0	['8', 'return']	[4.410783100000117, 5.32241859997157]	6.28	6.16	3.0	40hz	high_pain	46.0			sub-pilot021	250	21	44.5	46	COM11	COM7	COM3	2023-11-20_10h24.58.331	001-EEG_SVR_Officel	2022.2.5	143.95863204086615		12.066000000000003	0_sub-pilot021_SVR_EEG_block1-2.protocol.csv	step17	3072	305.613	STIMULATE	46.0	45.9	45.9	45.9	46.1	17	270.379
257.59	0	128794	40hz	9	0	0	0	0	7.0	0.0	7.0	0.0						334.75182599999243	341.0444753000047	341.0444753000047	8.0	['8', 'return']	[4.410783100000117, 5.32241859997157]	6.28	6.16	3.0	40hz	high_pain	46.0			sub-pilot021	250	21	44.5	46	COM11	COM7	COM3	2023-11-20_10h24.58.331	001-EEG_SVR_Officel	2022.2.5	143.95863204086615		6.279999999999973	0_sub-pilot021_SVR_EEG_block1-2.protocol.csv	step17	3072	305.613	STIMULATE	46.0	45.9	45.9	45.9	46.1	17	270.379
264.506	0	132253	40/Hi	7	0	0	0	0	7.0	0.0	7.0	0.0						334.75182599999243	341.0444753000047	341.0444753000047	8.0	['8', 'return']	[4.410783100000117, 5.32241859997157]	6.28	6.16	3.0	40hz	high_pain	46.0			sub-pilot021	250	21	44.5	46	COM11	COM7	COM3	2023-11-20_10h24.58.331	001-EEG_SVR_Officel	2022.2.5	143.95863204086615		6.165999999999997	0_sub-pilot021_SVR_EEG_block1-2.protocol.csv	step17	3072	305.613	STIMULATE	46.0	45.9	45.9	45.9	46.1	17	270.379
275.936	0	137968	wait	20	0	0	0	0	8.0	0.0	8.0	0.0						359.3788590999902	364.6299080000026	364.6299080000026	3.0	['3', 'return']	[2.966963900020346, 3.6397146999952383]	5.24	5.32	0.0	20hz	low_pain	44.5			sub-pilot021	250	21	44.5	46	COM11	COM7	COM3	2023-11-20_10h24.58.331	001-EEG_SVR_Officel	2022.2.5	143.95863204086615		12.180000000000007	0_sub-pilot021_SVR_EEG_block1-2.protocol.csv	step19	3301	328.36	STIMULATE	44.6	44.4	44.4	44.5	44.6	19	293.126
281.176	0	140588	20hz	6	0	0	0	0	8.0	0.0	8.0	0.0						359.3788590999902	364.6299080000026	364.6299080000026	3.0	['3', 'return']	[2.966963900020346, 3.6397146999952383]	5.24	5.32	0.0	20hz	low_pain	44.5			sub-pilot021	250	21	44.5	46	COM11	COM7	COM3	2023-11-20_10h24.58.331	001-EEG_SVR_Officel	2022.2.5	143.95863204086615		5.240000000000009	0_sub-pilot021_SVR_EEG_block1-2.protocol.csv	step19	3301	328.36	STIMULATE	44.6	44.4	44.4	44.5	44.6	19	293.126
287.25	0	143625	20/Lo	5	0	0	0	0	8.0	0.0	8.0	0.0						359.3788590999902	364.6299080000026	364.6299080000026	3.0	['3', 'return']	[2.966963900020346, 3.6397146999952383]	5.24	5.32	0.0	20hz	low_pain	44.5			sub-pilot021	250	21	44.5	46	COM11	COM7	COM3	2023-11-20_10h24.58.331	001-EEG_SVR_Officel	2022.2.5	143.95863204086615		5.324000000000012	0_sub-pilot021_SVR_EEG_block1-2.protocol.csv	step19	3301	328.36	STIMULATE	44.6	44.4	44.4	44.5	44.6	19	293.126
297.842	0	148921	wait	20	0	0	0	0	9.0	0.0	9.0	0.0						381.2850113000022	386.4937172000064	386.4937172000064	6.0	['6', 'return']	[3.2480130999465473, 3.8312199999927543]	5.19	5.67	1.0	10hz	low_pain	44.5			sub-pilot021	250	21	44.5	46	COM11	COM7	COM3	2023-11-20_10h24.58.331	001-EEG_SVR_Officel	2022.2.5	143.95863204086615		11.341999999999985	0_sub-pilot021_SVR_EEG_block1-2.protocol.csv	step21	3525	350.594	STIMULATE	44.6	44.4	44.4	44.4	44.6	21	315.36
303.036	0	151518	10hz	3	0	0	0	0	9.0	0.0	9.0	0.0						381.2850113000022	386.4937172000064	386.4937172000064	6.0	['6', 'return']	[3.2480130999465473, 3.8312199999927543]	5.19	5.67	1.0	10hz	low_pain	44.5			sub-pilot021	250	21	44.5	46	COM11	COM7	COM3	2023-11-20_10h24.58.331	001-EEG_SVR_Officel	2022.2.5	143.95863204086615		5.194000000000017	0_sub-pilot021_SVR_EEG_block1-2.protocol.csv	step21	3525	350.594	STIMULATE	44.6	44.4	44.4	44.4	44.6	21	315.36
309.454	0	154727	10/Lo	2	0	0	0	0	9.0	0.0	9.0	0.0						381.2850113000022	386.4937172000064	386.4937172000064	6.0	['6', 'return']	[3.2480130999465473, 3.8312199999927543]	5.19	5.67	1.0	10hz	low_pain	44.5			sub-pilot021	250	21	44.5	46	COM11	COM7	COM3	2023-11-20_10h24.58.331	001-EEG_SVR_Officel	2022.2.5	143.95863204086615		5.668000000000006	0_sub-pilot021_SVR_EEG_block1-2.protocol.csv	step21	3525	350.594	STIMULATE	44.6	44.4	44.4	44.4	44.6	21	315.36
319.894	0	159947	wait	20	0	0	0	0	10.0	0.0	10.0	0.0						403.33604550000746	408.4477843000204	408.4477843000204	3.0	['3', 'return']	[3.1981568000046536, 3.8782835000311024]	5.1	5.42	2.0	10hz	low_pain	44.5			sub-pilot021	250	21	44.5	46	COM11	COM7	COM3	2023-11-20_10h24.58.331	001-EEG_SVR_Officel	2022.2.5	143.95863204086615		11.189999999999998	0_sub-pilot021_SVR_EEG_block1-2.protocol.csv	step23	3745	372.338	STIMULATE	44.5	44.4	44.4	44.4	44.5	23	337.10400000000004
324.994	0	162497	10hz	3	0	0	0	0	10.0	0.0	10.0	0.0						403.33604550000746	408.4477843000204	408.4477843000204	3.0	['3', 'return']	[3.1981568000046536, 3.8782835000311024]	5.1	5.42	2.0	10hz	low_pain	44.5			sub-pilot021	250	21	44.5	46	COM11	COM7	COM3	2023-11-20_10h24.58.331	001-EEG_SVR_Officel	2022.2.5	143.95863204086615		5.100000000000023	0_sub-pilot021_SVR_EEG_block1-2.protocol.csv	step23	3745	372.338	STIMULATE	44.5	44.4	44.4	44.4	44.5	23	337.10400000000004
331.166	0	165583	10/Lo	2	0	0	0	0	10.0	0.0	10.0	0.0						403.33604550000746	408.4477843000204	408.4477843000204	3.0	['3', 'return']	[3.1981568000046536, 3.8782835000311024]	5.1	5.42	2.0	10hz	low_pain	44.5			sub-pilot021	250	21	44.5	46	COM11	COM7	COM3	2023-11-20_10h24.58.331	001-EEG_SVR_Officel	2022.2.5	143.95863204086615		5.421999999999969	0_sub-pilot021_SVR_EEG_block1-2.protocol.csv	step23	3745	372.338	STIMULATE	44.5	44.4	44.4	44.4	44.5	23	337.10400000000004
341.904	0	170952	wait	20	0	0	0	0	11.0	0.0	11.0	0.0						425.3456792000216	432.2563298000023	432.2563298000023	6.0	['6', 'return']	[3.6365188999916427, 4.388076999981422]	6.9	5.42	3.0	10hz	high_pain	46.0			sub-pilot021	250	21	44.5	46	COM11	COM7	COM3	2023-11-20_10h24.58.331	001-EEG_SVR_Officel	2022.2.5	143.95863204086615		11.488	0_sub-pilot021_SVR_EEG_block1-2.protocol.csv	step25	3984	396.072	STIMULATE	46.0	45.9	45.9	45.9	46.1	25	360.83799999999997
348.802	0	174401	10hz	3	0	0	0	0	11.0	0.0	11.0	0.0						425.3456792000216	432.2563298000023	432.2563298000023	6.0	['6', 'return']	[3.6365188999916427, 4.388076999981422]	6.9	5.42	3.0	10hz	high_pain	46.0			sub-pilot021	250	21	44.5	46	COM11	COM7	COM3	2023-11-20_10h24.58.331	001-EEG_SVR_Officel	2022.2.5	143.95863204086615		6.898000000000025	0_sub-pilot021_SVR_EEG_block1-2.protocol.csv	step25	3984	396.072	STIMULATE	46.0	45.9	45.9	45.9	46.1	25	360.83799999999997
354.972	0	177486	10/Hi	1	0	0	0	0	11.0	0.0	11.0	0.0						425.3456792000216	432.2563298000023	432.2563298000023	6.0	['6', 'return']	[3.6365188999916427, 4.388076999981422]	6.9	5.42	3.0	10hz	high_pain	46.0			sub-pilot021	250	21	44.5	46	COM11	COM7	COM3	2023-11-20_10h24.58.331	001-EEG_SVR_Officel	2022.2.5	143.95863204086615		5.419999999999959	0_sub-pilot021_SVR_EEG_block1-2.protocol.csv	step25	3984	396.072	STIMULATE	46.0	45.9	45.9	45.9	46.1	25	360.83799999999997
366.218	0	183109	wait	20	0	0	0	0	12.0	0.0	12.0	0.0						449.661659000034	454.9122092000325	454.9122092000325	4.5	['4', 'a', '5', 'return']	[3.3092510999995284, 4.069551799970213, 4.525843099982012, 5.493383000022732]	5.24	6.44	0.0	controle	low_pain	44.5			sub-pilot021	250	21	44.5	46	COM11	COM7	COM3	2023-11-20_10h24.58.331	001-EEG_SVR_Officel	2022.2.5	143.95863204086615		11.996000000000038	0_sub-pilot021_SVR_EEG_block1-2.protocol.csv	step27	4224	419.823	STIMULATE	44.6	44.4	44.4	44.4	44.7	27	384.58899999999994
371.456	0	185728	CNhz	12	0	0	0	0	12.0	0.0	12.0	0.0						449.661659000034	454.9122092000325	454.9122092000325	4.5	['4', 'a', '5', 'return']	[3.3092510999995284, 4.069551799970213, 4.525843099982012, 5.493383000022732]	5.24	6.44	0.0	controle	low_pain	44.5			sub-pilot021	250	21	44.5	46	COM11	COM7	COM3	2023-11-20_10h24.58.331	001-EEG_SVR_Officel	2022.2.5	143.95863204086615		5.2379999999999995	0_sub-pilot021_SVR_EEG_block1-2.protocol.csv	step27	4224	419.823	STIMULATE	44.6	44.4	44.4	44.4	44.7	27	384.58899999999994
378.65	0	189325	CN/Lo	11	0	0	0	0	12.0	0.0	12.0	0.0						449.661659000034	454.9122092000325	454.9122092000325	4.5	['4', 'a', '5', 'return']	[3.3092510999995284, 4.069551799970213, 4.525843099982012, 5.493383000022732]	5.24	6.44	0.0	controle	low_pain	44.5			sub-pilot021	250	21	44.5	46	COM11	COM7	COM3	2023-11-20_10h24.58.331	001-EEG_SVR_Officel	2022.2.5	143.95863204086615		6.44399999999996	0_sub-pilot021_SVR_EEG_block1-2.protocol.csv	step27	4224	419.823	STIMULATE	44.6	44.4	44.4	44.4	44.7	27	384.58899999999994
389.976	0	194988	wait	20	0	0	0	0	13.0	0.0	13.0	0.0						473.42104099999415	480.0675636000233	480.0675636000233	2.5	['2', 'a', '5', 'return']	[4.4580873000086285, 5.050082699977793, 5.305395299976226, 6.162765599961858]	6.64	5.29	1.0	controle	low_pain	44.5			sub-pilot021	250	21	44.5	46	COM11	COM7	COM3	2023-11-20_10h24.58.331	001-EEG_SVR_Officel	2022.2.5	143.95863204086615		12.076000000000022	0_sub-pilot021_SVR_EEG_block1-2.protocol.csv	step29	4465	443.727	STIMULATE	44.6	44.4	44.4	44.4	44.6	29	408.49299999999994
396.612	0	198306	CNhz	12	0	0	0	0	13.0	0.0	13.0	0.0						473.42104099999415	480.0675636000233	480.0675636000233	2.5	['2', 'a', '5', 'return']	[4.4580873000086285, 5.050082699977793, 5.305395299976226, 6.162765599961858]	6.64	5.29	1.0	controle	low_pain	44.5			sub-pilot021	250	21	44.5	46	COM11	COM7	COM3	2023-11-20_10h24.58.331	001-EEG_SVR_Officel	2022.2.5	143.95863204086615		6.636000000000024	0_sub-pilot021_SVR_EEG_block1-2.protocol.csv	step29	4465	443.727	STIMULATE	44.6	44.4	44.4	44.4	44.6	29	408.49299999999994
402.652	0	201326	CN/Lo	11	0	0	0	0	13.0	0.0	13.0	0.0						473.42104099999415	480.0675636000233	480.0675636000233	2.5	['2', 'a', '5', 'return']	[4.4580873000086285, 5.050082699977793, 5.305395299976226, 6.162765599961858]	6.64	5.29	1.0	controle	low_pain	44.5			sub-pilot021	250	21	44.5	46	COM11	COM7	COM3	2023-11-20_10h24.58.331	001-EEG_SVR_Officel	2022.2.5	143.95863204086615		5.289999999999964	0_sub-pilot021_SVR_EEG_block1-2.protocol.csv	step29	4465	443.727	STIMULATE	44.6	44.4	44.4	44.4	44.6	29	408.49299999999994
415.8	0	207900	wait	20	0	0	0	0	14.0	0.0	14.0	0.0						499.2430202999967	506.9112341	506.9112341	8.0	['8', 'return']	[3.774540500016883, 4.5419498000410385]	7.66	5.36	2.0	10hz	high_pain	46.0			sub-pilot021	250	21	44.5	46	COM11	COM7	COM3	2023-11-20_10h24.58.331	001-EEG_SVR_Officel	2022.2.5	143.95863204086615		13.898000000000025	0_sub-pilot021_SVR_EEG_block1-2.protocol.csv	step31	4737	470.735	STIMULATE	46.1	45.9	45.9	45.9	46.1	31	435.501
423.456	0	211728	10hz	3	0	0	0	0	14.0	0.0	14.0	0.0						499.2430202999967	506.9112341	506.9112341	8.0	['8', 'return']	[3.774540500016883, 4.5419498000410385]	7.66	5.36	2.0	10hz	high_pain	46.0			sub-pilot021	250	21	44.5	46	COM11	COM7	COM3	2023-11-20_10h24.58.331	001-EEG_SVR_Officel	2022.2.5	143.95863204086615		7.656000000000006	0_sub-pilot021_SVR_EEG_block1-2.protocol.csv	step31	4737	470.735	STIMULATE	46.1	45.9	45.9	45.9	46.1	31	435.501
429.566	0	214783	10/Hi	1	0	0	0	0	14.0	0.0	14.0	0.0						499.2430202999967	506.9112341	506.9112341	8.0	['8', 'return']	[3.774540500016883, 4.5419498000410385]	7.66	5.36	2.0	10hz	high_pain	46.0			sub-pilot021	250	21	44.5	46	COM11	COM7	COM3	2023-11-20_10h24.58.331	001-EEG_SVR_Officel	2022.2.5	143.95863204086615		5.359999999999957	0_sub-pilot021_SVR_EEG_block1-2.protocol.csv	step31	4737	470.735	STIMULATE	46.1	45.9	45.9	45.9	46.1	31	435.501
441.018	0	220509	wait	20	0	0	0	0	15.0	0.0	15.0	0.0						524.4613146000193	530.3236693000072	530.3236693000072	4.0	['4', 'return']	[4.258582100039348, 6.442201500001829]	5.85	5.98	3.0	40hz	low_pain	44.5			sub-pilot021	250	21	44.5	46	COM11	COM7	COM3	2023-11-20_10h24.58.331	001-EEG_SVR_Officel	2022.2.5	143.95863204086615		12.201999999999998	0_sub-pilot021_SVR_EEG_block1-2.protocol.csv	step33	4979	494.766	STIMULATE	44.5	44.4	44.4	44.4	44.5	33	459.53200000000004
446.868	0	223434	40hz	9	0	0	0	0	15.0	0.0	15.0	0.0						524.4613146000193	530.3236693000072	530.3236693000072	4.0	['4', 'return']	[4.258582100039348, 6.442201500001829]	5.85	5.98	3.0	40hz	low_pain	44.5			sub-pilot021	250	21	44.5	46	COM11	COM7	COM3	2023-11-20_10h24.58.331	001-EEG_SVR_Officel	2022.2.5	143.95863204086615		5.850000000000023	0_sub-pilot021_SVR_EEG_block1-2.protocol.csv	step33	4979	494.766	STIMULATE	44.5	44.4	44.4	44.4	44.5	33	459.53200000000004
453.596	0	226798	40/Lo	8	0	0	0	0	15.0	0.0	15.0	0.0						524.4613146000193	530.3236693000072	530.3236693000072	4.0	['4', 'return']	[4.258582100039348, 6.442201500001829]	5.85	5.98	3.0	40hz	low_pain	44.5			sub-pilot021	250	21	44.5	46	COM11	COM7	COM3	2023-11-20_10h24.58.331	001-EEG_SVR_Officel	2022.2.5	143.95863204086615		5.978000000000009	0_sub-pilot021_SVR_EEG_block1-2.protocol.csv	step33	4979	494.766	STIMULATE	44.5	44.4	44.4	44.4	44.5	33	459.53200000000004
500.116	0	250058	wait	20	1	0	1	0	0.0	0.0	0.0	0.0				p	1.0124560000258498	583.5594407999888	589.080807099992	589.080807099992	2.5	['2', 'a', '5', 'return']	[3.3975092999753542, 3.8930116000119597, 4.260961799998768, 4.997963899979368]	5.51	5.34	0.0	40hz	low_pain	44.5			sub-pilot021	250	21	44.5	46	COM11	COM7	COM3	2023-11-20_10h24.58.331	001-EEG_SVR_Officel	2022.2.5	143.95863204086615		47.26999999999998	0_sub-pilot021_SVR_EEG_block1-2.protocol.csv	step35	5562	552.908	STIMULATE	44.7	44.6	44.4	44.4	44.6	35	517.646
505.626	0	252813	40hz	9	1	0	1	0	0.0	0.0	0.0	0.0				p	1.0124560000258498	583.5594407999888	589.080807099992	589.080807099992	2.5	['2', 'a', '5', 'return']	[3.3975092999753542, 3.8930116000119597, 4.260961799998768, 4.997963899979368]	5.51	5.34	0.0	40hz	low_pain	44.5			sub-pilot021	250	21	44.5	46	COM11	COM7	COM3	2023-11-20_10h24.58.331	001-EEG_SVR_Officel	2022.2.5	143.95863204086615		5.509999999999991	0_sub-pilot021_SVR_EEG_block1-2.protocol.csv	step35	5562	552.908	STIMULATE	44.7	44.6	44.4	44.4	44.6	35	517.646
511.714	0	255857	40/Lo	8	1	0	1	0	0.0	0.0	0.0	0.0				p	1.0124560000258498	583.5594407999888	589.080807099992	589.080807099992	2.5	['2', 'a', '5', 'return']	[3.3975092999753542, 3.8930116000119597, 4.260961799998768, 4.997963899979368]	5.51	5.34	0.0	40hz	low_pain	44.5			sub-pilot021	250	21	44.5	46	COM11	COM7	COM3	2023-11-20_10h24.58.331	001-EEG_SVR_Officel	2022.2.5	143.95863204086615		5.338000000000022	0_sub-pilot021_SVR_EEG_block1-2.protocol.csv	step35	5562	552.908	STIMULATE	44.7	44.6	44.4	44.4	44.6	35	517.646
523.652	0	261826	wait	20	1	0	1	0	1.0	0.0	1.0	0.0						607.09699250001	613.7637678000028	613.7637678000028	8.5	['8', 'a', '5', 'return']	[3.608871200005524, 4.049545300018508, 4.36269270000048, 5.001389300043229]	6.66	6.05	1.0	controle	high_pain	46.0			sub-pilot021	250	21	44.5	46	COM11	COM7	COM3	2023-11-20_10h24.58.331	001-EEG_SVR_Officel	2022.2.5	143.95863204086615		12.688000000000045	0_sub-pilot021_SVR_EEG_block1-2.protocol.csv	step37	5818	578.293	STIMULATE	46.0	45.9	45.9	45.9	46.2	37	543.031
530.308	0	265154	CNhz	12	1	0	1	0	1.0	0.0	1.0	0.0						607.09699250001	613.7637678000028	613.7637678000028	8.5	['8', 'a', '5', 'return']	[3.608871200005524, 4.049545300018508, 4.36269270000048, 5.001389300043229]	6.66	6.05	1.0	controle	high_pain	46.0			sub-pilot021	250	21	44.5	46	COM11	COM7	COM3	2023-11-20_10h24.58.331	001-EEG_SVR_Officel	2022.2.5	143.95863204086615		6.655999999999949	0_sub-pilot021_SVR_EEG_block1-2.protocol.csv	step37	5818	578.293	STIMULATE	46.0	45.9	45.9	45.9	46.2	37	543.031
537.106	0	268553	CN/Hi	10	1	0	1	0	1.0	0.0	1.0	0.0						607.09699250001	613.7637678000028	613.7637678000028	8.5	['8', 'a', '5', 'return']	[3.608871200005524, 4.049545300018508, 4.36269270000048, 5.001389300043229]	6.66	6.05	1.0	controle	high_pain	46.0			sub-pilot021	250	21	44.5	46	COM11	COM7	COM3	2023-11-20_10h24.58.331	001-EEG_SVR_Officel	2022.2.5	143.95863204086615		6.048000000000002	0_sub-pilot021_SVR_EEG_block1-2.protocol.csv	step37	5818	578.293	STIMULATE	46.0	45.9	45.9	45.9	46.2	37	543.031
548.336	0	274168	wait	20	1	0	1	0	2.0	0.0	2.0	0.0						631.7799153000233	637.6215214999975	637.6215214999975	1.0	['1', 'return']	[4.352428600017447, 5.2394480999791995]	5.83	6.11	2.0	20hz	low_pain	44.5			sub-pilot021	250	21	44.5	46	COM11	COM7	COM3	2023-11-20_10h24.58.331	001-EEG_SVR_Officel	2022.2.5	143.95863204086615		11.980000000000018	0_sub-pilot021_SVR_EEG_block1-2.protocol.csv	step39	6059	602.193	STIMULATE	44.5	44.4	44.4	44.4	44.6	39	566.931
554.166	0	277083	20hz	6	1	0	1	0	2.0	0.0	2.0	0.0						631.7799153000233	637.6215214999975	637.6215214999975	1.0	['1', 'return']	[4.352428600017447, 5.2394480999791995]	5.83	6.11	2.0	20hz	low_pain	44.5			sub-pilot021	250	21	44.5	46	COM11	COM7	COM3	2023-11-20_10h24.58.331	001-EEG_SVR_Officel	2022.2.5	143.95863204086615		5.830000000000041	0_sub-pilot021_SVR_EEG_block1-2.protocol.csv	step39	6059	602.193	STIMULATE	44.5	44.4	44.4	44.4	44.6	39	566.931
561.026	0	280513	20/Lo	5	1	0	1	0	2.0	0.0	2.0	0.0						631.7799153000233	637.6215214999975	637.6215214999975	1.0	['1', 'return']	[4.352428600017447, 5.2394480999791995]	5.83	6.11	2.0	20hz	low_pain	44.5			sub-pilot021	250	21	44.5	46	COM11	COM7	COM3	2023-11-20_10h24.58.331	001-EEG_SVR_Officel	2022.2.5	143.95863204086615		6.1099999999999	0_sub-pilot021_SVR_EEG_block1-2.protocol.csv	step39	6059	602.193	STIMULATE	44.5	44.4	44.4	44.4	44.6	39	566.931
572.436	0	286218	wait	20	1	0	1	0	3.0	0.0	3.0	0.0						655.8806333999964	662.4994481999893	662.4994481999893	7.0	['7', 'return']	[3.4342602000106126, 3.810948800004553]	6.61	6.14	3.0	controle	high_pain	46.0			sub-pilot021	250	21	44.5	46	COM11	COM7	COM3	2023-11-20_10h24.58.331	001-EEG_SVR_Officel	2022.2.5	143.95863204086615		12.160000000000082	0_sub-pilot021_SVR_EEG_block1-2.protocol.csv	step41	6310	627.031	STIMULATE	46.0	45.9	45.9	45.9	46.0	41	591.769
579.042	0	289521	CNhz	12	1	0	1	0	3.0	0.0	3.0	0.0						655.8806333999964	662.4994481999893	662.4994481999893	7.0	['7', 'return']	[3.4342602000106126, 3.810948800004553]	6.61	6.14	3.0	controle	high_pain	46.0			sub-pilot021	250	21	44.5	46	COM11	COM7	COM3	2023-11-20_10h24.58.331	001-EEG_SVR_Officel	2022.2.5	143.95863204086615		6.6059999999999945	0_sub-pilot021_SVR_EEG_block1-2.protocol.csv	step41	6310	627.031	STIMULATE	46.0	45.9	45.9	45.9	46.0	41	591.769
585.938	0	292969	CN/Hi	10	1	0	1	0	3.0	0.0	3.0	0.0						655.8806333999964	662.4994481999893	662.4994481999893	7.0	['7', 'return']	[3.4342602000106126, 3.810948800004553]	6.61	6.14	3.0	controle	high_pain	46.0			sub-pilot021	250	21	44.5	46	COM11	COM7	COM3	2023-11-20_10h24.58.331	001-EEG_SVR_Officel	2022.2.5	143.95863204086615		6.145999999999958	0_sub-pilot021_SVR_EEG_block1-2.protocol.csv	step41	6310	627.031	STIMULATE	46.0	45.9	45.9	45.9	46.0	41	591.769
595.884	0	297942	wait	20	1	0	1	0	4.0	0.0	4.0	0.0						679.327977500041	686.3079096000292	686.3079096000292	1.5	['1', 'a', '5', 'return']	[3.2175377999665216, 3.5454827999928966, 3.914363699965179, 4.794613099948037]	6.97	5.38	0.0	10hz	low_pain	44.5			sub-pilot021	250	21	44.5	46	COM11	COM7	COM3	2023-11-20_10h24.58.331	001-EEG_SVR_Officel	2022.2.5	143.95863204086615		10.696000000000026	0_sub-pilot021_SVR_EEG_block1-2.protocol.csv	step43	6543	650.12	STIMULATE	44.6	44.4	44.4	44.4	44.6	43	614.858
602.85	0	301425	10hz	3	1	0	1	0	4.0	0.0	4.0	0.0						679.327977500041	686.3079096000292	686.3079096000292	1.5	['1', 'a', '5', 'return']	[3.2175377999665216, 3.5454827999928966, 3.914363699965179, 4.794613099948037]	6.97	5.38	0.0	10hz	low_pain	44.5			sub-pilot021	250	21	44.5	46	COM11	COM7	COM3	2023-11-20_10h24.58.331	001-EEG_SVR_Officel	2022.2.5	143.95863204086615		6.966000000000008	0_sub-pilot021_SVR_EEG_block1-2.protocol.csv	step43	6543	650.12	STIMULATE	44.6	44.4	44.4	44.4	44.6	43	614.858
608.982	0	304491	10/Lo	2	1	0	1	0	4.0	0.0	4.0	0.0						679.327977500041	686.3079096000292	686.3079096000292	1.5	['1', 'a', '5', 'return']	[3.2175377999665216, 3.5454827999928966, 3.914363699965179, 4.794613099948037]	6.97	5.38	0.0	10hz	low_pain	44.5			sub-pilot021	250	21	44.5	46	COM11	COM7	COM3	2023-11-20_10h24.58.331	001-EEG_SVR_Officel	2022.2.5	143.95863204086615		5.381999999999948	0_sub-pilot021_SVR_EEG_block1-2.protocol.csv	step43	6543	650.12	STIMULATE	44.6	44.4	44.4	44.4	44.6	43	614.858
620.678	0	310339	wait	20	1	0	1	0	5.0	0.0	5.0	0.0						704.123250100005	710.3247518000426	710.3247518000426	7.0	['7', 'return']	[3.335938600008376, 4.001046199991833]	6.19	5.02	1.0	10hz	high_pain	46.0			sub-pilot021	250	21	44.5	46	COM11	COM7	COM3	2023-11-20_10h24.58.331	001-EEG_SVR_Officel	2022.2.5	143.95863204086615		12.446000000000026	0_sub-pilot021_SVR_EEG_block1-2.protocol.csv	step45	6781	673.741	STIMULATE	46.2	45.9	45.9	45.9	46.2	45	638.479
626.868	0	313434	10hz	3	1	0	1	0	5.0	0.0	5.0	0.0						704.123250100005	710.3247518000426	710.3247518000426	7.0	['7', 'return']	[3.335938600008376, 4.001046199991833]	6.19	5.02	1.0	10hz	high_pain	46.0			sub-pilot021	250	21	44.5	46	COM11	COM7	COM3	2023-11-20_10h24.58.331	001-EEG_SVR_Officel	2022.2.5	143.95863204086615		6.190000000000055	0_sub-pilot021_SVR_EEG_block1-2.protocol.csv	step45	6781	673.741	STIMULATE	46.2	45.9	45.9	45.9	46.2	45	638.479
632.638	0	316319	10/Hi	1	1	0	1	0	5.0	0.0	5.0	0.0						704.123250100005	710.3247518000426	710.3247518000426	7.0	['7', 'return']	[3.335938600008376, 4.001046199991833]	6.19	5.02	1.0	10hz	high_pain	46.0			sub-pilot021	250	21	44.5	46	COM11	COM7	COM3	2023-11-20_10h24.58.331	001-EEG_SVR_Officel	2022.2.5	143.95863204086615		5.019999999999982	0_sub-pilot021_SVR_EEG_block1-2.protocol.csv	step45	6781	673.741	STIMULATE	46.2	45.9	45.9	45.9	46.2	45	638.479
643.896	0	321948	wait	20	1	0	1	0	6.0	0.0	6.0	0.0						727.3406518000411	733.75815410004	733.75815410004	7.0	['7', 'return']	[3.3108617999823764, 3.783543400000781]	6.41	5.27	2.0	40hz	high_pain	46.0			sub-pilot021	250	21	44.5	46	COM11	COM7	COM3	2023-11-20_10h24.58.331	001-EEG_SVR_Officel	2022.2.5	143.95863204086615		12.007999999999925	0_sub-pilot021_SVR_EEG_block1-2.protocol.csv	step47	7021	697.546	STIMULATE	46.2	45.9	45.9	45.9	46.1	47	662.2840000000001
650.3	0	325150	40hz	9	1	0	1	0	6.0	0.0	6.0	0.0						727.3406518000411	733.75815410004	733.75815410004	7.0	['7', 'return']	[3.3108617999823764, 3.783543400000781]	6.41	5.27	2.0	40hz	high_pain	46.0			sub-pilot021	250	21	44.5	46	COM11	COM7	COM3	2023-11-20_10h24.58.331	001-EEG_SVR_Officel	2022.2.5	143.95863204086615		6.403999999999996	0_sub-pilot021_SVR_EEG_block1-2.protocol.csv	step47	7021	697.546	STIMULATE	46.2	45.9	45.9	45.9	46.1	47	662.2840000000001
656.32	0	328160	40/Hi	7	1	0	1	0	6.0	0.0	6.0	0.0						727.3406518000411	733.75815410004	733.75815410004	7.0	['7', 'return']	[3.3108617999823764, 3.783543400000781]	6.41	5.27	2.0	40hz	high_pain	46.0			sub-pilot021	250	21	44.5	46	COM11	COM7	COM3	2023-11-20_10h24.58.331	001-EEG_SVR_Officel	2022.2.5	143.95863204086615		5.2700000000000955	0_sub-pilot021_SVR_EEG_block1-2.protocol.csv	step47	7021	697.546	STIMULATE	46.2	45.9	45.9	45.9	46.1	47	662.2840000000001
667.112	0	333556	wait	20	1	0	1	0	7.0	0.0	7.0	0.0						750.5588366000447	758.275105400011	758.275105400011	5.5	['5', 'a', '5', 'return']	[3.202321299992036, 3.619174399995245, 3.8423273999942467, 4.354639999975916]	7.71	5.97	3.0	10hz	low_pain	44.5			sub-pilot021	250	21	44.5	46	COM11	COM7	COM3	2023-11-20_10h24.58.331	001-EEG_SVR_Officel	2022.2.5	143.95863204086615		11.541999999999916	0_sub-pilot021_SVR_EEG_block1-2.protocol.csv	step49	7274	722.692	STIMULATE	44.5	44.4	44.4	44.4	44.4	49	687.4300000000001
674.818	0	337409	10hz	3	1	0	1	0	7.0	0.0	7.0	0.0						750.5588366000447	758.275105400011	758.275105400011	5.5	['5', 'a', '5', 'return']	[3.202321299992036, 3.619174399995245, 3.8423273999942467, 4.354639999975916]	7.71	5.97	3.0	10hz	low_pain	44.5			sub-pilot021	250	21	44.5	46	COM11	COM7	COM3	2023-11-20_10h24.58.331	001-EEG_SVR_Officel	2022.2.5	143.95863204086615		7.706000000000017	0_sub-pilot021_SVR_EEG_block1-2.protocol.csv	step49	7274	722.692	STIMULATE	44.5	44.4	44.4	44.4	44.4	49	687.4300000000001
681.538	0	340769	10/Lo	2	1	0	1	0	7.0	0.0	7.0	0.0						750.5588366000447	758.275105400011	758.275105400011	5.5	['5', 'a', '5', 'return']	[3.202321299992036, 3.619174399995245, 3.8423273999942467, 4.354639999975916]	7.71	5.97	3.0	10hz	low_pain	44.5			sub-pilot021	250	21	44.5	46	COM11	COM7	COM3	2023-11-20_10h24.58.331	001-EEG_SVR_Officel	2022.2.5	143.95863204086615		5.970000000000027	0_sub-pilot021_SVR_EEG_block1-2.protocol.csv	step49	7274	722.692	STIMULATE	44.5	44.4	44.4	44.4	44.4	49	687.4300000000001
692.198	0	346099	wait	20	1	0	1	0	8.0	0.0	8.0	0.0						775.6451271999977	783.0766467000358	783.0766467000358	7.0	['7', 'return']	[3.3136101000127383, 3.6652286000316963]	7.42	6.23	0.0	controle	high_pain	46.0			sub-pilot021	250	21	44.5	46	COM11	COM7	COM3	2023-11-20_10h24.58.331	001-EEG_SVR_Officel	2022.2.5	143.95863204086615		11.409999999999968	0_sub-pilot021_SVR_EEG_block1-2.protocol.csv	step51	7527	747.739	STIMULATE	46.2	45.9	45.9	46.0	46.2	51	712.4770000000001
699.618	0	349809	CNhz	12	1	0	1	0	8.0	0.0	8.0	0.0						775.6451271999977	783.0766467000358	783.0766467000358	7.0	['7', 'return']	[3.3136101000127383, 3.6652286000316963]	7.42	6.23	0.0	controle	high_pain	46.0			sub-pilot021	250	21	44.5	46	COM11	COM7	COM3	2023-11-20_10h24.58.331	001-EEG_SVR_Officel	2022.2.5	143.95863204086615		7.420000000000073	0_sub-pilot021_SVR_EEG_block1-2.protocol.csv	step51	7527	747.739	STIMULATE	46.2	45.9	45.9	46.0	46.2	51	712.4770000000001
706.602	0	353301	CN/Hi	10	1	0	1	0	8.0	0.0	8.0	0.0						775.6451271999977	783.0766467000358	783.0766467000358	7.0	['7', 'return']	[3.3136101000127383, 3.6652286000316963]	7.42	6.23	0.0	controle	high_pain	46.0			sub-pilot021	250	21	44.5	46	COM11	COM7	COM3	2023-11-20_10h24.58.331	001-EEG_SVR_Officel	2022.2.5	143.95863204086615		6.233999999999924	0_sub-pilot021_SVR_EEG_block1-2.protocol.csv	step51	7527	747.739	STIMULATE	46.2	45.9	45.9	46.0	46.2	51	712.4770000000001
716.314	0	358157	wait	20	1	0	1	0	9.0	0.0	9.0	0.0						799.7592027999926	806.461408000032	806.461408000032	4.5	['4', 'a', '5', 'return']	[3.560257199977059, 3.903633699985221, 4.095809399965219, 4.688306599971838]	6.69	6.2	1.0	40hz	low_pain	44.5			sub-pilot021	250	21	44.5	46	COM11	COM7	COM3	2023-11-20_10h24.58.331	001-EEG_SVR_Officel	2022.2.5	143.95863204086615		10.461999999999989	0_sub-pilot021_SVR_EEG_block1-2.protocol.csv	step53	7762	771.12	STIMULATE	44.5	44.4	44.4	44.4	44.7	53	735.858
723.004	0	361502	40hz	9	1	0	1	0	9.0	0.0	9.0	0.0						799.7592027999926	806.461408000032	806.461408000032	4.5	['4', 'a', '5', 'return']	[3.560257199977059, 3.903633699985221, 4.095809399965219, 4.688306599971838]	6.69	6.2	1.0	40hz	low_pain	44.5			sub-pilot021	250	21	44.5	46	COM11	COM7	COM3	2023-11-20_10h24.58.331	001-EEG_SVR_Officel	2022.2.5	143.95863204086615		6.690000000000055	0_sub-pilot021_SVR_EEG_block1-2.protocol.csv	step53	7762	771.12	STIMULATE	44.5	44.4	44.4	44.4	44.7	53	735.858
729.954	0	364977	40/Lo	8	1	0	1	0	9.0	0.0	9.0	0.0						799.7592027999926	806.461408000032	806.461408000032	4.5	['4', 'a', '5', 'return']	[3.560257199977059, 3.903633699985221, 4.095809399965219, 4.688306599971838]	6.69	6.2	1.0	40hz	low_pain	44.5			sub-pilot021	250	21	44.5	46	COM11	COM7	COM3	2023-11-20_10h24.58.331	001-EEG_SVR_Officel	2022.2.5	143.95863204086615		6.199999999999932	0_sub-pilot021_SVR_EEG_block1-2.protocol.csv	step53	7762	771.12	STIMULATE	44.5	44.4	44.4	44.4	44.7	53	735.858
740.726	0	370363	wait	20	1	0	1	0	10.0	0.0	10.0	0.0						824.1718472000211	829.9642296000384	829.9642296000384	2.5	['2', 'a', '5', 'return']	[2.7529153999639675, 3.0251957000000402, 3.3852320999721996, 4.26552829996217]	5.78	5.11	2.0	40hz	low_pain	44.5			sub-pilot021	250	21	44.5	46	COM11	COM7	COM3	2023-11-20_10h24.58.331	001-EEG_SVR_Officel	2022.2.5	143.95863204086615		11.522000000000048	0_sub-pilot021_SVR_EEG_block1-2.protocol.csv	step55	7986	793.632	STIMULATE	44.5	44.4	44.4	44.4	44.6	55	758.3699999999999
746.506	0	373253	40hz	9	1	0	1	0	10.0	0.0	10.0	0.0						824.1718472000211	829.9642296000384	829.9642296000384	2.5	['2', 'a', '5', 'return']	[2.7529153999639675, 3.0251957000000402, 3.3852320999721996, 4.26552829996217]	5.78	5.11	2.0	40hz	low_pain	44.5			sub-pilot021	250	21	44.5	46	COM11	COM7	COM3	2023-11-20_10h24.58.331	001-EEG_SVR_Officel	2022.2.5	143.95863204086615		5.779999999999973	0_sub-pilot021_SVR_EEG_block1-2.protocol.csv	step55	7986	793.632	STIMULATE	44.5	44.4	44.4	44.4	44.6	55	758.3699999999999
752.366	0	376183	40/Lo	8	1	0	1	0	10.0	0.0	10.0	0.0						824.1718472000211	829.9642296000384	829.9642296000384	2.5	['2', 'a', '5', 'return']	[2.7529153999639675, 3.0251957000000402, 3.3852320999721996, 4.26552829996217]	5.78	5.11	2.0	40hz	low_pain	44.5			sub-pilot021	250	21	44.5	46	COM11	COM7	COM3	2023-11-20_10h24.58.331	001-EEG_SVR_Officel	2022.2.5	143.95863204086615		5.110000000000014	0_sub-pilot021_SVR_EEG_block1-2.protocol.csv	step55	7986	793.632	STIMULATE	44.5	44.4	44.4	44.4	44.6	55	758.3699999999999
763.806	0	381903	wait	20	1	0	1	0	11.0	0.0	11.0	0.0						847.251126600022	852.2933778000297	852.2933778000297	5.5	['5', 'a', '5', 'return']	[3.657091800007038, 4.0647454999852926, 4.368393099983223, 5.313507699989714]	5.03	5.96	3.0	controle	low_pain	44.5			sub-pilot021	250	21	44.5	46	COM11	COM7	COM3	2023-11-20_10h24.58.331	001-EEG_SVR_Officel	2022.2.5	143.95863204086615		12.190000000000055	0_sub-pilot021_SVR_EEG_block1-2.protocol.csv	step57	8211	816.711	STIMULATE	44.4	44.4	44.4	44.4	44.5	57	781.4490000000001
768.836	0	384418	CNhz	12	1	0	1	0	11.0	0.0	11.0	0.0						847.251126600022	852.2933778000297	852.2933778000297	5.5	['5', 'a', '5', 'return']	[3.657091800007038, 4.0647454999852926, 4.368393099983223, 5.313507699989714]	5.03	5.96	3.0	controle	low_pain	44.5			sub-pilot021	250	21	44.5	46	COM11	COM7	COM3	2023-11-20_10h24.58.331	001-EEG_SVR_Officel	2022.2.5	143.95863204086615		5.029999999999973	0_sub-pilot021_SVR_EEG_block1-2.protocol.csv	step57	8211	816.711	STIMULATE	44.4	44.4	44.4	44.4	44.5	57	781.4490000000001
775.548	0	387774	CN/Lo	11	1	0	1	0	11.0	0.0	11.0	0.0						847.251126600022	852.2933778000297	852.2933778000297	5.5	['5', 'a', '5', 'return']	[3.657091800007038, 4.0647454999852926, 4.368393099983223, 5.313507699989714]	5.03	5.96	3.0	controle	low_pain	44.5			sub-pilot021	250	21	44.5	46	COM11	COM7	COM3	2023-11-20_10h24.58.331	001-EEG_SVR_Officel	2022.2.5	143.95863204086615		5.961999999999989	0_sub-pilot021_SVR_EEG_block1-2.protocol.csv	step57	8211	816.711	STIMULATE	44.4	44.4	44.4	44.4	44.5	57	781.4490000000001
787.176	0	393588	wait	20	1	0	1	0	12.0	0.0	12.0	0.0						870.6219748000149	876.6018877000315	876.6018877000315	6.5	['6', 'a', '5', 'return']	[2.8922495000297204, 3.355262800003402, 3.6280865000444464, 4.676283600041643]	5.97	5.24	0.0	40hz	high_pain	46.0			sub-pilot021	250	21	44.5	46	COM11	COM7	COM3	2023-11-20_10h24.58.331	001-EEG_SVR_Officel	2022.2.5	143.95863204086615		12.378000000000043	0_sub-pilot021_SVR_EEG_block1-2.protocol.csv	step59	8439	840.348	STIMULATE	46.1	45.9	45.9	46.0	46.1	59	805.086
793.144	0	396572	40hz	9	1	0	1	0	12.0	0.0	12.0	0.0						870.6219748000149	876.6018877000315	876.6018877000315	6.5	['6', 'a', '5', 'return']	[2.8922495000297204, 3.355262800003402, 3.6280865000444464, 4.676283600041643]	5.97	5.24	0.0	40hz	high_pain	46.0			sub-pilot021	250	21	44.5	46	COM11	COM7	COM3	2023-11-20_10h24.58.331	001-EEG_SVR_Officel	2022.2.5	143.95863204086615		5.967999999999961	0_sub-pilot021_SVR_EEG_block1-2.protocol.csv	step59	8439	840.348	STIMULATE	46.1	45.9	45.9	46.0	46.1	59	805.086
799.134	0	399567	40/Hi	7	1	0	1	0	12.0	0.0	12.0	0.0						870.6219748000149	876.6018877000315	876.6018877000315	6.5	['6', 'a', '5', 'return']	[2.8922495000297204, 3.355262800003402, 3.6280865000444464, 4.676283600041643]	5.97	5.24	0.0	40hz	high_pain	46.0			sub-pilot021	250	21	44.5	46	COM11	COM7	COM3	2023-11-20_10h24.58.331	001-EEG_SVR_Officel	2022.2.5	143.95863204086615		5.240000000000009	0_sub-pilot021_SVR_EEG_block1-2.protocol.csv	step59	8439	840.348	STIMULATE	46.1	45.9	45.9	46.0	46.1	59	805.086
810.852	0	405426	wait	20	1	0	1	0	13.0	0.0	13.0	0.0						894.2989227999933	900.5006241000374	900.5006241000374	9.0	['9', 'return']	[3.0171776000061072, 3.4979367000050843]	6.19	6.09	1.0	20hz	high_pain	46.0			sub-pilot021	250	21	44.5	46	COM11	COM7	COM3	2023-11-20_10h24.58.331	001-EEG_SVR_Officel	2022.2.5	143.95863204086615		12.467999999999961	0_sub-pilot021_SVR_EEG_block1-2.protocol.csv	step61	8676	865.123	STIMULATE	46.2	45.9	45.9	45.9	46.2	61	829.8610000000001
817.042	0	408521	20hz	6	1	0	1	0	13.0	0.0	13.0	0.0						894.2989227999933	900.5006241000374	900.5006241000374	9.0	['9', 'return']	[3.0171776000061072, 3.4979367000050843]	6.19	6.09	1.0	20hz	high_pain	46.0			sub-pilot021	250	21	44.5	46	COM11	COM7	COM3	2023-11-20_10h24.58.331	001-EEG_SVR_Officel	2022.2.5	143.95863204086615		6.190000000000055	0_sub-pilot021_SVR_EEG_block1-2.protocol.csv	step61	8676	865.123	STIMULATE	46.2	45.9	45.9	45.9	46.2	61	829.8610000000001
823.882	0	411941	20/Hi	4	1	0	1	0	13.0	0.0	13.0	0.0						894.2989227999933	900.5006241000374	900.5006241000374	9.0	['9', 'return']	[3.0171776000061072, 3.4979367000050843]	6.19	6.09	1.0	20hz	high_pain	46.0			sub-pilot021	250	21	44.5	46	COM11	COM7	COM3	2023-11-20_10h24.58.331	001-EEG_SVR_Officel	2022.2.5	143.95863204086615		6.089999999999918	0_sub-pilot021_SVR_EEG_block1-2.protocol.csv	step61	8676	865.123	STIMULATE	46.2	45.9	45.9	45.9	46.2	61	829.8610000000001
833.564	0	416782	wait	20	1	0	1	0	14.0	0.0	14.0	0.0						917.009868299996	923.1770728999982	923.1770728999982	0.5	['0', 'a', '5', 'return']	[3.548504700011108, 4.028287500026636, 4.372310500009917, 5.07678380003199]	6.16	6.16	2.0	controle	low_pain	44.5			sub-pilot021	250	21	44.5	46	COM11	COM7	COM3	2023-11-20_10h24.58.331	001-EEG_SVR_Officel	2022.2.5	143.95863204086615		10.432000000000016	0_sub-pilot021_SVR_EEG_block1-2.protocol.csv	step63	8891	887.814	STIMULATE	44.6	44.4	44.4	44.4	44.5	63	852.5519999999999
839.72	0	419860	CNhz	12	1	0	1	0	14.0	0.0	14.0	0.0						917.009868299996	923.1770728999982	923.1770728999982	0.5	['0', 'a', '5', 'return']	[3.548504700011108, 4.028287500026636, 4.372310500009917, 5.07678380003199]	6.16	6.16	2.0	controle	low_pain	44.5			sub-pilot021	250	21	44.5	46	COM11	COM7	COM3	2023-11-20_10h24.58.331	001-EEG_SVR_Officel	2022.2.5	143.95863204086615		6.156000000000063	0_sub-pilot021_SVR_EEG_block1-2.protocol.csv	step63	8891	887.814	STIMULATE	44.6	44.4	44.4	44.4	44.5	63	852.5519999999999
846.628	0	423314	CN/Lo	11	1	0	1	0	14.0	0.0	14.0	0.0						917.009868299996	923.1770728999982	923.1770728999982	0.5	['0', 'a', '5', 'return']	[3.548504700011108, 4.028287500026636, 4.372310500009917, 5.07678380003199]	6.16	6.16	2.0	controle	low_pain	44.5			sub-pilot021	250	21	44.5	46	COM11	COM7	COM3	2023-11-20_10h24.58.331	001-EEG_SVR_Officel	2022.2.5	143.95863204086615		6.1580000000000155	0_sub-pilot021_SVR_EEG_block1-2.protocol.csv	step63	8891	887.814	STIMULATE	44.6	44.4	44.4	44.4	44.5	63	852.5519999999999
857.824	0	428912	wait	20	1	0	1	0	15.0	0.0	15.0	0.0						941.2698732000426	949.2010269000313	949.2010269000313	6.0	['6', 'return']	[3.9726918999804184, 4.5258538000052795]	7.92	5.71	3.0	20hz	high_pain	46.0			sub-pilot021	250	21	44.5	46	COM11	COM7	COM3	2023-11-20_10h24.58.331	001-EEG_SVR_Officel	2022.2.5	143.95863204086615		11.945999999999913	0_sub-pilot021_SVR_EEG_block1-2.protocol.csv	step65	9131	913.435	STIMULATE	46.0	45.9	45.9	45.9	46.0	65	878.173
865.742	0	432871	20hz	6	1	0	1	0	15.0	0.0	15.0	0.0						941.2698732000426	949.2010269000313	949.2010269000313	6.0	['6', 'return']	[3.9726918999804184, 4.5258538000052795]	7.92	5.71	3.0	20hz	high_pain	46.0			sub-pilot021	250	21	44.5	46	COM11	COM7	COM3	2023-11-20_10h24.58.331	001-EEG_SVR_Officel	2022.2.5	143.95863204086615		7.918000000000006	0_sub-pilot021_SVR_EEG_block1-2.protocol.csv	step65	9131	913.435	STIMULATE	46.0	45.9	45.9	45.9	46.0	65	878.173
872.206	0	436103	20/Hi	4	1	0	1	0	15.0	0.0	15.0	0.0						941.2698732000426	949.2010269000313	949.2010269000313	6.0	['6', 'return']	[3.9726918999804184, 4.5258538000052795]	7.92	5.71	3.0	20hz	high_pain	46.0			sub-pilot021	250	21	44.5	46	COM11	COM7	COM3	2023-11-20_10h24.58.331	001-EEG_SVR_Officel	2022.2.5	143.95863204086615		5.7140000000000555	0_sub-pilot021_SVR_EEG_block1-2.protocol.csv	step65	9131	913.435	STIMULATE	46.0	45.9	45.9	45.9	46.0	65	878.173
915.122	0	457561	wait	20	2	0	2	0	0.0	0.0	0.0	0.0				p	0.3730792999849655	998.5682937999954	1003.7145185000264	1003.7145185000264	4.0	['4', 'return']	[2.6749267000122927, 3.4199186000041664]	5.14	6.36	0.0	10hz	high_pain	46.0			sub-pilot021	250	21	44.5	46	COM11	COM7	COM3	2023-11-20_10h24.58.331	001-EEG_SVR_Officel	2022.2.5	143.95863204086615		43.66599999999994	1_sub-pilot021_SVR_EEG_block3-4.protocol.csv	step3	382	38.057	STIMULATE	46.1	45.9	45.9	45.9	46.1	3	933.181
920.254	0	460127	10hz	3	2	0	2	0	0.0	0.0	0.0	0.0				p	0.3730792999849655	998.5682937999954	1003.7145185000264	1003.7145185000264	4.0	['4', 'return']	[2.6749267000122927, 3.4199186000041664]	5.14	6.36	0.0	10hz	high_pain	46.0			sub-pilot021	250	21	44.5	46	COM11	COM7	COM3	2023-11-20_10h24.58.331	001-EEG_SVR_Officel	2022.2.5	143.95863204086615		5.132000000000062	1_sub-pilot021_SVR_EEG_block3-4.protocol.csv	step3	382	38.057	STIMULATE	46.1	45.9	45.9	45.9	46.1	3	933.181
927.366	0	463683	10/Hi	1	2	0	2	0	0.0	0.0	0.0	0.0				p	0.3730792999849655	998.5682937999954	1003.7145185000264	1003.7145185000264	4.0	['4', 'return']	[2.6749267000122927, 3.4199186000041664]	5.14	6.36	0.0	10hz	high_pain	46.0			sub-pilot021	250	21	44.5	46	COM11	COM7	COM3	2023-11-20_10h24.58.331	001-EEG_SVR_Officel	2022.2.5	143.95863204086615		6.361999999999966	1_sub-pilot021_SVR_EEG_block3-4.protocol.csv	step3	382	38.057	STIMULATE	46.1	45.9	45.9	45.9	46.1	3	933.181
936.698	0	468349	wait	20	2	0	2	0	1.0	0.0	1.0	0.0						1020.1467135000275	1025.259385799989	1025.259385799989	8.0	['8', 'return']	[3.458321899990551, 4.090335299959406]	5.1	5.3	1.0	40hz	high_pain	46.0			sub-pilot021	250	21	44.5	46	COM11	COM7	COM3	2023-11-20_10h24.58.331	001-EEG_SVR_Officel	2022.2.5	143.95863204086615		10.081999999999994	1_sub-pilot021_SVR_EEG_block3-4.protocol.csv	step5	589	58.553	STIMULATE	46.0	45.9	45.9	46.0	46.1	5	953.677
941.8	0	470900	40hz	9	2	0	2	0	1.0	0.0	1.0	0.0						1020.1467135000275	1025.259385799989	1025.259385799989	8.0	['8', 'return']	[3.458321899990551, 4.090335299959406]	5.1	5.3	1.0	40hz	high_pain	46.0			sub-pilot021	250	21	44.5	46	COM11	COM7	COM3	2023-11-20_10h24.58.331	001-EEG_SVR_Officel	2022.2.5	143.95863204086615		5.101999999999975	1_sub-pilot021_SVR_EEG_block3-4.protocol.csv	step5	589	58.553	STIMULATE	46.0	45.9	45.9	46.0	46.1	5	953.677
947.854	0	473927	40/Hi	7	2	0	2	0	1.0	0.0	1.0	0.0						1020.1467135000275	1025.259385799989	1025.259385799989	8.0	['8', 'return']	[3.458321899990551, 4.090335299959406]	5.1	5.3	1.0	40hz	high_pain	46.0			sub-pilot021	250	21	44.5	46	COM11	COM7	COM3	2023-11-20_10h24.58.331	001-EEG_SVR_Officel	2022.2.5	143.95863204086615		5.304000000000087	1_sub-pilot021_SVR_EEG_block3-4.protocol.csv	step5	589	58.553	STIMULATE	46.0	45.9	45.9	46.0	46.1	5	953.677
958.924	0	479462	wait	20	2	0	2	0	2.0	0.0	2.0	0.0						1042.3724516000366	1048.3735873000114	1048.3735873000114	4.0	['4', 'return']	[3.9523898999905214, 4.848350699990988]	5.99	5.63	2.0	controle	low_pain	44.5			sub-pilot021	250	21	44.5	46	COM11	COM7	COM3	2023-11-20_10h24.58.331	001-EEG_SVR_Officel	2022.2.5	143.95863204086615		11.819999999999936	1_sub-pilot021_SVR_EEG_block3-4.protocol.csv	step7	826	82.019	STIMULATE	44.6	44.4	44.4	44.4	44.6	7	977.143
964.914	0	482457	CNhz	12	2	0	2	0	2.0	0.0	2.0	0.0						1042.3724516000366	1048.3735873000114	1048.3735873000114	4.0	['4', 'return']	[3.9523898999905214, 4.848350699990988]	5.99	5.63	2.0	controle	low_pain	44.5			sub-pilot021	250	21	44.5	46	COM11	COM7	COM3	2023-11-20_10h24.58.331	001-EEG_SVR_Officel	2022.2.5	143.95863204086615		5.990000000000009	1_sub-pilot021_SVR_EEG_block3-4.protocol.csv	step7	826	82.019	STIMULATE	44.6	44.4	44.4	44.4	44.6	7	977.143
971.294	0	485647	CN/Lo	11	2	0	2	0	2.0	0.0	2.0	0.0						1042.3724516000366	1048.3735873000114	1048.3735873000114	4.0	['4', 'return']	[3.9523898999905214, 4.848350699990988]	5.99	5.63	2.0	controle	low_pain	44.5			sub-pilot021	250	21	44.5	46	COM11	COM7	COM3	2023-11-20_10h24.58.331	001-EEG_SVR_Officel	2022.2.5	143.95863204086615		5.6299999999999955	1_sub-pilot021_SVR_EEG_block3-4.protocol.csv	step7	826	82.019	STIMULATE	44.6	44.4	44.4	44.4	44.6	7	977.143
982.802	0	491401	wait	20	2	0	2	0	3.0	0.0	3.0	0.0						1066.2498912000449	1072.8619371000095	1072.8619371000095	7.0	['7', 'return']	[3.376727700000629, 3.928373200003989]	6.6	5.1	3.0	controle	high_pain	46.0			sub-pilot021	250	21	44.5	46	COM11	COM7	COM3	2023-11-20_10h24.58.331	001-EEG_SVR_Officel	2022.2.5	143.95863204086615		12.258000000000038	1_sub-pilot021_SVR_EEG_block3-4.protocol.csv	step9	1067	105.954	STIMULATE	46.0	45.9	45.9	45.9	46.0	9	1001.078
989.402	0	494701	CNhz	12	2	0	2	0	3.0	0.0	3.0	0.0						1066.2498912000449	1072.8619371000095	1072.8619371000095	7.0	['7', 'return']	[3.376727700000629, 3.928373200003989]	6.6	5.1	3.0	controle	high_pain	46.0			sub-pilot021	250	21	44.5	46	COM11	COM7	COM3	2023-11-20_10h24.58.331	001-EEG_SVR_Officel	2022.2.5	143.95863204086615		6.600000000000023	1_sub-pilot021_SVR_EEG_block3-4.protocol.csv	step9	1067	105.954	STIMULATE	46.0	45.9	45.9	45.9	46.0	9	1001.078
995.254	0	497627	CN/Hi	10	2	0	2	0	3.0	0.0	3.0	0.0						1066.2498912000449	1072.8619371000095	1072.8619371000095	7.0	['7', 'return']	[3.376727700000629, 3.928373200003989]	6.6	5.1	3.0	controle	high_pain	46.0			sub-pilot021	250	21	44.5	46	COM11	COM7	COM3	2023-11-20_10h24.58.331	001-EEG_SVR_Officel	2022.2.5	143.95863204086615		5.101999999999975	1_sub-pilot021_SVR_EEG_block3-4.protocol.csv	step9	1067	105.954	STIMULATE	46.0	45.9	45.9	45.9	46.0	9	1001.078
1006.36	0	503180	wait	20	2	0	2	0	4.0	0.0	4.0	0.0						1089.8083879000042	1095.3992952000117	1095.3992952000117	7.0	['7', 'return']	[2.998232900048606, 3.622565300029237]	5.58	5.16	0.0	20hz	high_pain	46.0			sub-pilot021	250	21	44.5	46	COM11	COM7	COM3	2023-11-20_10h24.58.331	001-EEG_SVR_Officel	2022.2.5	143.95863204086615		11.855999999999995	1_sub-pilot021_SVR_EEG_block3-4.protocol.csv	step11	1296	128.639	STIMULATE	46.1	45.9	45.9	46.0	46.2	11	1023.763
1011.938	0	505969	20hz	6	2	0	2	0	4.0	0.0	4.0	0.0						1089.8083879000042	1095.3992952000117	1095.3992952000117	7.0	['7', 'return']	[2.998232900048606, 3.622565300029237]	5.58	5.16	0.0	20hz	high_pain	46.0			sub-pilot021	250	21	44.5	46	COM11	COM7	COM3	2023-11-20_10h24.58.331	001-EEG_SVR_Officel	2022.2.5	143.95863204086615		5.5779999999999745	1_sub-pilot021_SVR_EEG_block3-4.protocol.csv	step11	1296	128.639	STIMULATE	46.1	45.9	45.9	46.0	46.2	11	1023.763
1017.854	0	508927	20/Hi	4	2	0	2	0	4.0	0.0	4.0	0.0						1089.8083879000042	1095.3992952000117	1095.3992952000117	7.0	['7', 'return']	[2.998232900048606, 3.622565300029237]	5.58	5.16	0.0	20hz	high_pain	46.0			sub-pilot021	250	21	44.5	46	COM11	COM7	COM3	2023-11-20_10h24.58.331	001-EEG_SVR_Officel	2022.2.5	143.95863204086615		5.166000000000054	1_sub-pilot021_SVR_EEG_block3-4.protocol.csv	step11	1296	128.639	STIMULATE	46.1	45.9	45.9	46.0	46.2	11	1023.763
1028.592	0	514296	wait	20	2	0	2	0	5.0	0.0	5.0	0.0						1112.0404387000017	1119.3416819000267	1119.3416819000267	6.0	['6', 'return']	[4.4582434999756515, 5.098861999984365]	7.29	5.66	1.0	controle	low_pain	44.5			sub-pilot021	250	21	44.5	46	COM11	COM7	COM3	2023-11-20_10h24.58.331	001-EEG_SVR_Officel	2022.2.5	143.95863204086615		11.488000000000056	1_sub-pilot021_SVR_EEG_block3-4.protocol.csv	step13	1542	153.045	STIMULATE	44.5	44.4	44.4	44.4	44.7	13	1048.1689999999999
1035.88	0	517940	CNhz	12	2	0	2	0	5.0	0.0	5.0	0.0						1112.0404387000017	1119.3416819000267	1119.3416819000267	6.0	['6', 'return']	[4.4582434999756515, 5.098861999984365]	7.29	5.66	1.0	controle	low_pain	44.5			sub-pilot021	250	21	44.5	46	COM11	COM7	COM3	2023-11-20_10h24.58.331	001-EEG_SVR_Officel	2022.2.5	143.95863204086615		7.288000000000011	1_sub-pilot021_SVR_EEG_block3-4.protocol.csv	step13	1542	153.045	STIMULATE	44.5	44.4	44.4	44.4	44.7	13	1048.1689999999999
1042.288	0	521144	CN/Lo	11	2	0	2	0	5.0	0.0	5.0	0.0						1112.0404387000017	1119.3416819000267	1119.3416819000267	6.0	['6', 'return']	[4.4582434999756515, 5.098861999984365]	7.29	5.66	1.0	controle	low_pain	44.5			sub-pilot021	250	21	44.5	46	COM11	COM7	COM3	2023-11-20_10h24.58.331	001-EEG_SVR_Officel	2022.2.5	143.95863204086615		5.657999999999902	1_sub-pilot021_SVR_EEG_block3-4.protocol.csv	step13	1542	153.045	STIMULATE	44.5	44.4	44.4	44.4	44.7	13	1048.1689999999999
1054.004	0	527002	wait	20	2	0	2	0	6.0	0.0	6.0	0.0						1137.452929000021	1143.702468100004	1143.702468100004	8.0	['8', 'return']	[3.574647700006608, 4.190145999949891]	6.25	5.77	2.0	controle	high_pain	46.0			sub-pilot021	250	21	44.5	46	COM11	COM7	COM3	2023-11-20_10h24.58.331	001-EEG_SVR_Officel	2022.2.5	143.95863204086615		12.465999999999894	1_sub-pilot021_SVR_EEG_block3-4.protocol.csv	step15	1789	177.509	STIMULATE	46.1	45.9	45.9	45.9	46.1	15	1072.633
1060.25	0	530125	CNhz	12	2	0	2	0	6.0	0.0	6.0	0.0						1137.452929000021	1143.702468100004	1143.702468100004	8.0	['8', 'return']	[3.574647700006608, 4.190145999949891]	6.25	5.77	2.0	controle	high_pain	46.0			sub-pilot021	250	21	44.5	46	COM11	COM7	COM3	2023-11-20_10h24.58.331	001-EEG_SVR_Officel	2022.2.5	143.95863204086615		6.246000000000095	1_sub-pilot021_SVR_EEG_block3-4.protocol.csv	step15	1789	177.509	STIMULATE	46.1	45.9	45.9	45.9	46.1	15	1072.633
1066.77	0	533385	CN/Hi	10	2	0	2	0	6.0	0.0	6.0	0.0						1137.452929000021	1143.702468100004	1143.702468100004	8.0	['8', 'return']	[3.574647700006608, 4.190145999949891]	6.25	5.77	2.0	controle	high_pain	46.0			sub-pilot021	250	21	44.5	46	COM11	COM7	COM3	2023-11-20_10h24.58.331	001-EEG_SVR_Officel	2022.2.5	143.95863204086615		5.769999999999982	1_sub-pilot021_SVR_EEG_block3-4.protocol.csv	step15	1789	177.509	STIMULATE	46.1	45.9	45.9	45.9	46.1	15	1072.633
1077.472	0	538736	wait	20	2	0	2	0	7.0	0.0	7.0	0.0						1160.9215514000389	1168.533763100044	1168.533763100044	3.0	['3', 'return']	[3.393067199969664, 4.120441399980336]	7.6	5.93	3.0	controle	low_pain	44.5			sub-pilot021	250	21	44.5	46	COM11	COM7	COM3	2023-11-20_10h24.58.331	001-EEG_SVR_Officel	2022.2.5	143.95863204086615		11.451999999999998	1_sub-pilot021_SVR_EEG_block3-4.protocol.csv	step17	2040	202.413	STIMULATE	44.5	44.4	44.4	44.4	44.4	17	1097.537
1085.072	0	542536	CNhz	12	2	0	2	0	7.0	0.0	7.0	0.0						1160.9215514000389	1168.533763100044	1168.533763100044	3.0	['3', 'return']	[3.393067199969664, 4.120441399980336]	7.6	5.93	3.0	controle	low_pain	44.5			sub-pilot021	250	21	44.5	46	COM11	COM7	COM3	2023-11-20_10h24.58.331	001-EEG_SVR_Officel	2022.2.5	143.95863204086615		7.599999999999909	1_sub-pilot021_SVR_EEG_block3-4.protocol.csv	step17	2040	202.413	STIMULATE	44.5	44.4	44.4	44.4	44.4	17	1097.537
1091.752	0	545876	CN/Lo	11	2	0	2	0	7.0	0.0	7.0	0.0						1160.9215514000389	1168.533763100044	1168.533763100044	3.0	['3', 'return']	[3.393067199969664, 4.120441399980336]	7.6	5.93	3.0	controle	low_pain	44.5			sub-pilot021	250	21	44.5	46	COM11	COM7	COM3	2023-11-20_10h24.58.331	001-EEG_SVR_Officel	2022.2.5	143.95863204086615		5.930000000000064	1_sub-pilot021_SVR_EEG_block3-4.protocol.csv	step17	2040	202.413	STIMULATE	44.5	44.4	44.4	44.4	44.4	17	1097.537
1102.218	0	551109	wait	20	2	0	2	0	8.0	0.0	8.0	0.0						1185.6667050000397	1193.0639297000016	1193.0639297000016	5.5	['5', 'a', '5', 'return']	[3.221789799979888, 3.653967799968086, 3.8623406999977306, 4.6628978999797255]	7.39	5.06	0.0	40hz	low_pain	44.5			sub-pilot021	250	21	44.5	46	COM11	COM7	COM3	2023-11-20_10h24.58.331	001-EEG_SVR_Officel	2022.2.5	143.95863204086615		11.216000000000122	1_sub-pilot021_SVR_EEG_block3-4.protocol.csv	step19	2279	226.173	STIMULATE	44.5	44.4	44.4	44.5	44.6	19	1121.297
1109.604	0	554802	40hz	9	2	0	2	0	8.0	0.0	8.0	0.0						1185.6667050000397	1193.0639297000016	1193.0639297000016	5.5	['5', 'a', '5', 'return']	[3.221789799979888, 3.653967799968086, 3.8623406999977306, 4.6628978999797255]	7.39	5.06	0.0	40hz	low_pain	44.5			sub-pilot021	250	21	44.5	46	COM11	COM7	COM3	2023-11-20_10h24.58.331	001-EEG_SVR_Officel	2022.2.5	143.95863204086615		7.385999999999967	1_sub-pilot021_SVR_EEG_block3-4.protocol.csv	step19	2279	226.173	STIMULATE	44.5	44.4	44.4	44.5	44.6	19	1121.297
1115.418	0	557709	40/Lo	8	2	0	2	0	8.0	0.0	8.0	0.0						1185.6667050000397	1193.0639297000016	1193.0639297000016	5.5	['5', 'a', '5', 'return']	[3.221789799979888, 3.653967799968086, 3.8623406999977306, 4.6628978999797255]	7.39	5.06	0.0	40hz	low_pain	44.5			sub-pilot021	250	21	44.5	46	COM11	COM7	COM3	2023-11-20_10h24.58.331	001-EEG_SVR_Officel	2022.2.5	143.95863204086615		5.063999999999851	1_sub-pilot021_SVR_EEG_block3-4.protocol.csv	step19	2279	226.173	STIMULATE	44.5	44.4	44.4	44.5	44.6	19	1121.297
1127.298	0	563649	wait	20	2	0	2	0	9.0	0.0	9.0	0.0						1210.7466659999918	1217.0529290999984	1217.0529290999984	8.5	['8', 'a', '5', 'return']	[3.5208323000115342, 3.9462420999770984, 4.337215600011405, 5.225030999979936]	6.3	5.95	1.0	10hz	high_pain	46.0			sub-pilot021	250	21	44.5	46	COM11	COM7	COM3	2023-11-20_10h24.58.331	001-EEG_SVR_Officel	2022.2.5	143.95863204086615		12.63000000000011	1_sub-pilot021_SVR_EEG_block3-4.protocol.csv	step21	2530	251.066	STIMULATE	46.0	45.9	45.9	45.9	46.1	21	1146.19
1133.592	0	566796	10hz	3	2	0	2	0	9.0	0.0	9.0	0.0						1210.7466659999918	1217.0529290999984	1217.0529290999984	8.5	['8', 'a', '5', 'return']	[3.5208323000115342, 3.9462420999770984, 4.337215600011405, 5.225030999979936]	6.3	5.95	1.0	10hz	high_pain	46.0			sub-pilot021	250	21	44.5	46	COM11	COM7	COM3	2023-11-20_10h24.58.331	001-EEG_SVR_Officel	2022.2.5	143.95863204086615		6.294000000000096	1_sub-pilot021_SVR_EEG_block3-4.protocol.csv	step21	2530	251.066	STIMULATE	46.0	45.9	45.9	45.9	46.1	21	1146.19
1140.292	0	570146	10/Hi	1	2	0	2	0	9.0	0.0	9.0	0.0						1210.7466659999918	1217.0529290999984	1217.0529290999984	8.5	['8', 'a', '5', 'return']	[3.5208323000115342, 3.9462420999770984, 4.337215600011405, 5.225030999979936]	6.3	5.95	1.0	10hz	high_pain	46.0			sub-pilot021	250	21	44.5	46	COM11	COM7	COM3	2023-11-20_10h24.58.331	001-EEG_SVR_Officel	2022.2.5	143.95863204086615		5.949999999999818	1_sub-pilot021_SVR_EEG_block3-4.protocol.csv	step21	2530	251.066	STIMULATE	46.0	45.9	45.9	45.9	46.1	21	1146.19
1151.85	0	575925	wait	20	2	0	2	0	10.0	0.0	10.0	0.0						1235.298178600031	1241.299068799999	1241.299068799999	1.0	['1', 'return']	[4.6595510999904945, 5.355967400013469]	5.99	5.44	2.0	20hz	low_pain	44.5			sub-pilot021	250	21	44.5	46	COM11	COM7	COM3	2023-11-20_10h24.58.331	001-EEG_SVR_Officel	2022.2.5	143.95863204086615		12.307999999999993	1_sub-pilot021_SVR_EEG_block3-4.protocol.csv	step23	2769	274.723	STIMULATE	44.6	44.4	44.4	44.4	44.5	23	1169.847
1157.836	0	578918	20hz	6	2	0	2	0	10.0	0.0	10.0	0.0						1235.298178600031	1241.299068799999	1241.299068799999	1.0	['1', 'return']	[4.6595510999904945, 5.355967400013469]	5.99	5.44	2.0	20hz	low_pain	44.5			sub-pilot021	250	21	44.5	46	COM11	COM7	COM3	2023-11-20_10h24.58.331	001-EEG_SVR_Officel	2022.2.5	143.95863204086615		5.986000000000104	1_sub-pilot021_SVR_EEG_block3-4.protocol.csv	step23	2769	274.723	STIMULATE	44.6	44.4	44.4	44.4	44.5	23	1169.847
1164.03	0	582015	20/Lo	5	2	0	2	0	10.0	0.0	10.0	0.0						1235.298178600031	1241.299068799999	1241.299068799999	1.0	['1', 'return']	[4.6595510999904945, 5.355967400013469]	5.99	5.44	2.0	20hz	low_pain	44.5			sub-pilot021	250	21	44.5	46	COM11	COM7	COM3	2023-11-20_10h24.58.331	001-EEG_SVR_Officel	2022.2.5	143.95863204086615		5.44399999999996	1_sub-pilot021_SVR_EEG_block3-4.protocol.csv	step23	2769	274.723	STIMULATE	44.6	44.4	44.4	44.4	44.5	23	1169.847
1176.226	0	588113	wait	20	2	0	2	0	11.0	0.0	11.0	0.0						1259.676314899989	1265.67694949999	1265.67694949999	7.0	['7', 'return']	[3.8262487000320107, 4.521077400015201]	5.99	5.69	3.0	10hz	high_pain	46.0			sub-pilot021	250	21	44.5	46	COM11	COM7	COM3	2023-11-20_10h24.58.331	001-EEG_SVR_Officel	2022.2.5	143.95863204086615		12.94600000000014	1_sub-pilot021_SVR_EEG_block3-4.protocol.csv	step25	3018	299.45	STIMULATE	46.0	45.9	45.9	45.9	46.1	25	1194.574
1182.216	0	591108	10hz	3	2	0	2	0	11.0	0.0	11.0	0.0						1259.676314899989	1265.67694949999	1265.67694949999	7.0	['7', 'return']	[3.8262487000320107, 4.521077400015201]	5.99	5.69	3.0	10hz	high_pain	46.0			sub-pilot021	250	21	44.5	46	COM11	COM7	COM3	2023-11-20_10h24.58.331	001-EEG_SVR_Officel	2022.2.5	143.95863204086615		5.989999999999782	1_sub-pilot021_SVR_EEG_block3-4.protocol.csv	step25	3018	299.45	STIMULATE	46.0	45.9	45.9	45.9	46.1	25	1194.574
1188.658	0	594329	10/Hi	1	2	0	2	0	11.0	0.0	11.0	0.0						1259.676314899989	1265.67694949999	1265.67694949999	7.0	['7', 'return']	[3.8262487000320107, 4.521077400015201]	5.99	5.69	3.0	10hz	high_pain	46.0			sub-pilot021	250	21	44.5	46	COM11	COM7	COM3	2023-11-20_10h24.58.331	001-EEG_SVR_Officel	2022.2.5	143.95863204086615		5.692000000000007	1_sub-pilot021_SVR_EEG_block3-4.protocol.csv	step25	3018	299.45	STIMULATE	46.0	45.9	45.9	45.9	46.1	25	1194.574
1199.756	0	599878	wait	20	2	0	2	0	12.0	0.0	12.0	0.0						1283.2063007000252	1289.8325847000233	1289.8325847000233	6.5	['6', 'a', '5', 'return']	[3.7001527000102215, 4.731856200029142, 5.0367037000251, 6.012875000014901]	6.62	6.36	0.0	40hz	high_pain	46.0			sub-pilot021	250	21	44.5	46	COM11	COM7	COM3	2023-11-20_10h24.58.331	001-EEG_SVR_Officel	2022.2.5	143.95863204086615		11.848000000000184	1_sub-pilot021_SVR_EEG_block3-4.protocol.csv	step27	3268	324.219	STIMULATE	46.1	45.9	45.9	46.0	46.2	27	1219.3429999999998
1206.372	0	603186	40hz	9	2	0	2	0	12.0	0.0	12.0	0.0						1283.2063007000252	1289.8325847000233	1289.8325847000233	6.5	['6', 'a', '5', 'return']	[3.7001527000102215, 4.731856200029142, 5.0367037000251, 6.012875000014901]	6.62	6.36	0.0	40hz	high_pain	46.0			sub-pilot021	250	21	44.5	46	COM11	COM7	COM3	2023-11-20_10h24.58.331	001-EEG_SVR_Officel	2022.2.5	143.95863204086615		6.6159999999999854	1_sub-pilot021_SVR_EEG_block3-4.protocol.csv	step27	3268	324.219	STIMULATE	46.1	45.9	45.9	46.0	46.2	27	1219.3429999999998
1213.482	0	606741	40/Hi	7	2	0	2	0	12.0	0.0	12.0	0.0						1283.2063007000252	1289.8325847000233	1289.8325847000233	6.5	['6', 'a', '5', 'return']	[3.7001527000102215, 4.731856200029142, 5.0367037000251, 6.012875000014901]	6.62	6.36	0.0	40hz	high_pain	46.0			sub-pilot021	250	21	44.5	46	COM11	COM7	COM3	2023-11-20_10h24.58.331	001-EEG_SVR_Officel	2022.2.5	143.95863204086615		6.3599999999999	1_sub-pilot021_SVR_EEG_block3-4.protocol.csv	step27	3268	324.219	STIMULATE	46.1	45.9	45.9	46.0	46.2	27	1219.3429999999998
1225.406	0	612703	wait	20	2	0	2	0	13.0	0.0	13.0	0.0						1308.85530320002	1316.2935643999954	1316.2935643999954	5.0	['5', 'return']	[3.6246286000241525, 4.345120000012685]	7.43	6.25	1.0	10hz	low_pain	44.5			sub-pilot021	250	21	44.5	46	COM11	COM7	COM3	2023-11-20_10h24.58.331	001-EEG_SVR_Officel	2022.2.5	143.95863204086615		12.673999999999978	1_sub-pilot021_SVR_EEG_block3-4.protocol.csv	step29	3533	350.579	STIMULATE	44.4	44.4	44.4	44.4	44.7	29	1245.703
1232.832	0	616416	10hz	3	2	0	2	0	13.0	0.0	13.0	0.0						1308.85530320002	1316.2935643999954	1316.2935643999954	5.0	['5', 'return']	[3.6246286000241525, 4.345120000012685]	7.43	6.25	1.0	10hz	low_pain	44.5			sub-pilot021	250	21	44.5	46	COM11	COM7	COM3	2023-11-20_10h24.58.331	001-EEG_SVR_Officel	2022.2.5	143.95863204086615		7.426000000000158	1_sub-pilot021_SVR_EEG_block3-4.protocol.csv	step29	3533	350.579	STIMULATE	44.4	44.4	44.4	44.4	44.7	29	1245.703
1239.83	0	619915	10/Lo	2	2	0	2	0	13.0	0.0	13.0	0.0						1308.85530320002	1316.2935643999954	1316.2935643999954	5.0	['5', 'return']	[3.6246286000241525, 4.345120000012685]	7.43	6.25	1.0	10hz	low_pain	44.5			sub-pilot021	250	21	44.5	46	COM11	COM7	COM3	2023-11-20_10h24.58.331	001-EEG_SVR_Officel	2022.2.5	143.95863204086615		6.24799999999982	1_sub-pilot021_SVR_EEG_block3-4.protocol.csv	step29	3533	350.579	STIMULATE	44.4	44.4	44.4	44.4	44.7	29	1245.703
1250.208	0	625104	wait	20	2	0	2	0	14.0	0.0	14.0	0.0						1333.657469000027	1341.1860724000144	1341.1860724000144	7.5	['7', 'a', '5', 'return']	[3.2438515999820083, 3.931437299994286, 4.259483199974056, 5.036366100015584]	7.52	5.17	2.0	10hz	high_pain	46.0			sub-pilot021	250	21	44.5	46	COM11	COM7	COM3	2023-11-20_10h24.58.331	001-EEG_SVR_Officel	2022.2.5	143.95863204086615		11.128000000000156	1_sub-pilot021_SVR_EEG_block3-4.protocol.csv	step31	3773	374.32	STIMULATE	46.1	45.9	45.9	45.9	46.1	31	1269.444
1257.724	0	628862	10hz	3	2	0	2	0	14.0	0.0	14.0	0.0						1333.657469000027	1341.1860724000144	1341.1860724000144	7.5	['7', 'a', '5', 'return']	[3.2438515999820083, 3.931437299994286, 4.259483199974056, 5.036366100015584]	7.52	5.17	2.0	10hz	high_pain	46.0			sub-pilot021	250	21	44.5	46	COM11	COM7	COM3	2023-11-20_10h24.58.331	001-EEG_SVR_Officel	2022.2.5	143.95863204086615		7.515999999999849	1_sub-pilot021_SVR_EEG_block3-4.protocol.csv	step31	3773	374.32	STIMULATE	46.1	45.9	45.9	45.9	46.1	31	1269.444
1263.646	0	631823	10/Hi	1	2	0	2	0	14.0	0.0	14.0	0.0						1333.657469000027	1341.1860724000144	1341.1860724000144	7.5	['7', 'a', '5', 'return']	[3.2438515999820083, 3.931437299994286, 4.259483199974056, 5.036366100015584]	7.52	5.17	2.0	10hz	high_pain	46.0			sub-pilot021	250	21	44.5	46	COM11	COM7	COM3	2023-11-20_10h24.58.331	001-EEG_SVR_Officel	2022.2.5	143.95863204086615		5.1720000000000255	1_sub-pilot021_SVR_EEG_block3-4.protocol.csv	step31	3773	374.32	STIMULATE	46.1	45.9	45.9	45.9	46.1	31	1269.444
1275.794	0	637897	wait	20	2	0	2	0	15.0	0.0	15.0	0.0						1359.2441188000375	1366.703074500023	1366.703074500023	5.0	['5', 'return']	[3.167740800010506, 3.8465723000117578]	7.45	5.69	3.0	10hz	low_pain	44.5			sub-pilot021	250	21	44.5	46	COM11	COM7	COM3	2023-11-20_10h24.58.331	001-EEG_SVR_Officel	2022.2.5	143.95863204086615		12.898000000000138	1_sub-pilot021_SVR_EEG_block3-4.protocol.csv	step33	4037	400.526	STIMULATE	44.4	44.4	44.4	44.4	44.4	33	1295.65
1283.242	0	641621	10hz	3	2	0	2	0	15.0	0.0	15.0	0.0						1359.2441188000375	1366.703074500023	1366.703074500023	5.0	['5', 'return']	[3.167740800010506, 3.8465723000117578]	7.45	5.69	3.0	10hz	low_pain	44.5			sub-pilot021	250	21	44.5	46	COM11	COM7	COM3	2023-11-20_10h24.58.331	001-EEG_SVR_Officel	2022.2.5	143.95863204086615		7.447999999999865	1_sub-pilot021_SVR_EEG_block3-4.protocol.csv	step33	4037	400.526	STIMULATE	44.4	44.4	44.4	44.4	44.4	33	1295.65
1289.684	0	644842	10/Lo	2	2	0	2	0	15.0	0.0	15.0	0.0						1359.2441188000375	1366.703074500023	1366.703074500023	5.0	['5', 'return']	[3.167740800010506, 3.8465723000117578]	7.45	5.69	3.0	10hz	low_pain	44.5			sub-pilot021	250	21	44.5	46	COM11	COM7	COM3	2023-11-20_10h24.58.331	001-EEG_SVR_Officel	2022.2.5	143.95863204086615		5.692000000000007	1_sub-pilot021_SVR_EEG_block3-4.protocol.csv	step33	4037	400.526	STIMULATE	44.4	44.4	44.4	44.4	44.4	33	1295.65
1331.974	0	665987	wait	20	3	0	3	0	0.0	0.0	0.0	0.0				p	0.4432423000107519	1415.4248153000372	1422.453534000029	1422.453534000029	7.5	['7', 'a', '5', 'return']	[4.033407100010663, 4.5208469000062905, 4.930353200004902, 5.512964099994861]	7.02	6.12	0.0	controle	high_pain	46.0			sub-pilot021	250	21	44.5	46	COM11	COM7	COM3	2023-11-20_10h24.58.331	001-EEG_SVR_Officel	2022.2.5	143.95863204086615		43.039999999999964	1_sub-pilot021_SVR_EEG_block3-4.protocol.csv	step35	4600	456.688	STIMULATE	46.2	45.9	45.9	45.9	46.2	35	1351.7440000000001
1338.992	0	669496	CNhz	12	3	0	3	0	0.0	0.0	0.0	0.0				p	0.4432423000107519	1415.4248153000372	1422.453534000029	1422.453534000029	7.5	['7', 'a', '5', 'return']	[4.033407100010663, 4.5208469000062905, 4.930353200004902, 5.512964099994861]	7.02	6.12	0.0	controle	high_pain	46.0			sub-pilot021	250	21	44.5	46	COM11	COM7	COM3	2023-11-20_10h24.58.331	001-EEG_SVR_Officel	2022.2.5	143.95863204086615		7.018000000000029	1_sub-pilot021_SVR_EEG_block3-4.protocol.csv	step35	4600	456.688	STIMULATE	46.2	45.9	45.9	45.9	46.2	35	1351.7440000000001
1345.864	0	672932	CN/Hi	10	3	0	3	0	0.0	0.0	0.0	0.0				p	0.4432423000107519	1415.4248153000372	1422.453534000029	1422.453534000029	7.5	['7', 'a', '5', 'return']	[4.033407100010663, 4.5208469000062905, 4.930353200004902, 5.512964099994861]	7.02	6.12	0.0	controle	high_pain	46.0			sub-pilot021	250	21	44.5	46	COM11	COM7	COM3	2023-11-20_10h24.58.331	001-EEG_SVR_Officel	2022.2.5	143.95863204086615		6.122000000000071	1_sub-pilot021_SVR_EEG_block3-4.protocol.csv	step35	4600	456.688	STIMULATE	46.2	45.9	45.9	45.9	46.2	35	1351.7440000000001
1357.532	0	678766	wait	20	3	0	3	0	1.0	0.0	1.0	0.0						1440.9830136999954	1448.164359699993	1448.164359699993	8.5	['8', 'a', '5', 'return']	[3.169896000006702, 3.6664084999938495, 4.066654699970968, 4.649580599972978]	7.17	5.71	1.0	controle	high_pain	46.0			sub-pilot021	250	21	44.5	46	COM11	COM7	COM3	2023-11-20_10h24.58.331	001-EEG_SVR_Officel	2022.2.5	143.95863204086615		12.417999999999893	1_sub-pilot021_SVR_EEG_block3-4.protocol.csv	step37	4855	481.945	STIMULATE	46.1	45.9	45.9	45.9	46.1	37	1377.001
1364.702	0	682351	CNhz	12	3	0	3	0	1.0	0.0	1.0	0.0						1440.9830136999954	1448.164359699993	1448.164359699993	8.5	['8', 'a', '5', 'return']	[3.169896000006702, 3.6664084999938495, 4.066654699970968, 4.649580599972978]	7.17	5.71	1.0	controle	high_pain	46.0			sub-pilot021	250	21	44.5	46	COM11	COM7	COM3	2023-11-20_10h24.58.331	001-EEG_SVR_Officel	2022.2.5	143.95863204086615		7.170000000000073	1_sub-pilot021_SVR_EEG_block3-4.protocol.csv	step37	4855	481.945	STIMULATE	46.1	45.9	45.9	45.9	46.1	37	1377.001
1371.166	0	685583	CN/Hi	10	3	0	3	0	1.0	0.0	1.0	0.0						1440.9830136999954	1448.164359699993	1448.164359699993	8.5	['8', 'a', '5', 'return']	[3.169896000006702, 3.6664084999938495, 4.066654699970968, 4.649580599972978]	7.17	5.71	1.0	controle	high_pain	46.0			sub-pilot021	250	21	44.5	46	COM11	COM7	COM3	2023-11-20_10h24.58.331	001-EEG_SVR_Officel	2022.2.5	143.95863204086615		5.713999999999942	1_sub-pilot021_SVR_EEG_block3-4.protocol.csv	step37	4855	481.945	STIMULATE	46.1	45.9	45.9	45.9	46.1	37	1377.001
1382.374	0	691187	wait	20	3	0	3	0	2.0	0.0	2.0	0.0						1465.8257249000017	1472.333943100006	1472.333943100006	5.0	['5', 'return']	[4.528978399990592, 5.648829300014768]	6.5	5.17	2.0	20hz	high_pain	46.0			sub-pilot021	250	21	44.5	46	COM11	COM7	COM3	2023-11-20_10h24.58.331	001-EEG_SVR_Officel	2022.2.5	143.95863204086615		11.958000000000084	1_sub-pilot021_SVR_EEG_block3-4.protocol.csv	step39	5093	505.576	STIMULATE	46.1	45.9	45.9	45.9	46.1	39	1400.632
1388.87	0	694435	20hz	6	3	0	3	0	2.0	0.0	2.0	0.0						1465.8257249000017	1472.333943100006	1472.333943100006	5.0	['5', 'return']	[4.528978399990592, 5.648829300014768]	6.5	5.17	2.0	20hz	high_pain	46.0			sub-pilot021	250	21	44.5	46	COM11	COM7	COM3	2023-11-20_10h24.58.331	001-EEG_SVR_Officel	2022.2.5	143.95863204086615		6.495999999999867	1_sub-pilot021_SVR_EEG_block3-4.protocol.csv	step39	5093	505.576	STIMULATE	46.1	45.9	45.9	45.9	46.1	39	1400.632
1394.792	0	697396	20/Hi	4	3	0	3	0	2.0	0.0	2.0	0.0						1465.8257249000017	1472.333943100006	1472.333943100006	5.0	['5', 'return']	[4.528978399990592, 5.648829300014768]	6.5	5.17	2.0	20hz	high_pain	46.0			sub-pilot021	250	21	44.5	46	COM11	COM7	COM3	2023-11-20_10h24.58.331	001-EEG_SVR_Officel	2022.2.5	143.95863204086615		5.1720000000000255	1_sub-pilot021_SVR_EEG_block3-4.protocol.csv	step39	5093	505.576	STIMULATE	46.1	45.9	45.9	45.9	46.1	39	1400.632
1407.552	0	703776	wait	20	3	0	3	0	3.0	0.0	3.0	0.0						1491.0029169000336	1496.934252300009	1496.934252300009	6.0	['6', 'return']	[4.343597900005989, 4.943818800034933]	5.92	6.34	3.0	20hz	low_pain	44.5			sub-pilot021	250	21	44.5	46	COM11	COM7	COM3	2023-11-20_10h24.58.331	001-EEG_SVR_Officel	2022.2.5	143.95863204086615		13.509999999999991	1_sub-pilot021_SVR_EEG_block3-4.protocol.csv	step41	5353	531.407	STIMULATE	44.4	44.4	44.4	44.4	44.4	41	1426.4630000000002
1413.472	0	706736	20hz	6	3	0	3	0	3.0	0.0	3.0	0.0						1491.0029169000336	1496.934252300009	1496.934252300009	6.0	['6', 'return']	[4.343597900005989, 4.943818800034933]	5.92	6.34	3.0	20hz	low_pain	44.5			sub-pilot021	250	21	44.5	46	COM11	COM7	COM3	2023-11-20_10h24.58.331	001-EEG_SVR_Officel	2022.2.5	143.95863204086615		5.920000000000073	1_sub-pilot021_SVR_EEG_block3-4.protocol.csv	step41	5353	531.407	STIMULATE	44.4	44.4	44.4	44.4	44.4	41	1426.4630000000002
1420.56	0	710280	20/Lo	5	3	0	3	0	3.0	0.0	3.0	0.0						1491.0029169000336	1496.934252300009	1496.934252300009	6.0	['6', 'return']	[4.343597900005989, 4.943818800034933]	5.92	6.34	3.0	20hz	low_pain	44.5			sub-pilot021	250	21	44.5	46	COM11	COM7	COM3	2023-11-20_10h24.58.331	001-EEG_SVR_Officel	2022.2.5	143.95863204086615		6.337999999999965	1_sub-pilot021_SVR_EEG_block3-4.protocol.csv	step41	5353	531.407	STIMULATE	44.4	44.4	44.4	44.4	44.4	41	1426.4630000000002
1431.444	0	715722	wait	20	3	0	3	0	4.0	0.0	4.0	0.0						1514.895366600016	1520.3540763999918	1520.3540763999918	5.5	['5', 'a', '5', 'return']	[2.973462899972219, 3.420905699953437, 3.9413028999697417, 4.893482199986465]	5.45	5.24	0.0	10hz	low_pain	44.5			sub-pilot021	250	21	44.5	46	COM11	COM7	COM3	2023-11-20_10h24.58.331	001-EEG_SVR_Officel	2022.2.5	143.95863204086615		11.634000000000015	1_sub-pilot021_SVR_EEG_block3-4.protocol.csv	step43	5578	553.677	STIMULATE	44.5	44.4	44.3	44.4	44.6	43	1448.7330000000002
1436.89	0	718445	10hz	3	3	0	3	0	4.0	0.0	4.0	0.0						1514.895366600016	1520.3540763999918	1520.3540763999918	5.5	['5', 'a', '5', 'return']	[2.973462899972219, 3.420905699953437, 3.9413028999697417, 4.893482199986465]	5.45	5.24	0.0	10hz	low_pain	44.5			sub-pilot021	250	21	44.5	46	COM11	COM7	COM3	2023-11-20_10h24.58.331	001-EEG_SVR_Officel	2022.2.5	143.95863204086615		5.44600000000014	1_sub-pilot021_SVR_EEG_block3-4.protocol.csv	step43	5578	553.677	STIMULATE	44.5	44.4	44.3	44.4	44.6	43	1448.7330000000002
1442.882	0	721441	10/Lo	2	3	0	3	0	4.0	0.0	4.0	0.0						1514.895366600016	1520.3540763999918	1520.3540763999918	5.5	['5', 'a', '5', 'return']	[2.973462899972219, 3.420905699953437, 3.9413028999697417, 4.893482199986465]	5.45	5.24	0.0	10hz	low_pain	44.5			sub-pilot021	250	21	44.5	46	COM11	COM7	COM3	2023-11-20_10h24.58.331	001-EEG_SVR_Officel	2022.2.5	143.95863204086615		5.241999999999962	1_sub-pilot021_SVR_EEG_block3-4.protocol.csv	step43	5578	553.677	STIMULATE	44.5	44.4	44.3	44.4	44.6	43	1448.7330000000002
1454.814	0	727407	wait	20	3	0	3	0	5.0	0.0	5.0	0.0						1538.2661794000303	1543.5443164000171	1543.5443164000171	8.5	['8', 'a', '5', 'return']	[2.734618800051976, 3.214617600024212, 3.5742496000020765, 4.215520500030834]	5.27	6.19	1.0	20hz	high_pain	46.0			sub-pilot021	250	21	44.5	46	COM11	COM7	COM3	2023-11-20_10h24.58.331	001-EEG_SVR_Officel	2022.2.5	143.95863204086615		12.682000000000016	1_sub-pilot021_SVR_EEG_block3-4.protocol.csv	step45	5821	577.753	STIMULATE	45.9	45.9	45.9	45.9	46.2	45	1472.8090000000002
1460.082	0	730041	20hz	6	3	0	3	0	5.0	0.0	5.0	0.0						1538.2661794000303	1543.5443164000171	1543.5443164000171	8.5	['8', 'a', '5', 'return']	[2.734618800051976, 3.214617600024212, 3.5742496000020765, 4.215520500030834]	5.27	6.19	1.0	20hz	high_pain	46.0			sub-pilot021	250	21	44.5	46	COM11	COM7	COM3	2023-11-20_10h24.58.331	001-EEG_SVR_Officel	2022.2.5	143.95863204086615		5.268000000000029	1_sub-pilot021_SVR_EEG_block3-4.protocol.csv	step45	5821	577.753	STIMULATE	45.9	45.9	45.9	45.9	46.2	45	1472.8090000000002
1467.02	0	733510	20/Hi	4	3	0	3	0	5.0	0.0	5.0	0.0						1538.2661794000303	1543.5443164000171	1543.5443164000171	8.5	['8', 'a', '5', 'return']	[2.734618800051976, 3.214617600024212, 3.5742496000020765, 4.215520500030834]	5.27	6.19	1.0	20hz	high_pain	46.0			sub-pilot021	250	21	44.5	46	COM11	COM7	COM3	2023-11-20_10h24.58.331	001-EEG_SVR_Officel	2022.2.5	143.95863204086615		6.1879999999998745	1_sub-pilot021_SVR_EEG_block3-4.protocol.csv	step45	5821	577.753	STIMULATE	45.9	45.9	45.9	45.9	46.2	45	1472.8090000000002
1477.316	0	738658	wait	20	3	0	3	0	6.0	0.0	6.0	0.0						1560.7678640999948	1566.8663087000025	1566.8663087000025	7.0	['7', 'return']	[3.3242578000063077, 3.981344700034242]	6.09	6.18	2.0	40hz	high_pain	46.0			sub-pilot021	250	21	44.5	46	COM11	COM7	COM3	2023-11-20_10h24.58.331	001-EEG_SVR_Officel	2022.2.5	143.95863204086615		11.04600000000005	1_sub-pilot021_SVR_EEG_block3-4.protocol.csv	step47	6057	601.157	STIMULATE	46.0	45.9	45.9	45.9	46.0	47	1496.2130000000002
1483.404	0	741702	40hz	9	3	0	3	0	6.0	0.0	6.0	0.0						1560.7678640999948	1566.8663087000025	1566.8663087000025	7.0	['7', 'return']	[3.3242578000063077, 3.981344700034242]	6.09	6.18	2.0	40hz	high_pain	46.0			sub-pilot021	250	21	44.5	46	COM11	COM7	COM3	2023-11-20_10h24.58.331	001-EEG_SVR_Officel	2022.2.5	143.95863204086615		6.087999999999965	1_sub-pilot021_SVR_EEG_block3-4.protocol.csv	step47	6057	601.157	STIMULATE	46.0	45.9	45.9	45.9	46.0	47	1496.2130000000002
1490.332	0	745166	40/Hi	7	3	0	3	0	6.0	0.0	6.0	0.0						1560.7678640999948	1566.8663087000025	1566.8663087000025	7.0	['7', 'return']	[3.3242578000063077, 3.981344700034242]	6.09	6.18	2.0	40hz	high_pain	46.0			sub-pilot021	250	21	44.5	46	COM11	COM7	COM3	2023-11-20_10h24.58.331	001-EEG_SVR_Officel	2022.2.5	143.95863204086615		6.178000000000111	1_sub-pilot021_SVR_EEG_block3-4.protocol.csv	step47	6057	601.157	STIMULATE	46.0	45.9	45.9	45.9	46.0	47	1496.2130000000002
1500.416	0	750208	wait	20	3	0	3	0	7.0	0.0	7.0	0.0						1583.8683262999984	1590.160631900013	1590.160631900013	8.0	['8', 'return']	[2.9574585999944247, 3.4458957000169903]	6.28	6.22	3.0	20hz	high_pain	46.0			sub-pilot021	250	21	44.5	46	COM11	COM7	COM3	2023-11-20_10h24.58.331	001-EEG_SVR_Officel	2022.2.5	143.95863204086615		10.833999999999833	1_sub-pilot021_SVR_EEG_block3-4.protocol.csv	step49	6292	624.468	STIMULATE	46.0	45.9	45.9	45.9	46.0	49	1519.524
1506.696	0	753348	20hz	6	3	0	3	0	7.0	0.0	7.0	0.0						1583.8683262999984	1590.160631900013	1590.160631900013	8.0	['8', 'return']	[2.9574585999944247, 3.4458957000169903]	6.28	6.22	3.0	20hz	high_pain	46.0			sub-pilot021	250	21	44.5	46	COM11	COM7	COM3	2023-11-20_10h24.58.331	001-EEG_SVR_Officel	2022.2.5	143.95863204086615		6.279999999999973	1_sub-pilot021_SVR_EEG_block3-4.protocol.csv	step49	6292	624.468	STIMULATE	46.0	45.9	45.9	45.9	46.0	49	1519.524
1513.668	0	756834	20/Hi	4	3	0	3	0	7.0	0.0	7.0	0.0						1583.8683262999984	1590.160631900013	1590.160631900013	8.0	['8', 'return']	[2.9574585999944247, 3.4458957000169903]	6.28	6.22	3.0	20hz	high_pain	46.0			sub-pilot021	250	21	44.5	46	COM11	COM7	COM3	2023-11-20_10h24.58.331	001-EEG_SVR_Officel	2022.2.5	143.95863204086615		6.22199999999998	1_sub-pilot021_SVR_EEG_block3-4.protocol.csv	step49	6292	624.468	STIMULATE	46.0	45.9	45.9	45.9	46.0	49	1519.524
1523.176	0	761588	wait	20	3	0	3	0	8.0	0.0	8.0	0.0						1606.628472500015	1612.684448199987	1612.684448199987	2.0	['2', 'return']	[3.481801700021606, 4.121872100047767]	6.05	5.4	0.0	controle	low_pain	44.5			sub-pilot021	250	21	44.5	46	COM11	COM7	COM3	2023-11-20_10h24.58.331	001-EEG_SVR_Officel	2022.2.5	143.95863204086615		10.258000000000038	1_sub-pilot021_SVR_EEG_block3-4.protocol.csv	step51	6511	646.198	STIMULATE	44.4	44.4	44.4	44.4	44.7	51	1541.254
1529.222	0	764611	CNhz	12	3	0	3	0	8.0	0.0	8.0	0.0						1606.628472500015	1612.684448199987	1612.684448199987	2.0	['2', 'return']	[3.481801700021606, 4.121872100047767]	6.05	5.4	0.0	controle	low_pain	44.5			sub-pilot021	250	21	44.5	46	COM11	COM7	COM3	2023-11-20_10h24.58.331	001-EEG_SVR_Officel	2022.2.5	143.95863204086615		6.046000000000049	1_sub-pilot021_SVR_EEG_block3-4.protocol.csv	step51	6511	646.198	STIMULATE	44.4	44.4	44.4	44.4	44.7	51	1541.254
1535.372	0	767686	CN/Lo	11	3	0	3	0	8.0	0.0	8.0	0.0						1606.628472500015	1612.684448199987	1612.684448199987	2.0	['2', 'return']	[3.481801700021606, 4.121872100047767]	6.05	5.4	0.0	controle	low_pain	44.5			sub-pilot021	250	21	44.5	46	COM11	COM7	COM3	2023-11-20_10h24.58.331	001-EEG_SVR_Officel	2022.2.5	143.95863204086615		5.400000000000091	1_sub-pilot021_SVR_EEG_block3-4.protocol.csv	step51	6511	646.198	STIMULATE	44.4	44.4	44.4	44.4	44.7	51	1541.254
1546.374	0	773187	wait	20	3	0	3	0	9.0	0.0	9.0	0.0						1629.8259346000268	1635.9864282000344	1635.9864282000344	5.0	['5', 'return']	[3.011708699981682, 3.716606399975717]	6.15	5.41	1.0	40hz	low_pain	44.5			sub-pilot021	250	21	44.5	46	COM11	COM7	COM3	2023-11-20_10h24.58.331	001-EEG_SVR_Officel	2022.2.5	143.95863204086615		11.751999999999953	1_sub-pilot021_SVR_EEG_block3-4.protocol.csv	step53	6746	669.428	STIMULATE	44.5	44.4	44.4	44.4	44.7	53	1564.484
1552.522	0	776261	40hz	9	3	0	3	0	9.0	0.0	9.0	0.0						1629.8259346000268	1635.9864282000344	1635.9864282000344	5.0	['5', 'return']	[3.011708699981682, 3.716606399975717]	6.15	5.41	1.0	40hz	low_pain	44.5			sub-pilot021	250	21	44.5	46	COM11	COM7	COM3	2023-11-20_10h24.58.331	001-EEG_SVR_Officel	2022.2.5	143.95863204086615		6.147999999999911	1_sub-pilot021_SVR_EEG_block3-4.protocol.csv	step53	6746	669.428	STIMULATE	44.5	44.4	44.4	44.4	44.7	53	1564.484
1558.682	0	779341	40/Lo	8	3	0	3	0	9.0	0.0	9.0	0.0						1629.8259346000268	1635.9864282000344	1635.9864282000344	5.0	['5', 'return']	[3.011708699981682, 3.716606399975717]	6.15	5.41	1.0	40hz	low_pain	44.5			sub-pilot021	250	21	44.5	46	COM11	COM7	COM3	2023-11-20_10h24.58.331	001-EEG_SVR_Officel	2022.2.5	143.95863204086615		5.410000000000082	1_sub-pilot021_SVR_EEG_block3-4.protocol.csv	step53	6746	669.428	STIMULATE	44.5	44.4	44.4	44.4	44.7	53	1564.484
1569.28	0	784640	wait	20	3	0	3	0	10.0	0.0	10.0	0.0						1652.731238700042	1658.4961813000264	1658.4961813000264	4.0	['4', 'return']	[3.744412400003057, 4.399782399996184]	5.76	5.33	2.0	10hz	low_pain	44.5			sub-pilot021	250	21	44.5	46	COM11	COM7	COM3	2023-11-20_10h24.58.331	001-EEG_SVR_Officel	2022.2.5	143.95863204086615		11.347999999999956	1_sub-pilot021_SVR_EEG_block3-4.protocol.csv	step55	6973	691.983	STIMULATE	44.5	44.4	44.4	44.4	44.5	55	1587.039
1575.034	0	787517	10hz	3	3	0	3	0	10.0	0.0	10.0	0.0						1652.731238700042	1658.4961813000264	1658.4961813000264	4.0	['4', 'return']	[3.744412400003057, 4.399782399996184]	5.76	5.33	2.0	10hz	low_pain	44.5			sub-pilot021	250	21	44.5	46	COM11	COM7	COM3	2023-11-20_10h24.58.331	001-EEG_SVR_Officel	2022.2.5	143.95863204086615		5.754000000000133	1_sub-pilot021_SVR_EEG_block3-4.protocol.csv	step55	6973	691.983	STIMULATE	44.5	44.4	44.4	44.4	44.5	55	1587.039
1581.114	0	790557	10/Lo	2	3	0	3	0	10.0	0.0	10.0	0.0						1652.731238700042	1658.4961813000264	1658.4961813000264	4.0	['4', 'return']	[3.744412400003057, 4.399782399996184]	5.76	5.33	2.0	10hz	low_pain	44.5			sub-pilot021	250	21	44.5	46	COM11	COM7	COM3	2023-11-20_10h24.58.331	001-EEG_SVR_Officel	2022.2.5	143.95863204086615		5.329999999999927	1_sub-pilot021_SVR_EEG_block3-4.protocol.csv	step55	6973	691.983	STIMULATE	44.5	44.4	44.4	44.4	44.5	55	1587.039
1592.462	0	796231	wait	20	3	0	3	0	11.0	0.0	11.0	0.0						1675.9137734000103	1681.1650039000087	1681.1650039000087	6.0	['6', 'return']	[3.6423705000197515, 4.281310899998061]	5.24	6.48	3.0	40hz	high_pain	46.0			sub-pilot021	250	21	44.5	46	COM11	COM7	COM3	2023-11-20_10h24.58.331	001-EEG_SVR_Officel	2022.2.5	143.95863204086615		12.097999999999956	1_sub-pilot021_SVR_EEG_block3-4.protocol.csv	step57	7212	715.683	STIMULATE	46.0	45.9	46.0	45.9	46.1	57	1610.739
1597.7	0	798850	40hz	9	3	0	3	0	11.0	0.0	11.0	0.0						1675.9137734000103	1681.1650039000087	1681.1650039000087	6.0	['6', 'return']	[3.6423705000197515, 4.281310899998061]	5.24	6.48	3.0	40hz	high_pain	46.0			sub-pilot021	250	21	44.5	46	COM11	COM7	COM3	2023-11-20_10h24.58.331	001-EEG_SVR_Officel	2022.2.5	143.95863204086615		5.238000000000056	1_sub-pilot021_SVR_EEG_block3-4.protocol.csv	step57	7212	715.683	STIMULATE	46.0	45.9	46.0	45.9	46.1	57	1610.739
1604.928	0	802464	40/Hi	7	3	0	3	0	11.0	0.0	11.0	0.0						1675.9137734000103	1681.1650039000087	1681.1650039000087	6.0	['6', 'return']	[3.6423705000197515, 4.281310899998061]	5.24	6.48	3.0	40hz	high_pain	46.0			sub-pilot021	250	21	44.5	46	COM11	COM7	COM3	2023-11-20_10h24.58.331	001-EEG_SVR_Officel	2022.2.5	143.95863204086615		6.4780000000000655	1_sub-pilot021_SVR_EEG_block3-4.protocol.csv	step57	7212	715.683	STIMULATE	46.0	45.9	46.0	45.9	46.1	57	1610.739
1615.014	0	807507	wait	20	3	0	3	0	12.0	0.0	12.0	0.0						1698.4656538999989	1705.5153228000272	1705.5153228000272	4.5	['4', 'a', '5', 'return']	[3.467183400003705, 3.8921329000149854, 4.123729200044181, 4.868210000044201]	7.04	6.43	0.0	20hz	low_pain	44.5			sub-pilot021	250	21	44.5	46	COM11	COM7	COM3	2023-11-20_10h24.58.331	001-EEG_SVR_Officel	2022.2.5	143.95863204086615		10.835999999999785	1_sub-pilot021_SVR_EEG_block3-4.protocol.csv	step59	7458	740.071	STIMULATE	44.5	44.4	44.4	44.5	44.7	59	1635.127
1622.05	0	811025	20hz	6	3	0	3	0	12.0	0.0	12.0	0.0						1698.4656538999989	1705.5153228000272	1705.5153228000272	4.5	['4', 'a', '5', 'return']	[3.467183400003705, 3.8921329000149854, 4.123729200044181, 4.868210000044201]	7.04	6.43	0.0	20hz	low_pain	44.5			sub-pilot021	250	21	44.5	46	COM11	COM7	COM3	2023-11-20_10h24.58.331	001-EEG_SVR_Officel	2022.2.5	143.95863204086615		7.036000000000058	1_sub-pilot021_SVR_EEG_block3-4.protocol.csv	step59	7458	740.071	STIMULATE	44.5	44.4	44.4	44.5	44.7	59	1635.127
1629.23	0	814615	20/Lo	5	3	0	3	0	12.0	0.0	12.0	0.0						1698.4656538999989	1705.5153228000272	1705.5153228000272	4.5	['4', 'a', '5', 'return']	[3.467183400003705, 3.8921329000149854, 4.123729200044181, 4.868210000044201]	7.04	6.43	0.0	20hz	low_pain	44.5			sub-pilot021	250	21	44.5	46	COM11	COM7	COM3	2023-11-20_10h24.58.331	001-EEG_SVR_Officel	2022.2.5	143.95863204086615		6.430000000000064	1_sub-pilot021_SVR_EEG_block3-4.protocol.csv	step59	7458	740.071	STIMULATE	44.5	44.4	44.4	44.5	44.7	59	1635.127
1639.946	0	819973	wait	20	3	0	3	0	13.0	0.0	13.0	0.0						1723.3992320999969	1729.2887595000211	1729.2887595000211	1.0	['1', 'return']	[3.486032199987676, 4.286379500001203]	5.88	5.58	1.0	20hz	low_pain	44.5			sub-pilot021	250	21	44.5	46	COM11	COM7	COM3	2023-11-20_10h24.58.331	001-EEG_SVR_Officel	2022.2.5	143.95863204086615		11.465999999999894	1_sub-pilot021_SVR_EEG_block3-4.protocol.csv	step61	7687	762.969	STIMULATE	44.6	44.4	44.4	44.4	44.6	61	1658.025
1645.824	0	822912	20hz	6	3	0	3	0	13.0	0.0	13.0	0.0						1723.3992320999969	1729.2887595000211	1729.2887595000211	1.0	['1', 'return']	[3.486032199987676, 4.286379500001203]	5.88	5.58	1.0	20hz	low_pain	44.5			sub-pilot021	250	21	44.5	46	COM11	COM7	COM3	2023-11-20_10h24.58.331	001-EEG_SVR_Officel	2022.2.5	143.95863204086615		5.878000000000156	1_sub-pilot021_SVR_EEG_block3-4.protocol.csv	step61	7687	762.969	STIMULATE	44.6	44.4	44.4	44.4	44.6	61	1658.025
1652.154	0	826077	20/Lo	5	3	0	3	0	13.0	0.0	13.0	0.0						1723.3992320999969	1729.2887595000211	1729.2887595000211	1.0	['1', 'return']	[3.486032199987676, 4.286379500001203]	5.88	5.58	1.0	20hz	low_pain	44.5			sub-pilot021	250	21	44.5	46	COM11	COM7	COM3	2023-11-20_10h24.58.331	001-EEG_SVR_Officel	2022.2.5	143.95863204086615		5.579999999999927	1_sub-pilot021_SVR_EEG_block3-4.protocol.csv	step61	7687	762.969	STIMULATE	44.6	44.4	44.4	44.4	44.6	61	1658.025
1663.142	0	831571	wait	20	3	0	3	0	14.0	0.0	14.0	0.0						1746.596747800009	1753.764212900016	1753.764212900016	1.0	['1', 'return']	[4.345183199970052, 5.281403100001626]	7.16	6.0	2.0	40hz	low_pain	44.5			sub-pilot021	250	21	44.5	46	COM11	COM7	COM3	2023-11-20_10h24.58.331	001-EEG_SVR_Officel	2022.2.5	143.95863204086615		11.738000000000056	1_sub-pilot021_SVR_EEG_block3-4.protocol.csv	step63	7932	787.835	STIMULATE	44.5	44.4	44.4	44.4	44.6	63	1682.891
1670.3	0	835150	40hz	9	3	0	3	0	14.0	0.0	14.0	0.0						1746.596747800009	1753.764212900016	1753.764212900016	1.0	['1', 'return']	[4.345183199970052, 5.281403100001626]	7.16	6.0	2.0	40hz	low_pain	44.5			sub-pilot021	250	21	44.5	46	COM11	COM7	COM3	2023-11-20_10h24.58.331	001-EEG_SVR_Officel	2022.2.5	143.95863204086615		7.157999999999902	1_sub-pilot021_SVR_EEG_block3-4.protocol.csv	step63	7932	787.835	STIMULATE	44.5	44.4	44.4	44.4	44.6	63	1682.891
1677.048	0	838524	40/Lo	8	3	0	3	0	14.0	0.0	14.0	0.0						1746.596747800009	1753.764212900016	1753.764212900016	1.0	['1', 'return']	[4.345183199970052, 5.281403100001626]	7.16	6.0	2.0	40hz	low_pain	44.5			sub-pilot021	250	21	44.5	46	COM11	COM7	COM3	2023-11-20_10h24.58.331	001-EEG_SVR_Officel	2022.2.5	143.95863204086615		5.998000000000047	1_sub-pilot021_SVR_EEG_block3-4.protocol.csv	step63	7932	787.835	STIMULATE	44.5	44.4	44.4	44.4	44.6	63	1682.891
1688.612	0	844306	wait	20	3	0	3	0	15.0	0.0	15.0	0.0						1772.0655078000273	1777.8649060000316	1777.8649060000316	2.5	['2', 'a', '5', 'return']	[3.9582861999515444, 4.454505999980029, 4.90229229995748, 5.694767399982084]	5.79	5.88	3.0	40hz	low_pain	44.5			sub-pilot021	250	21	44.5	46	COM11	COM7	COM3	2023-11-20_10h24.58.331	001-EEG_SVR_Officel	2022.2.5	143.95863204086615		12.314000000000078	1_sub-pilot021_SVR_EEG_block3-4.protocol.csv	step65	8165	811.886	STIMULATE	44.4	44.4	44.4	44.4	44.4	65	1706.942
1694.4	0	847200	40hz	9	3	0	3	0	15.0	0.0	15.0	0.0						1772.0655078000273	1777.8649060000316	1777.8649060000316	2.5	['2', 'a', '5', 'return']	[3.9582861999515444, 4.454505999980029, 4.90229229995748, 5.694767399982084]	5.79	5.88	3.0	40hz	low_pain	44.5			sub-pilot021	250	21	44.5	46	COM11	COM7	COM3	2023-11-20_10h24.58.331	001-EEG_SVR_Officel	2022.2.5	143.95863204086615		5.788000000000011	1_sub-pilot021_SVR_EEG_block3-4.protocol.csv	step65	8165	811.886	STIMULATE	44.4	44.4	44.4	44.4	44.4	65	1706.942
1701.03	0	850515	40/Lo	8	3	0	3	0	15.0	0.0	15.0	0.0						1772.0655078000273	1777.8649060000316	1777.8649060000316	2.5	['2', 'a', '5', 'return']	[3.9582861999515444, 4.454505999980029, 4.90229229995748, 5.694767399982084]	5.79	5.88	3.0	40hz	low_pain	44.5			sub-pilot021	250	21	44.5	46	COM11	COM7	COM3	2023-11-20_10h24.58.331	001-EEG_SVR_Officel	2022.2.5	143.95863204086615		5.879999999999882	1_sub-pilot021_SVR_EEG_block3-4.protocol.csv	step65	8165	811.886	STIMULATE	44.4	44.4	44.4	44.4	44.4	65	1706.942
1779.7	0	889850	wait	20	4	0	4	0	0.0	0.0	0.0	0.0				p	4.389479500008747	1863.152307900018	1869.9031040000264	1869.9031040000264	5.0	['5', 'return']	[3.6237413000199012, 4.231289700022899]	6.74	6.1	0.0	40hz	low_pain	44.5			sub-pilot021	250	21	44.5	46	COM11	COM7	COM3	2023-11-20_10h24.58.331	001-EEG_SVR_Officel	2022.2.5	143.95863204086615		79.42000000000007	2_sub-pilot021_SVR_EEG_block5-6.protocol.csv	step3	776	77.405	STIMULATE	44.6	44.4	44.4	44.4	44.6	3	1799.066
1786.436	0	893218	40hz	9	4	0	4	0	0.0	0.0	0.0	0.0				p	4.389479500008747	1863.152307900018	1869.9031040000264	1869.9031040000264	5.0	['5', 'return']	[3.6237413000199012, 4.231289700022899]	6.74	6.1	0.0	40hz	low_pain	44.5			sub-pilot021	250	21	44.5	46	COM11	COM7	COM3	2023-11-20_10h24.58.331	001-EEG_SVR_Officel	2022.2.5	143.95863204086615		6.735999999999876	2_sub-pilot021_SVR_EEG_block5-6.protocol.csv	step3	776	77.405	STIMULATE	44.6	44.4	44.4	44.4	44.6	3	1799.066
1793.29	0	896645	40/Lo	8	4	0	4	0	0.0	0.0	0.0	0.0				p	4.389479500008747	1863.152307900018	1869.9031040000264	1869.9031040000264	5.0	['5', 'return']	[3.6237413000199012, 4.231289700022899]	6.74	6.1	0.0	40hz	low_pain	44.5			sub-pilot021	250	21	44.5	46	COM11	COM7	COM3	2023-11-20_10h24.58.331	001-EEG_SVR_Officel	2022.2.5	143.95863204086615		6.104000000000042	2_sub-pilot021_SVR_EEG_block5-6.protocol.csv	step3	776	77.405	STIMULATE	44.6	44.4	44.4	44.4	44.6	3	1799.066
1803.692	0	901846	wait	20	4	0	4	0	1.0	0.0	1.0	0.0						1887.1481968000296	1893.280942599988	1893.280942599988	6.5	['6', 'a', '5', 'return']	[3.174473199993372, 3.8297103999648243, 4.05397130001802, 5.022259899997152]	6.12	5.4	1.0	20hz	low_pain	44.5			sub-pilot021	250	21	44.5	46	COM11	COM7	COM3	2023-11-20_10h24.58.331	001-EEG_SVR_Officel	2022.2.5	143.95863204086615		11.152000000000044	2_sub-pilot021_SVR_EEG_block5-6.protocol.csv	step5	1005	100.108	STIMULATE	44.4	44.4	44.4	44.5	44.7	5	1821.769
1809.816	0	904908	20hz	6	4	0	4	0	1.0	0.0	1.0	0.0						1887.1481968000296	1893.280942599988	1893.280942599988	6.5	['6', 'a', '5', 'return']	[3.174473199993372, 3.8297103999648243, 4.05397130001802, 5.022259899997152]	6.12	5.4	1.0	20hz	low_pain	44.5			sub-pilot021	250	21	44.5	46	COM11	COM7	COM3	2023-11-20_10h24.58.331	001-EEG_SVR_Officel	2022.2.5	143.95863204086615		6.124000000000024	2_sub-pilot021_SVR_EEG_block5-6.protocol.csv	step5	1005	100.108	STIMULATE	44.4	44.4	44.4	44.5	44.7	5	1821.769
1815.966	0	907983	20/Lo	5	4	0	4	0	1.0	0.0	1.0	0.0						1887.1481968000296	1893.280942599988	1893.280942599988	6.5	['6', 'a', '5', 'return']	[3.174473199993372, 3.8297103999648243, 4.05397130001802, 5.022259899997152]	6.12	5.4	1.0	20hz	low_pain	44.5			sub-pilot021	250	21	44.5	46	COM11	COM7	COM3	2023-11-20_10h24.58.331	001-EEG_SVR_Officel	2022.2.5	143.95863204086615		5.399999999999864	2_sub-pilot021_SVR_EEG_block5-6.protocol.csv	step5	1005	100.108	STIMULATE	44.4	44.4	44.4	44.5	44.7	5	1821.769
1827.87	0	913935	wait	20	4	0	4	0	2.0	0.0	2.0	0.0						1911.3248408000215	1916.8047126000165	1916.8047126000165	7.5	['7', 'a', '5', 'return']	[3.3300907000084408, 3.81030459998874, 4.02644169999985, 4.674933200003579]	5.47	5.73	2.0	40hz	high_pain	46.0			sub-pilot021	250	21	44.5	46	COM11	COM7	COM3	2023-11-20_10h24.58.331	001-EEG_SVR_Officel	2022.2.5	143.95863204086615		12.653999999999996	2_sub-pilot021_SVR_EEG_block5-6.protocol.csv	step7	1246	124.0	STIMULATE	45.9	45.9	45.9	45.9	46.1	7	1845.661
1833.338	0	916669	40hz	9	4	0	4	0	2.0	0.0	2.0	0.0						1911.3248408000215	1916.8047126000165	1916.8047126000165	7.5	['7', 'a', '5', 'return']	[3.3300907000084408, 3.81030459998874, 4.02644169999985, 4.674933200003579]	5.47	5.73	2.0	40hz	high_pain	46.0			sub-pilot021	250	21	44.5	46	COM11	COM7	COM3	2023-11-20_10h24.58.331	001-EEG_SVR_Officel	2022.2.5	143.95863204086615		5.468000000000075	2_sub-pilot021_SVR_EEG_block5-6.protocol.csv	step7	1246	124.0	STIMULATE	45.9	45.9	45.9	45.9	46.1	7	1845.661
1839.822	0	919911	40/Hi	7	4	0	4	0	2.0	0.0	2.0	0.0						1911.3248408000215	1916.8047126000165	1916.8047126000165	7.5	['7', 'a', '5', 'return']	[3.3300907000084408, 3.81030459998874, 4.02644169999985, 4.674933200003579]	5.47	5.73	2.0	40hz	high_pain	46.0			sub-pilot021	250	21	44.5	46	COM11	COM7	COM3	2023-11-20_10h24.58.331	001-EEG_SVR_Officel	2022.2.5	143.95863204086615		5.733999999999924	2_sub-pilot021_SVR_EEG_block5-6.protocol.csv	step7	1246	124.0	STIMULATE	45.9	45.9	45.9	45.9	46.1	7	1845.661
1851.038	0	925519	wait	20	4	0	4	0	3.0	0.0	3.0	0.0						1934.4937962000256	1941.6897070000412	1941.6897070000412	6.0	['6', 'return']	[2.677051200007554, 3.4220268999924883]	7.19	5.03	3.0	controle	low_pain	44.5			sub-pilot021	250	21	44.5	46	COM11	COM7	COM3	2023-11-20_10h24.58.331	001-EEG_SVR_Officel	2022.2.5	143.95863204086615		11.966000000000122	2_sub-pilot021_SVR_EEG_block5-6.protocol.csv	step9	1489	148.107	STIMULATE	44.5	44.4	44.4	44.4	44.4	9	1869.768
1858.224	0	929112	CNhz	12	4	0	4	0	3.0	0.0	3.0	0.0						1934.4937962000256	1941.6897070000412	1941.6897070000412	6.0	['6', 'return']	[2.677051200007554, 3.4220268999924883]	7.19	5.03	3.0	controle	low_pain	44.5			sub-pilot021	250	21	44.5	46	COM11	COM7	COM3	2023-11-20_10h24.58.331	001-EEG_SVR_Officel	2022.2.5	143.95863204086615		7.185999999999922	2_sub-pilot021_SVR_EEG_block5-6.protocol.csv	step9	1489	148.107	STIMULATE	44.5	44.4	44.4	44.4	44.4	9	1869.768
1864.006	0	932003	CN/Lo	11	4	0	4	0	3.0	0.0	3.0	0.0						1934.4937962000256	1941.6897070000412	1941.6897070000412	6.0	['6', 'return']	[2.677051200007554, 3.4220268999924883]	7.19	5.03	3.0	controle	low_pain	44.5			sub-pilot021	250	21	44.5	46	COM11	COM7	COM3	2023-11-20_10h24.58.331	001-EEG_SVR_Officel	2022.2.5	143.95863204086615		5.032000000000153	2_sub-pilot021_SVR_EEG_block5-6.protocol.csv	step9	1489	148.107	STIMULATE	44.5	44.4	44.4	44.4	44.4	9	1869.768
1874.668	0	937334	wait	20	4	0	4	0	4.0	0.0	4.0	0.0						1958.122432500008	1963.3312508999952	1963.3312508999952	8.5	['8', 'a', '5', 'return']	[3.7327182999579236, 4.212544799956959, 4.573541999969166, 5.268523999955505]	5.2	5.81	0.0	40hz	high_pain	46.0			sub-pilot021	250	21	44.5	46	COM11	COM7	COM3	2023-11-20_10h24.58.331	001-EEG_SVR_Officel	2022.2.5	143.95863204086615		11.411999999999807	2_sub-pilot021_SVR_EEG_block5-6.protocol.csv	step11	1716	170.62	STIMULATE	46.0	45.9	45.9	46.1	46.2	11	1892.281
1879.864	0	939932	40hz	9	4	0	4	0	4.0	0.0	4.0	0.0						1958.122432500008	1963.3312508999952	1963.3312508999952	8.5	['8', 'a', '5', 'return']	[3.7327182999579236, 4.212544799956959, 4.573541999969166, 5.268523999955505]	5.2	5.81	0.0	40hz	high_pain	46.0			sub-pilot021	250	21	44.5	46	COM11	COM7	COM3	2023-11-20_10h24.58.331	001-EEG_SVR_Officel	2022.2.5	143.95863204086615		5.19600000000014	2_sub-pilot021_SVR_EEG_block5-6.protocol.csv	step11	1716	170.62	STIMULATE	46.0	45.9	45.9	46.1	46.2	11	1892.281
1886.426	0	943213	40/Hi	7	4	0	4	0	4.0	0.0	4.0	0.0						1958.122432500008	1963.3312508999952	1963.3312508999952	8.5	['8', 'a', '5', 'return']	[3.7327182999579236, 4.212544799956959, 4.573541999969166, 5.268523999955505]	5.2	5.81	0.0	40hz	high_pain	46.0			sub-pilot021	250	21	44.5	46	COM11	COM7	COM3	2023-11-20_10h24.58.331	001-EEG_SVR_Officel	2022.2.5	143.95863204086615		5.811999999999898	2_sub-pilot021_SVR_EEG_block5-6.protocol.csv	step11	1716	170.62	STIMULATE	46.0	45.9	45.9	46.1	46.2	11	1892.281
1898.156	0	949078	wait	20	4	0	4	0	5.0	0.0	5.0	0.0						1981.610179100011	1988.4730626000087	1988.4730626000087	8.5	['8', 'a', '5', 'return']	[2.9821413999889046, 3.421269399987068, 3.781995800032746, 4.405564000015147]	6.85	5.86	1.0	20hz	high_pain	46.0			sub-pilot021	250	21	44.5	46	COM11	COM7	COM3	2023-11-20_10h24.58.331	001-EEG_SVR_Officel	2022.2.5	143.95863204086615		12.480000000000018	2_sub-pilot021_SVR_EEG_block5-6.protocol.csv	step13	1970	195.833	STIMULATE	46.0	45.9	45.9	46.0	46.1	13	1917.494
