onset	duration	sample	trial_type	value	block.thisRepN	block.thisTrialN	block.thisN	block.thisIndex	reps.thisRepN	reps.thisTrialN	reps.thisN	reps.thisIndex	afrec_start	rec_start	rec_start_egi	key_resp.keys	key_resp.rt	wait_time_text.started	wait_time_text.stopped	therm_loca_text.started	subResponse	keyResp.keys	keyResp.rt	ITI_wait	wait_trigger	loca_thermode	Hz_condition	temp_condition	temp_valeur	text.started	text.stopped	participant	brightness	num_part	low	high	com_svr	com_thermode	com_eeg	date	expName	psychopyVersion	frameRate	Unnamed: 39	distance_from_previous	file	step	index	time	type	temp1	temp2	temp3	temp4	temp5	step_num	time_sync
86.334	0	43167	wait	20	0	0	0	0	0.0	0.0	0.0	0.0	53.21401079976931	53.01752860005945	1709926978.0343	p	86.09574460005388	139.3501971997321	144.70952320005745	144.70952320005745	4.0	['4', 'return']	[3.1677501001395285, 8.080527900252491]	5.35	5.42	0.0	10hz	low_pain	45.0			sub-023	250	23	45	47	COM11	COM15	COM3	2024-03-08_14h42.20.666	001-EEG_SVR_Officel	2022.2.5	144.04551795218583		86.334	0_sub-023_SVR_EEG_block1-2.protocol.csv	step3	1109	110.716	STIMULATE	45.0	44.9	44.9	44.9	45.1	3	103.65599999999999
91.68	0	45840	10hz	3	0	0	0	0	0.0	0.0	0.0	0.0	53.21401079976931	53.01752860005945	1709926978.0343	p	86.09574460005388	139.3501971997321	144.70952320005745	144.70952320005745	4.0	['4', 'return']	[3.1677501001395285, 8.080527900252491]	5.35	5.42	0.0	10hz	low_pain	45.0			sub-023	250	23	45	47	COM11	COM15	COM3	2024-03-08_14h42.20.666	001-EEG_SVR_Officel	2022.2.5	144.04551795218583		5.346000000000004	0_sub-023_SVR_EEG_block1-2.protocol.csv	step3	1109	110.716	STIMULATE	45.0	44.9	44.9	44.9	45.1	3	103.65599999999999
97.852	0	48926	10/Lo	2	0	0	0	0	0.0	0.0	0.0	0.0	53.21401079976931	53.01752860005945	1709926978.0343	p	86.09574460005388	139.3501971997321	144.70952320005745	144.70952320005745	4.0	['4', 'return']	[3.1677501001395285, 8.080527900252491]	5.35	5.42	0.0	10hz	low_pain	45.0			sub-023	250	23	45	47	COM11	COM15	COM3	2024-03-08_14h42.20.666	001-EEG_SVR_Officel	2022.2.5	144.04551795218583		5.421999999999997	0_sub-023_SVR_EEG_block1-2.protocol.csv	step3	1109	110.716	STIMULATE	45.0	44.9	44.9	44.9	45.1	3	103.65599999999999
112.79	0	56395	wait	20	0	0	0	0	1.0	0.0	1.0	0.0						165.8087418996729	171.63594749988988	171.63594749988988	8.0	['8', 'return']	[3.0496543999761343, 3.56791349966079]	5.82	5.35	1.0	controle	high_pain	47.0			sub-023	250	23	45	47	COM11	COM15	COM3	2024-03-08_14h42.20.666	001-EEG_SVR_Officel	2022.2.5	144.04551795218583		15.688000000000002	0_sub-023_SVR_EEG_block1-2.protocol.csv	step5	1380	137.618	STIMULATE	47.1	46.9	47.0	47.0	47.1	5	130.558
118.606	0	59303	CNhz	12	0	0	0	0	1.0	0.0	1.0	0.0						165.8087418996729	171.63594749988988	171.63594749988988	8.0	['8', 'return']	[3.0496543999761343, 3.56791349966079]	5.82	5.35	1.0	controle	high_pain	47.0			sub-023	250	23	45	47	COM11	COM15	COM3	2024-03-08_14h42.20.666	001-EEG_SVR_Officel	2022.2.5	144.04551795218583		5.815999999999988	0_sub-023_SVR_EEG_block1-2.protocol.csv	step5	1380	137.618	STIMULATE	47.1	46.9	47.0	47.0	47.1	5	130.558
124.708	0	62354	CN/Hi	10	0	0	0	0	1.0	0.0	1.0	0.0						165.8087418996729	171.63594749988988	171.63594749988988	8.0	['8', 'return']	[3.0496543999761343, 3.56791349966079]	5.82	5.35	1.0	controle	high_pain	47.0			sub-023	250	23	45	47	COM11	COM15	COM3	2024-03-08_14h42.20.666	001-EEG_SVR_Officel	2022.2.5	144.04551795218583		5.352000000000004	0_sub-023_SVR_EEG_block1-2.protocol.csv	step5	1380	137.618	STIMULATE	47.1	46.9	47.0	47.0	47.1	5	130.558
135.196	0	67598	wait	20	0	0	0	0	2.0	0.0	2.0	0.0						188.21420970000327	195.93051759991795	195.93051759991795	8.5	['8', 'a', '5', 'return']	[2.098648500163108, 2.538499199785292, 2.8503992999903858, 3.4903698000125587]	7.71	5.39	2.0	40hz	high_pain	47.0			sub-023	250	23	45	47	COM11	COM15	COM3	2024-03-08_14h42.20.666	001-EEG_SVR_Officel	2022.2.5	144.04551795218583		11.238	0_sub-023_SVR_EEG_block1-2.protocol.csv	step7	1625	161.919	STIMULATE	47.2	46.9	47.0	46.9	47.2	7	154.859
142.9	0	71450	40hz	9	0	0	0	0	2.0	0.0	2.0	0.0						188.21420970000327	195.93051759991795	195.93051759991795	8.5	['8', 'a', '5', 'return']	[2.098648500163108, 2.538499199785292, 2.8503992999903858, 3.4903698000125587]	7.71	5.39	2.0	40hz	high_pain	47.0			sub-023	250	23	45	47	COM11	COM15	COM3	2024-03-08_14h42.20.666	001-EEG_SVR_Officel	2022.2.5	144.04551795218583		7.704000000000008	0_sub-023_SVR_EEG_block1-2.protocol.csv	step7	1625	161.919	STIMULATE	47.2	46.9	47.0	46.9	47.2	7	154.859
149.046	0	74523	40/Hi	7	0	0	0	0	2.0	0.0	2.0	0.0						188.21420970000327	195.93051759991795	195.93051759991795	8.5	['8', 'a', '5', 'return']	[2.098648500163108, 2.538499199785292, 2.8503992999903858, 3.4903698000125587]	7.71	5.39	2.0	40hz	high_pain	47.0			sub-023	250	23	45	47	COM11	COM15	COM3	2024-03-08_14h42.20.666	001-EEG_SVR_Officel	2022.2.5	144.04551795218583		5.395999999999987	0_sub-023_SVR_EEG_block1-2.protocol.csv	step7	1625	161.919	STIMULATE	47.2	46.9	47.0	46.9	47.2	7	154.859
159.422	0	79711	wait	20	0	0	0	0	3.0	0.0	3.0	0.0						212.43941129976884	219.8292541000992	219.8292541000992	6.5	['6', 'a', '5', 'return']	[3.43189650028944, 3.7444592001847923, 3.9596694000065327, 5.064202700275928]	7.38	6.14	3.0	20hz	low_pain	45.0			sub-023	250	23	45	47	COM11	COM15	COM3	2024-03-08_14h42.20.666	001-EEG_SVR_Officel	2022.2.5	144.04551795218583		11.126000000000005	0_sub-023_SVR_EEG_block1-2.protocol.csv	step9	1874	186.665	STIMULATE	45.0	44.9	44.9	44.9	45.0	9	179.605
166.8	0	83400	20hz	6	0	0	0	0	3.0	0.0	3.0	0.0						212.43941129976884	219.8292541000992	219.8292541000992	6.5	['6', 'a', '5', 'return']	[3.43189650028944, 3.7444592001847923, 3.9596694000065327, 5.064202700275928]	7.38	6.14	3.0	20hz	low_pain	45.0			sub-023	250	23	45	47	COM11	COM15	COM3	2024-03-08_14h42.20.666	001-EEG_SVR_Officel	2022.2.5	144.04551795218583		7.378000000000014	0_sub-023_SVR_EEG_block1-2.protocol.csv	step9	1874	186.665	STIMULATE	45.0	44.9	44.9	44.9	45.0	9	179.605
173.694	0	86847	20/Lo	5	0	0	0	0	3.0	0.0	3.0	0.0						212.43941129976884	219.8292541000992	219.8292541000992	6.5	['6', 'a', '5', 'return']	[3.43189650028944, 3.7444592001847923, 3.9596694000065327, 5.064202700275928]	7.38	6.14	3.0	20hz	low_pain	45.0			sub-023	250	23	45	47	COM11	COM15	COM3	2024-03-08_14h42.20.666	001-EEG_SVR_Officel	2022.2.5	144.04551795218583		6.143999999999977	0_sub-023_SVR_EEG_block1-2.protocol.csv	step9	1874	186.665	STIMULATE	45.0	44.9	44.9	44.9	45.0	9	179.605
184.896	0	92448	wait	20	0	0	0	0	4.0	0.0	4.0	0.0						237.9147516000085	243.22083829995245	243.22083829995245	3.0	['3', 'return']	[2.103508500382304, 2.6552682002075016]	5.3	5.06	0.0	40hz	low_pain	45.0			sub-023	250	23	45	47	COM11	COM15	COM3	2024-03-08_14h42.20.666	001-EEG_SVR_Officel	2022.2.5	144.04551795218583		11.951999999999998	0_sub-023_SVR_EEG_block1-2.protocol.csv	step11	2099	208.98	STIMULATE	45.0	44.9	44.9	44.9	45.1	11	201.92
190.19	0	95095	40hz	9	0	0	0	0	4.0	0.0	4.0	0.0						237.9147516000085	243.22083829995245	243.22083829995245	3.0	['3', 'return']	[2.103508500382304, 2.6552682002075016]	5.3	5.06	0.0	40hz	low_pain	45.0			sub-023	250	23	45	47	COM11	COM15	COM3	2024-03-08_14h42.20.666	001-EEG_SVR_Officel	2022.2.5	144.04551795218583		5.294000000000011	0_sub-023_SVR_EEG_block1-2.protocol.csv	step11	2099	208.98	STIMULATE	45.0	44.9	44.9	44.9	45.1	11	201.92
196.002	0	98001	40/Lo	8	0	0	0	0	4.0	0.0	4.0	0.0						237.9147516000085	243.22083829995245	243.22083829995245	3.0	['3', 'return']	[2.103508500382304, 2.6552682002075016]	5.3	5.06	0.0	40hz	low_pain	45.0			sub-023	250	23	45	47	COM11	COM15	COM3	2024-03-08_14h42.20.666	001-EEG_SVR_Officel	2022.2.5	144.04551795218583		5.062000000000012	0_sub-023_SVR_EEG_block1-2.protocol.csv	step11	2099	208.98	STIMULATE	45.0	44.9	44.9	44.9	45.1	11	201.92
205.886	0	102943	wait	20	0	0	0	0	5.0	0.0	5.0	0.0						258.90389589965343	265.0366094000637	265.0366094000637	4.0	['4', 'return']	[2.192365499678999, 2.8971042996272445]	6.12	6.48	1.0	controle	low_pain	45.0			sub-023	250	23	45	47	COM11	COM15	COM3	2024-03-08_14h42.20.666	001-EEG_SVR_Officel	2022.2.5	144.04551795218583		10.633999999999986	0_sub-023_SVR_EEG_block1-2.protocol.csv	step13	2334	232.243	STIMULATE	45.1	44.9	44.9	44.9	45.1	13	225.183
212.006	0	106003	CNhz	12	0	0	0	0	5.0	0.0	5.0	0.0						258.90389589965343	265.0366094000637	265.0366094000637	4.0	['4', 'return']	[2.192365499678999, 2.8971042996272445]	6.12	6.48	1.0	controle	low_pain	45.0			sub-023	250	23	45	47	COM11	COM15	COM3	2024-03-08_14h42.20.666	001-EEG_SVR_Officel	2022.2.5	144.04551795218583		6.1200000000000045	0_sub-023_SVR_EEG_block1-2.protocol.csv	step13	2334	232.243	STIMULATE	45.1	44.9	44.9	44.9	45.1	13	225.183
219.24	0	109620	CN/Lo	11	0	0	0	0	5.0	0.0	5.0	0.0						258.90389589965343	265.0366094000637	265.0366094000637	4.0	['4', 'return']	[2.192365499678999, 2.8971042996272445]	6.12	6.48	1.0	controle	low_pain	45.0			sub-023	250	23	45	47	COM11	COM15	COM3	2024-03-08_14h42.20.666	001-EEG_SVR_Officel	2022.2.5	144.04551795218583		6.484000000000009	0_sub-023_SVR_EEG_block1-2.protocol.csv	step13	2334	232.243	STIMULATE	45.1	44.9	44.9	44.9	45.1	13	225.183
227.936	0	113968	wait	20	0	0	0	0	6.0	0.0	6.0	0.0						280.95457139983773	286.42757930001244	286.42757930001244	6.0	['6', 'return']	[2.3384251999668777, 3.393407499883324]	5.46	5.42	2.0	20hz	high_pain	47.0			sub-023	250	23	45	47	COM11	COM15	COM3	2024-03-08_14h42.20.666	001-EEG_SVR_Officel	2022.2.5	144.04551795218583		9.445999999999998	0_sub-023_SVR_EEG_block1-2.protocol.csv	step15	2538	252.485	STIMULATE	47.0	47.0	47.0	47.0	47.1	15	245.425
233.396	0	116698	20hz	6	0	0	0	0	6.0	0.0	6.0	0.0						280.95457139983773	286.42757930001244	286.42757930001244	6.0	['6', 'return']	[2.3384251999668777, 3.393407499883324]	5.46	5.42	2.0	20hz	high_pain	47.0			sub-023	250	23	45	47	COM11	COM15	COM3	2024-03-08_14h42.20.666	001-EEG_SVR_Officel	2022.2.5	144.04551795218583		5.4599999999999795	0_sub-023_SVR_EEG_block1-2.protocol.csv	step15	2538	252.485	STIMULATE	47.0	47.0	47.0	47.0	47.1	15	245.425
239.57	0	119785	20/Hi	4	0	0	0	0	6.0	0.0	6.0	0.0						280.95457139983773	286.42757930001244	286.42757930001244	6.0	['6', 'return']	[2.3384251999668777, 3.393407499883324]	5.46	5.42	2.0	20hz	high_pain	47.0			sub-023	250	23	45	47	COM11	COM15	COM3	2024-03-08_14h42.20.666	001-EEG_SVR_Officel	2022.2.5	144.04551795218583		5.424000000000007	0_sub-023_SVR_EEG_block1-2.protocol.csv	step15	2538	252.485	STIMULATE	47.0	47.0	47.0	47.0	47.1	15	245.425
249.82	0	124910	wait	20	0	0	0	0	7.0	0.0	7.0	0.0						302.83917560009286	310.6596530000679	310.6596530000679	9.0	['9', 'return']	[2.1371967997401953, 2.69708380009979]	7.81	6.11	3.0	20hz	high_pain	47.0			sub-023	250	23	45	47	COM11	COM15	COM3	2024-03-08_14h42.20.666	001-EEG_SVR_Officel	2022.2.5	144.04551795218583		11.0	0_sub-023_SVR_EEG_block1-2.protocol.csv	step17	2790	277.432	STIMULATE	47.0	46.9	47.0	47.0	47.1	17	270.372
257.63	0	128815	20hz	6	0	0	0	0	7.0	0.0	7.0	0.0						302.83917560009286	310.6596530000679	310.6596530000679	9.0	['9', 'return']	[2.1371967997401953, 2.69708380009979]	7.81	6.11	3.0	20hz	high_pain	47.0			sub-023	250	23	45	47	COM11	COM15	COM3	2024-03-08_14h42.20.666	001-EEG_SVR_Officel	2022.2.5	144.04551795218583		7.810000000000002	0_sub-023_SVR_EEG_block1-2.protocol.csv	step17	2790	277.432	STIMULATE	47.0	46.9	47.0	47.0	47.1	17	270.372
264.488	0	132244	20/Hi	4	0	0	0	0	7.0	0.0	7.0	0.0						302.83917560009286	310.6596530000679	310.6596530000679	9.0	['9', 'return']	[2.1371967997401953, 2.69708380009979]	7.81	6.11	3.0	20hz	high_pain	47.0			sub-023	250	23	45	47	COM11	COM15	COM3	2024-03-08_14h42.20.666	001-EEG_SVR_Officel	2022.2.5	144.04551795218583		6.108000000000004	0_sub-023_SVR_EEG_block1-2.protocol.csv	step17	2790	277.432	STIMULATE	47.0	46.9	47.0	47.0	47.1	17	270.372
273.35	0	136675	wait	20	0	0	0	0	8.0	0.0	8.0	0.0						326.3689482999034	333.1483807000332	333.1483807000332	1.5	['1', 'a', '5', 'return']	[2.4092436996288598, 3.1049268995411694, 3.3280404997058213, 4.514016299974173]	6.77	6.35	0.0	20hz	low_pain	45.0			sub-023	250	23	45	47	COM11	COM15	COM3	2024-03-08_14h42.20.666	001-EEG_SVR_Officel	2022.2.5	144.04551795218583		9.612000000000023	0_sub-023_SVR_EEG_block1-2.protocol.csv	step19	3019	300.143	STIMULATE	45.0	44.9	44.9	44.9	45.1	19	293.08299999999997
280.118	0	140059	20hz	6	0	0	0	0	8.0	0.0	8.0	0.0						326.3689482999034	333.1483807000332	333.1483807000332	1.5	['1', 'a', '5', 'return']	[2.4092436996288598, 3.1049268995411694, 3.3280404997058213, 4.514016299974173]	6.77	6.35	0.0	20hz	low_pain	45.0			sub-023	250	23	45	47	COM11	COM15	COM3	2024-03-08_14h42.20.666	001-EEG_SVR_Officel	2022.2.5	144.04551795218583		6.767999999999972	0_sub-023_SVR_EEG_block1-2.protocol.csv	step19	3019	300.143	STIMULATE	45.0	44.9	44.9	44.9	45.1	19	293.08299999999997
287.22	0	143610	20/Lo	5	0	0	0	0	8.0	0.0	8.0	0.0						326.3689482999034	333.1483807000332	333.1483807000332	1.5	['1', 'a', '5', 'return']	[2.4092436996288598, 3.1049268995411694, 3.3280404997058213, 4.514016299974173]	6.77	6.35	0.0	20hz	low_pain	45.0			sub-023	250	23	45	47	COM11	COM15	COM3	2024-03-08_14h42.20.666	001-EEG_SVR_Officel	2022.2.5	144.04551795218583		6.352000000000032	0_sub-023_SVR_EEG_block1-2.protocol.csv	step19	3019	300.143	STIMULATE	45.0	44.9	44.9	44.9	45.1	19	293.08299999999997
297.66	0	148830	wait	20	0	0	0	0	9.0	0.0	9.0	0.0						350.6785781998188	357.54024920007214	357.54024920007214	6.0	['6', 'return']	[2.1996520003303885, 2.9044815003871918]	6.85	5.68	1.0	40hz	high_pain	47.0			sub-023	250	23	45	47	COM11	COM15	COM3	2024-03-08_14h42.20.666	001-EEG_SVR_Officel	2022.2.5	144.04551795218583		11.189999999999998	0_sub-023_SVR_EEG_block1-2.protocol.csv	step21	3258	323.881	STIMULATE	47.0	47.0	47.0	47.0	47.2	21	316.82099999999997
304.508	0	152254	40hz	9	0	0	0	0	9.0	0.0	9.0	0.0						350.6785781998188	357.54024920007214	357.54024920007214	6.0	['6', 'return']	[2.1996520003303885, 2.9044815003871918]	6.85	5.68	1.0	40hz	high_pain	47.0			sub-023	250	23	45	47	COM11	COM15	COM3	2024-03-08_14h42.20.666	001-EEG_SVR_Officel	2022.2.5	144.04551795218583		6.847999999999956	0_sub-023_SVR_EEG_block1-2.protocol.csv	step21	3258	323.881	STIMULATE	47.0	47.0	47.0	47.0	47.2	21	316.82099999999997
310.938	0	155469	40/Hi	7	0	0	0	0	9.0	0.0	9.0	0.0						350.6785781998188	357.54024920007214	357.54024920007214	6.0	['6', 'return']	[2.1996520003303885, 2.9044815003871918]	6.85	5.68	1.0	40hz	high_pain	47.0			sub-023	250	23	45	47	COM11	COM15	COM3	2024-03-08_14h42.20.666	001-EEG_SVR_Officel	2022.2.5	144.04551795218583		5.680000000000007	0_sub-023_SVR_EEG_block1-2.protocol.csv	step21	3258	323.881	STIMULATE	47.0	47.0	47.0	47.0	47.2	21	316.82099999999997
320.446	0	160223	wait	20	0	0	0	0	10.0	0.0	10.0	0.0						373.4661745000631	378.8488280000165	378.8488280000165	3.0	['3', 'return']	[2.9412565999664366, 3.4757850002497435]	5.37	5.65	2.0	controle	low_pain	45.0			sub-023	250	23	45	47	COM11	COM15	COM3	2024-03-08_14h42.20.666	001-EEG_SVR_Officel	2022.2.5	144.04551795218583		10.258000000000038	0_sub-023_SVR_EEG_block1-2.protocol.csv	step23	3473	345.188	STIMULATE	45.0	44.9	44.9	44.9	45.0	23	338.128
325.818	0	162909	CNhz	12	0	0	0	0	10.0	0.0	10.0	0.0						373.4661745000631	378.8488280000165	378.8488280000165	3.0	['3', 'return']	[2.9412565999664366, 3.4757850002497435]	5.37	5.65	2.0	controle	low_pain	45.0			sub-023	250	23	45	47	COM11	COM15	COM3	2024-03-08_14h42.20.666	001-EEG_SVR_Officel	2022.2.5	144.04551795218583		5.371999999999957	0_sub-023_SVR_EEG_block1-2.protocol.csv	step23	3473	345.188	STIMULATE	45.0	44.9	44.9	44.9	45.0	23	338.128
332.22	0	166110	CN/Lo	11	0	0	0	0	10.0	0.0	10.0	0.0						373.4661745000631	378.8488280000165	378.8488280000165	3.0	['3', 'return']	[2.9412565999664366, 3.4757850002497435]	5.37	5.65	2.0	controle	low_pain	45.0			sub-023	250	23	45	47	COM11	COM15	COM3	2024-03-08_14h42.20.666	001-EEG_SVR_Officel	2022.2.5	144.04551795218583		5.652000000000044	0_sub-023_SVR_EEG_block1-2.protocol.csv	step23	3473	345.188	STIMULATE	45.0	44.9	44.9	44.9	45.0	23	338.128
342.324	0	171162	wait	20	0	0	0	0	11.0	0.0	11.0	0.0						395.3434453997761	403.26747459964827	403.26747459964827	2.5	['2', 'a', '5', 'return']	[3.297356199938804, 3.7211962998844683, 3.9053273000754416, 4.873746199999005]	7.92	5.65	3.0	controle	low_pain	45.0			sub-023	250	23	45	47	COM11	COM15	COM3	2024-03-08_14h42.20.666	001-EEG_SVR_Officel	2022.2.5	144.04551795218583		10.853999999999985	0_sub-023_SVR_EEG_block1-2.protocol.csv	step25	3719	369.524	STIMULATE	44.9	44.9	44.9	44.9	45.0	25	362.46399999999994
350.238	0	175119	CNhz	12	0	0	0	0	11.0	0.0	11.0	0.0						395.3434453997761	403.26747459964827	403.26747459964827	2.5	['2', 'a', '5', 'return']	[3.297356199938804, 3.7211962998844683, 3.9053273000754416, 4.873746199999005]	7.92	5.65	3.0	controle	low_pain	45.0			sub-023	250	23	45	47	COM11	COM15	COM3	2024-03-08_14h42.20.666	001-EEG_SVR_Officel	2022.2.5	144.04551795218583		7.913999999999987	0_sub-023_SVR_EEG_block1-2.protocol.csv	step25	3719	369.524	STIMULATE	44.9	44.9	44.9	44.9	45.0	25	362.46399999999994
356.638	0	178319	CN/Lo	11	0	0	0	0	11.0	0.0	11.0	0.0						395.3434453997761	403.26747459964827	403.26747459964827	2.5	['2', 'a', '5', 'return']	[3.297356199938804, 3.7211962998844683, 3.9053273000754416, 4.873746199999005]	7.92	5.65	3.0	controle	low_pain	45.0			sub-023	250	23	45	47	COM11	COM15	COM3	2024-03-08_14h42.20.666	001-EEG_SVR_Officel	2022.2.5	144.04551795218583		5.649999999999977	0_sub-023_SVR_EEG_block1-2.protocol.csv	step25	3719	369.524	STIMULATE	44.9	44.9	44.9	44.9	45.0	25	362.46399999999994
368.146	0	184073	wait	20	0	0	0	0	12.0	0.0	12.0	0.0						421.1658759997226	428.4166850997135	428.4166850997135	7.5	['7', 'a', '5', 'return']	[2.3952907999046147, 2.81101890001446, 3.0277492003515363, 3.7873811000026762]	7.24	6.1	0.0	controle	high_pain	47.0			sub-023	250	23	45	47	COM11	COM15	COM3	2024-03-08_14h42.20.666	001-EEG_SVR_Officel	2022.2.5	144.04551795218583		12.258000000000038	0_sub-023_SVR_EEG_block1-2.protocol.csv	step27	3978	395.233	STIMULATE	47.1	46.9	47.0	47.0	47.0	27	388.173
375.384	0	187692	CNhz	12	0	0	0	0	12.0	0.0	12.0	0.0						421.1658759997226	428.4166850997135	428.4166850997135	7.5	['7', 'a', '5', 'return']	[2.3952907999046147, 2.81101890001446, 3.0277492003515363, 3.7873811000026762]	7.24	6.1	0.0	controle	high_pain	47.0			sub-023	250	23	45	47	COM11	COM15	COM3	2024-03-08_14h42.20.666	001-EEG_SVR_Officel	2022.2.5	144.04551795218583		7.2379999999999995	0_sub-023_SVR_EEG_block1-2.protocol.csv	step27	3978	395.233	STIMULATE	47.1	46.9	47.0	47.0	47.0	27	388.173
382.238	0	191119	CN/Hi	10	0	0	0	0	12.0	0.0	12.0	0.0						421.1658759997226	428.4166850997135	428.4166850997135	7.5	['7', 'a', '5', 'return']	[2.3952907999046147, 2.81101890001446, 3.0277492003515363, 3.7873811000026762]	7.24	6.1	0.0	controle	high_pain	47.0			sub-023	250	23	45	47	COM11	COM15	COM3	2024-03-08_14h42.20.666	001-EEG_SVR_Officel	2022.2.5	144.04551795218583		6.103999999999985	0_sub-023_SVR_EEG_block1-2.protocol.csv	step27	3978	395.233	STIMULATE	47.1	46.9	47.0	47.0	47.0	27	388.173
392.198	0	196099	wait	20	0	0	0	0	13.0	0.0	13.0	0.0						445.2169784000144	450.3777206996456	450.3777206996456	8.0	['8', 'return']	[2.4742294000461698, 3.002958499826491]	5.15	5.41	1.0	10hz	high_pain	47.0			sub-023	250	23	45	47	COM11	COM15	COM3	2024-03-08_14h42.20.666	001-EEG_SVR_Officel	2022.2.5	144.04551795218583		10.70999999999998	0_sub-023_SVR_EEG_block1-2.protocol.csv	step29	4191	416.317	STIMULATE	47.0	47.0	47.0	47.0	47.1	29	409.25699999999995
397.346	0	198673	10hz	3	0	0	0	0	13.0	0.0	13.0	0.0						445.2169784000144	450.3777206996456	450.3777206996456	8.0	['8', 'return']	[2.4742294000461698, 3.002958499826491]	5.15	5.41	1.0	10hz	high_pain	47.0			sub-023	250	23	45	47	COM11	COM15	COM3	2024-03-08_14h42.20.666	001-EEG_SVR_Officel	2022.2.5	144.04551795218583		5.148000000000025	0_sub-023_SVR_EEG_block1-2.protocol.csv	step29	4191	416.317	STIMULATE	47.0	47.0	47.0	47.0	47.1	29	409.25699999999995
403.504	0	201752	10/Hi	1	0	0	0	0	13.0	0.0	13.0	0.0						445.2169784000144	450.3777206996456	450.3777206996456	8.0	['8', 'return']	[2.4742294000461698, 3.002958499826491]	5.15	5.41	1.0	10hz	high_pain	47.0			sub-023	250	23	45	47	COM11	COM15	COM3	2024-03-08_14h42.20.666	001-EEG_SVR_Officel	2022.2.5	144.04551795218583		5.4080000000000155	0_sub-023_SVR_EEG_block1-2.protocol.csv	step29	4191	416.317	STIMULATE	47.0	47.0	47.0	47.0	47.1	29	409.25699999999995
413.38	0	206690	wait	20	0	0	0	0	14.0	0.0	14.0	0.0						466.4005868998356	471.4775152998045	471.4775152998045	3.0	['3', 'return']	[2.454910000320524, 3.2155569000169635]	5.07	6.44	2.0	20hz	low_pain	45.0			sub-023	250	23	45	47	COM11	COM15	COM3	2024-03-08_14h42.20.666	001-EEG_SVR_Officel	2022.2.5	144.04551795218583		10.625999999999976	0_sub-023_SVR_EEG_block1-2.protocol.csv	step31	4416	438.631	STIMULATE	45.1	44.9	44.9	44.9	45.0	31	431.5709999999999
418.446	0	209223	20hz	6	0	0	0	0	14.0	0.0	14.0	0.0						466.4005868998356	471.4775152998045	471.4775152998045	3.0	['3', 'return']	[2.454910000320524, 3.2155569000169635]	5.07	6.44	2.0	20hz	low_pain	45.0			sub-023	250	23	45	47	COM11	COM15	COM3	2024-03-08_14h42.20.666	001-EEG_SVR_Officel	2022.2.5	144.04551795218583		5.066000000000031	0_sub-023_SVR_EEG_block1-2.protocol.csv	step31	4416	438.631	STIMULATE	45.1	44.9	44.9	44.9	45.0	31	431.5709999999999
425.638	0	212819	20/Lo	5	0	0	0	0	14.0	0.0	14.0	0.0						466.4005868998356	471.4775152998045	471.4775152998045	3.0	['3', 'return']	[2.454910000320524, 3.2155569000169635]	5.07	6.44	2.0	20hz	low_pain	45.0			sub-023	250	23	45	47	COM11	COM15	COM3	2024-03-08_14h42.20.666	001-EEG_SVR_Officel	2022.2.5	144.04551795218583		6.44199999999995	0_sub-023_SVR_EEG_block1-2.protocol.csv	step31	4416	438.631	STIMULATE	45.1	44.9	44.9	44.9	45.0	31	431.5709999999999
434.688	0	217344	wait	20	0	0	0	0	15.0	0.0	15.0	0.0						487.7086139000021	493.3205996998586	493.3205996998586	8.5	['8', 'a', '5', 'return']	[3.180607700254768, 3.9396123001351953, 4.204254500102252, 5.372527700383216]	5.6	5.19	3.0	controle	high_pain	47.0			sub-023	250	23	45	47	COM11	COM15	COM3	2024-03-08_14h42.20.666	001-EEG_SVR_Officel	2022.2.5	144.04551795218583		9.800000000000011	0_sub-023_SVR_EEG_block1-2.protocol.csv	step33	4623	459.187	STIMULATE	47.1	47.0	47.0	47.0	47.0	33	452.12699999999995
440.288	0	220144	CNhz	12	0	0	0	0	15.0	0.0	15.0	0.0						487.7086139000021	493.3205996998586	493.3205996998586	8.5	['8', 'a', '5', 'return']	[3.180607700254768, 3.9396123001351953, 4.204254500102252, 5.372527700383216]	5.6	5.19	3.0	controle	high_pain	47.0			sub-023	250	23	45	47	COM11	COM15	COM3	2024-03-08_14h42.20.666	001-EEG_SVR_Officel	2022.2.5	144.04551795218583		5.600000000000023	0_sub-023_SVR_EEG_block1-2.protocol.csv	step33	4623	459.187	STIMULATE	47.1	47.0	47.0	47.0	47.0	33	452.12699999999995
446.23	0	223115	CN/Hi	10	0	0	0	0	15.0	0.0	15.0	0.0						487.7086139000021	493.3205996998586	493.3205996998586	8.5	['8', 'a', '5', 'return']	[3.180607700254768, 3.9396123001351953, 4.204254500102252, 5.372527700383216]	5.6	5.19	3.0	controle	high_pain	47.0			sub-023	250	23	45	47	COM11	COM15	COM3	2024-03-08_14h42.20.666	001-EEG_SVR_Officel	2022.2.5	144.04551795218583		5.192000000000007	0_sub-023_SVR_EEG_block1-2.protocol.csv	step33	4623	459.187	STIMULATE	47.1	47.0	47.0	47.0	47.0	33	452.12699999999995
524.652	0	262326	wait	20	1	0	1	0	0.0	0.0	0.0	0.0				p	1.4861137000843885	577.6715472997166	584.3384932996705	584.3384932996705	7.5	['7', 'a', '5', 'return']	[2.5545239998027682, 2.99412709986791, 3.218224300071597, 3.9707190999761224]	6.66	5.86	0.0	20hz	high_pain	47.0			sub-023	250	23	45	47	COM11	COM15	COM3	2024-03-08_14h42.20.666	001-EEG_SVR_Officel	2022.2.5	144.04551795218583		79.17200000000003	0_sub-023_SVR_EEG_block1-2.protocol.csv	step35	5542	550.891	STIMULATE	47.0	46.9	47.0	46.9	47.2	35	543.836
531.306	0	265653	20hz	6	1	0	1	0	0.0	0.0	0.0	0.0				p	1.4861137000843885	577.6715472997166	584.3384932996705	584.3384932996705	7.5	['7', 'a', '5', 'return']	[2.5545239998027682, 2.99412709986791, 3.218224300071597, 3.9707190999761224]	6.66	5.86	0.0	20hz	high_pain	47.0			sub-023	250	23	45	47	COM11	COM15	COM3	2024-03-08_14h42.20.666	001-EEG_SVR_Officel	2022.2.5	144.04551795218583		6.653999999999996	0_sub-023_SVR_EEG_block1-2.protocol.csv	step35	5542	550.891	STIMULATE	47.0	46.9	47.0	46.9	47.2	35	543.836
537.916	0	268958	20/Hi	4	1	0	1	0	0.0	0.0	0.0	0.0				p	1.4861137000843885	577.6715472997166	584.3384932996705	584.3384932996705	7.5	['7', 'a', '5', 'return']	[2.5545239998027682, 2.99412709986791, 3.218224300071597, 3.9707190999761224]	6.66	5.86	0.0	20hz	high_pain	47.0			sub-023	250	23	45	47	COM11	COM15	COM3	2024-03-08_14h42.20.666	001-EEG_SVR_Officel	2022.2.5	144.04551795218583		5.860000000000014	0_sub-023_SVR_EEG_block1-2.protocol.csv	step35	5542	550.891	STIMULATE	47.0	46.9	47.0	46.9	47.2	35	543.836
548.306	0	274153	wait	20	1	0	1	0	1.0	0.0	1.0	0.0						601.3270368999802	607.3973372997716	607.3973372997716	2.0	['2', 'return']	[2.3037490998394787, 2.991804899647832]	6.06	6.17	1.0	20hz	low_pain	45.0			sub-023	250	23	45	47	COM11	COM15	COM3	2024-03-08_14h42.20.666	001-EEG_SVR_Officel	2022.2.5	144.04551795218583		11.139999999999986	0_sub-023_SVR_EEG_block1-2.protocol.csv	step37	5778	574.25	STIMULATE	45.1	44.9	44.9	44.9	45.1	37	567.195
554.364	0	277182	20hz	6	1	0	1	0	1.0	0.0	1.0	0.0						601.3270368999802	607.3973372997716	607.3973372997716	2.0	['2', 'return']	[2.3037490998394787, 2.991804899647832]	6.06	6.17	1.0	20hz	low_pain	45.0			sub-023	250	23	45	47	COM11	COM15	COM3	2024-03-08_14h42.20.666	001-EEG_SVR_Officel	2022.2.5	144.04551795218583		6.057999999999993	0_sub-023_SVR_EEG_block1-2.protocol.csv	step37	5778	574.25	STIMULATE	45.1	44.9	44.9	44.9	45.1	37	567.195
561.288	0	280644	20/Lo	5	1	0	1	0	1.0	0.0	1.0	0.0						601.3270368999802	607.3973372997716	607.3973372997716	2.0	['2', 'return']	[2.3037490998394787, 2.991804899647832]	6.06	6.17	1.0	20hz	low_pain	45.0			sub-023	250	23	45	47	COM11	COM15	COM3	2024-03-08_14h42.20.666	001-EEG_SVR_Officel	2022.2.5	144.04551795218583		6.173999999999978	0_sub-023_SVR_EEG_block1-2.protocol.csv	step37	5778	574.25	STIMULATE	45.1	44.9	44.9	44.9	45.1	37	567.195
570.386	0	285193	wait	20	1	0	1	0	2.0	0.0	2.0	0.0						623.4063126998954	628.7332350998186	628.7332350998186	8.0	['8', 'return']	[2.256744499783963, 2.8328170999884605]	5.32	6.41	2.0	controle	high_pain	47.0			sub-023	250	23	45	47	COM11	COM15	COM3	2024-03-08_14h42.20.666	001-EEG_SVR_Officel	2022.2.5	144.04551795218583		9.847999999999956	0_sub-023_SVR_EEG_block1-2.protocol.csv	step39	5996	595.885	STIMULATE	47.1	46.9	46.9	47.0	47.0	39	588.83
575.7	0	287850	CNhz	12	1	0	1	0	2.0	0.0	2.0	0.0						623.4063126998954	628.7332350998186	628.7332350998186	8.0	['8', 'return']	[2.256744499783963, 2.8328170999884605]	5.32	6.41	2.0	controle	high_pain	47.0			sub-023	250	23	45	47	COM11	COM15	COM3	2024-03-08_14h42.20.666	001-EEG_SVR_Officel	2022.2.5	144.04551795218583		5.314000000000078	0_sub-023_SVR_EEG_block1-2.protocol.csv	step39	5996	595.885	STIMULATE	47.1	46.9	46.9	47.0	47.0	39	588.83
582.864	0	291432	CN/Hi	10	1	0	1	0	2.0	0.0	2.0	0.0						623.4063126998954	628.7332350998186	628.7332350998186	8.0	['8', 'return']	[2.256744499783963, 2.8328170999884605]	5.32	6.41	2.0	controle	high_pain	47.0			sub-023	250	23	45	47	COM11	COM15	COM3	2024-03-08_14h42.20.666	001-EEG_SVR_Officel	2022.2.5	144.04551795218583		6.413999999999987	0_sub-023_SVR_EEG_block1-2.protocol.csv	step39	5996	595.885	STIMULATE	47.1	46.9	46.9	47.0	47.0	39	588.83
591.554	0	295777	wait	20	1	0	1	0	3.0	0.0	3.0	0.0						644.5741514996625	650.4366183998063	650.4366183998063	8.5	['8', 'a', '5', 'return']	[1.7523997998796403, 2.193017799872905, 2.4403678998351097, 3.1837605996988714]	5.85	5.3	3.0	40hz	high_pain	47.0			sub-023	250	23	45	47	COM11	COM15	COM3	2024-03-08_14h42.20.666	001-EEG_SVR_Officel	2022.2.5	144.04551795218583		9.43999999999994	0_sub-023_SVR_EEG_block1-2.protocol.csv	step41	6204	616.459	STIMULATE	47.0	47.0	47.0	47.0	47.0	41	609.404
597.404	0	298702	40hz	9	1	0	1	0	3.0	0.0	3.0	0.0						644.5741514996625	650.4366183998063	650.4366183998063	8.5	['8', 'a', '5', 'return']	[1.7523997998796403, 2.193017799872905, 2.4403678998351097, 3.1837605996988714]	5.85	5.3	3.0	40hz	high_pain	47.0			sub-023	250	23	45	47	COM11	COM15	COM3	2024-03-08_14h42.20.666	001-EEG_SVR_Officel	2022.2.5	144.04551795218583		5.850000000000023	0_sub-023_SVR_EEG_block1-2.protocol.csv	step41	6204	616.459	STIMULATE	47.0	47.0	47.0	47.0	47.0	41	609.404
603.458	0	301729	40/Hi	7	1	0	1	0	3.0	0.0	3.0	0.0						644.5741514996625	650.4366183998063	650.4366183998063	8.5	['8', 'a', '5', 'return']	[1.7523997998796403, 2.193017799872905, 2.4403678998351097, 3.1837605996988714]	5.85	5.3	3.0	40hz	high_pain	47.0			sub-023	250	23	45	47	COM11	COM15	COM3	2024-03-08_14h42.20.666	001-EEG_SVR_Officel	2022.2.5	144.04551795218583		5.303999999999974	0_sub-023_SVR_EEG_block1-2.protocol.csv	step41	6204	616.459	STIMULATE	47.0	47.0	47.0	47.0	47.0	41	609.404
613.62	0	306810	wait	20	1	0	1	0	4.0	0.0	4.0	0.0						666.6398686999455	672.3072653999552	672.3072653999552	8.0	['8', 'return']	[2.633019699715078, 3.2733482997864485]	5.66	5.49	0.0	40hz	high_pain	47.0			sub-023	250	23	45	47	COM11	COM15	COM3	2024-03-08_14h42.20.666	001-EEG_SVR_Officel	2022.2.5	144.04551795218583		10.912000000000035	0_sub-023_SVR_EEG_block1-2.protocol.csv	step43	6427	638.519	STIMULATE	47.0	47.0	46.9	47.0	47.1	43	631.464
619.274	0	309637	40hz	9	1	0	1	0	4.0	0.0	4.0	0.0						666.6398686999455	672.3072653999552	672.3072653999552	8.0	['8', 'return']	[2.633019699715078, 3.2733482997864485]	5.66	5.49	0.0	40hz	high_pain	47.0			sub-023	250	23	45	47	COM11	COM15	COM3	2024-03-08_14h42.20.666	001-EEG_SVR_Officel	2022.2.5	144.04551795218583		5.653999999999996	0_sub-023_SVR_EEG_block1-2.protocol.csv	step43	6427	638.519	STIMULATE	47.0	47.0	46.9	47.0	47.1	43	631.464
625.516	0	312758	40/Hi	7	1	0	1	0	4.0	0.0	4.0	0.0						666.6398686999455	672.3072653999552	672.3072653999552	8.0	['8', 'return']	[2.633019699715078, 3.2733482997864485]	5.66	5.49	0.0	40hz	high_pain	47.0			sub-023	250	23	45	47	COM11	COM15	COM3	2024-03-08_14h42.20.666	001-EEG_SVR_Officel	2022.2.5	144.04551795218583		5.491999999999962	0_sub-023_SVR_EEG_block1-2.protocol.csv	step43	6427	638.519	STIMULATE	47.0	47.0	46.9	47.0	47.1	43	631.464
635.578	0	317789	wait	20	1	0	1	0	5.0	0.0	5.0	0.0						688.6008552000858	694.3307647998445	694.3307647998445	3.0	['3', 'return']	[2.3699390003457665, 3.0667520998977125]	5.72	5.92	1.0	10hz	low_pain	45.0			sub-023	250	23	45	47	COM11	COM15	COM3	2024-03-08_14h42.20.666	001-EEG_SVR_Officel	2022.2.5	144.04551795218583		10.812000000000012	0_sub-023_SVR_EEG_block1-2.protocol.csv	step45	6653	660.992	STIMULATE	45.0	44.9	44.9	44.9	45.0	45	653.937
641.298	0	320649	10hz	3	1	0	1	0	5.0	0.0	5.0	0.0						688.6008552000858	694.3307647998445	694.3307647998445	3.0	['3', 'return']	[2.3699390003457665, 3.0667520998977125]	5.72	5.92	1.0	10hz	low_pain	45.0			sub-023	250	23	45	47	COM11	COM15	COM3	2024-03-08_14h42.20.666	001-EEG_SVR_Officel	2022.2.5	144.04551795218583		5.720000000000027	0_sub-023_SVR_EEG_block1-2.protocol.csv	step45	6653	660.992	STIMULATE	45.0	44.9	44.9	44.9	45.0	45	653.937
647.97	0	323985	10/Lo	2	1	0	1	0	5.0	0.0	5.0	0.0						688.6008552000858	694.3307647998445	694.3307647998445	3.0	['3', 'return']	[2.3699390003457665, 3.0667520998977125]	5.72	5.92	1.0	10hz	low_pain	45.0			sub-023	250	23	45	47	COM11	COM15	COM3	2024-03-08_14h42.20.666	001-EEG_SVR_Officel	2022.2.5	144.04551795218583		5.9220000000000255	0_sub-023_SVR_EEG_block1-2.protocol.csv	step45	6653	660.992	STIMULATE	45.0	44.9	44.9	44.9	45.0	45	653.937
657.394	0	328697	wait	20	1	0	1	0	6.0	0.0	6.0	0.0						710.4160265000537	715.9651784999296	715.9651784999296	2.5	['2', 'a', '5', 'return']	[2.5099106999114156, 2.8944488000124693, 3.125933100003749, 3.88595229992643]	5.54	6.19	2.0	10hz	low_pain	45.0			sub-023	250	23	45	47	COM11	COM15	COM3	2024-03-08_14h42.20.666	001-EEG_SVR_Officel	2022.2.5	144.04551795218583		10.173999999999978	0_sub-023_SVR_EEG_block1-2.protocol.csv	step47	6875	682.908	STIMULATE	45.0	44.9	44.9	44.9	44.9	47	675.8530000000001
662.934	0	331467	10hz	3	1	0	1	0	6.0	0.0	6.0	0.0						710.4160265000537	715.9651784999296	715.9651784999296	2.5	['2', 'a', '5', 'return']	[2.5099106999114156, 2.8944488000124693, 3.125933100003749, 3.88595229992643]	5.54	6.19	2.0	10hz	low_pain	45.0			sub-023	250	23	45	47	COM11	COM15	COM3	2024-03-08_14h42.20.666	001-EEG_SVR_Officel	2022.2.5	144.04551795218583		5.539999999999964	0_sub-023_SVR_EEG_block1-2.protocol.csv	step47	6875	682.908	STIMULATE	45.0	44.9	44.9	44.9	44.9	47	675.8530000000001
669.876	0	334938	10/Lo	2	1	0	1	0	6.0	0.0	6.0	0.0						710.4160265000537	715.9651784999296	715.9651784999296	2.5	['2', 'a', '5', 'return']	[2.5099106999114156, 2.8944488000124693, 3.125933100003749, 3.88595229992643]	5.54	6.19	2.0	10hz	low_pain	45.0			sub-023	250	23	45	47	COM11	COM15	COM3	2024-03-08_14h42.20.666	001-EEG_SVR_Officel	2022.2.5	144.04551795218583		6.192000000000007	0_sub-023_SVR_EEG_block1-2.protocol.csv	step47	6875	682.908	STIMULATE	45.0	44.9	44.9	44.9	44.9	47	675.8530000000001
679.856	0	339928	wait	20	1	0	1	0	7.0	0.0	7.0	0.0						732.8777883998118	740.0101006999612	740.0101006999612	8.5	['8', 'a', '5', 'return']	[2.330800900235772, 2.763547800015658, 3.003212899900973, 3.7716740001924336]	7.12	5.85	3.0	10hz	high_pain	47.0			sub-023	250	23	45	47	COM11	COM15	COM3	2024-03-08_14h42.20.666	001-EEG_SVR_Officel	2022.2.5	144.04551795218583		10.730000000000018	0_sub-023_SVR_EEG_block1-2.protocol.csv	step49	7114	706.607	STIMULATE	47.0	46.9	47.0	47.0	47.0	49	699.552
686.978	0	343489	10hz	3	1	0	1	0	7.0	0.0	7.0	0.0						732.8777883998118	740.0101006999612	740.0101006999612	8.5	['8', 'a', '5', 'return']	[2.330800900235772, 2.763547800015658, 3.003212899900973, 3.7716740001924336]	7.12	5.85	3.0	10hz	high_pain	47.0			sub-023	250	23	45	47	COM11	COM15	COM3	2024-03-08_14h42.20.666	001-EEG_SVR_Officel	2022.2.5	144.04551795218583		7.121999999999957	0_sub-023_SVR_EEG_block1-2.protocol.csv	step49	7114	706.607	STIMULATE	47.0	46.9	47.0	47.0	47.0	49	699.552
693.58	0	346790	10/Hi	1	1	0	1	0	7.0	0.0	7.0	0.0						732.8777883998118	740.0101006999612	740.0101006999612	8.5	['8', 'a', '5', 'return']	[2.330800900235772, 2.763547800015658, 3.003212899900973, 3.7716740001924336]	7.12	5.85	3.0	10hz	high_pain	47.0			sub-023	250	23	45	47	COM11	COM15	COM3	2024-03-08_14h42.20.666	001-EEG_SVR_Officel	2022.2.5	144.04551795218583		5.852000000000089	0_sub-023_SVR_EEG_block1-2.protocol.csv	step49	7114	706.607	STIMULATE	47.0	46.9	47.0	47.0	47.0	49	699.552
703.776	0	351888	wait	20	1	0	1	0	8.0	0.0	8.0	0.0						756.7964169997722	764.6238142997026	764.6238142997026	2.0	['2', 'return']	[2.036561000160873, 2.716980299912393]	7.82	5.1	0.0	controle	low_pain	45.0			sub-023	250	23	45	47	COM11	COM15	COM3	2024-03-08_14h42.20.666	001-EEG_SVR_Officel	2022.2.5	144.04551795218583		10.945999999999913	0_sub-023_SVR_EEG_block1-2.protocol.csv	step51	7354	730.496	STIMULATE	45.0	44.9	44.9	44.9	45.0	51	723.441
711.59	0	355795	CNhz	12	1	0	1	0	8.0	0.0	8.0	0.0						756.7964169997722	764.6238142997026	764.6238142997026	2.0	['2', 'return']	[2.036561000160873, 2.716980299912393]	7.82	5.1	0.0	controle	low_pain	45.0			sub-023	250	23	45	47	COM11	COM15	COM3	2024-03-08_14h42.20.666	001-EEG_SVR_Officel	2022.2.5	144.04551795218583		7.814000000000078	0_sub-023_SVR_EEG_block1-2.protocol.csv	step51	7354	730.496	STIMULATE	45.0	44.9	44.9	44.9	45.0	51	723.441
717.444	0	358722	CN/Lo	11	1	0	1	0	8.0	0.0	8.0	0.0						756.7964169997722	764.6238142997026	764.6238142997026	2.0	['2', 'return']	[2.036561000160873, 2.716980299912393]	7.82	5.1	0.0	controle	low_pain	45.0			sub-023	250	23	45	47	COM11	COM15	COM3	2024-03-08_14h42.20.666	001-EEG_SVR_Officel	2022.2.5	144.04551795218583		5.103999999999928	0_sub-023_SVR_EEG_block1-2.protocol.csv	step51	7354	730.496	STIMULATE	45.0	44.9	44.9	44.9	45.0	51	723.441
727.332	0	363666	wait	20	1	0	1	0	9.0	0.0	9.0	0.0						780.3549481998198	786.7723244996741	786.7723244996741	1.5	['1', 'a', '5', 'return']	[2.3841148000210524, 2.856306000147015, 3.0720064002089202, 3.92142069991678]	6.41	5.23	1.0	40hz	low_pain	45.0			sub-023	250	23	45	47	COM11	COM15	COM3	2024-03-08_14h42.20.666	001-EEG_SVR_Officel	2022.2.5	144.04551795218583		10.638000000000034	0_sub-023_SVR_EEG_block1-2.protocol.csv	step53	7578	752.674	STIMULATE	45.0	44.9	44.9	44.9	45.0	53	745.619
733.738	0	366869	40hz	9	1	0	1	0	9.0	0.0	9.0	0.0						780.3549481998198	786.7723244996741	786.7723244996741	1.5	['1', 'a', '5', 'return']	[2.3841148000210524, 2.856306000147015, 3.0720064002089202, 3.92142069991678]	6.41	5.23	1.0	40hz	low_pain	45.0			sub-023	250	23	45	47	COM11	COM15	COM3	2024-03-08_14h42.20.666	001-EEG_SVR_Officel	2022.2.5	144.04551795218583		6.406000000000063	0_sub-023_SVR_EEG_block1-2.protocol.csv	step53	7578	752.674	STIMULATE	45.0	44.9	44.9	44.9	45.0	53	745.619
739.724	0	369862	40/Lo	8	1	0	1	0	9.0	0.0	9.0	0.0						780.3549481998198	786.7723244996741	786.7723244996741	1.5	['1', 'a', '5', 'return']	[2.3841148000210524, 2.856306000147015, 3.0720064002089202, 3.92142069991678]	6.41	5.23	1.0	40hz	low_pain	45.0			sub-023	250	23	45	47	COM11	COM15	COM3	2024-03-08_14h42.20.666	001-EEG_SVR_Officel	2022.2.5	144.04551795218583		5.23599999999999	0_sub-023_SVR_EEG_block1-2.protocol.csv	step53	7578	752.674	STIMULATE	45.0	44.9	44.9	44.9	45.0	53	745.619
750.684	0	375342	wait	20	1	0	1	0	10.0	0.0	10.0	0.0						803.704966600053	809.1361556998454	809.1361556998454	6.5	['6', 'a', '5', 'return']	[2.9648457001894712, 3.3643799000419676, 4.091794800013304, 5.003705500159413]	5.42	6.29	2.0	10hz	high_pain	47.0			sub-023	250	23	45	47	COM11	COM15	COM3	2024-03-08_14h42.20.666	001-EEG_SVR_Officel	2022.2.5	144.04551795218583		11.709999999999923	0_sub-023_SVR_EEG_block1-2.protocol.csv	step55	7814	776.106	STIMULATE	47.0	46.9	47.0	47.0	47.1	55	769.051
756.102	0	378051	10hz	3	1	0	1	0	10.0	0.0	10.0	0.0						803.704966600053	809.1361556998454	809.1361556998454	6.5	['6', 'a', '5', 'return']	[2.9648457001894712, 3.3643799000419676, 4.091794800013304, 5.003705500159413]	5.42	6.29	2.0	10hz	high_pain	47.0			sub-023	250	23	45	47	COM11	COM15	COM3	2024-03-08_14h42.20.666	001-EEG_SVR_Officel	2022.2.5	144.04551795218583		5.418000000000006	0_sub-023_SVR_EEG_block1-2.protocol.csv	step55	7814	776.106	STIMULATE	47.0	46.9	47.0	47.0	47.1	55	769.051
763.142	0	381571	10/Hi	1	1	0	1	0	10.0	0.0	10.0	0.0						803.704966600053	809.1361556998454	809.1361556998454	6.5	['6', 'a', '5', 'return']	[2.9648457001894712, 3.3643799000419676, 4.091794800013304, 5.003705500159413]	5.42	6.29	2.0	10hz	high_pain	47.0			sub-023	250	23	45	47	COM11	COM15	COM3	2024-03-08_14h42.20.666	001-EEG_SVR_Officel	2022.2.5	144.04551795218583		6.290000000000077	0_sub-023_SVR_EEG_block1-2.protocol.csv	step55	7814	776.106	STIMULATE	47.0	46.9	47.0	47.0	47.1	55	769.051
774.128	0	387064	wait	20	1	0	1	0	11.0	0.0	11.0	0.0						827.1514999000356	834.6393536999822	834.6393536999822	1.0	['1', 'return']	[2.3488834002055228, 3.0531787001527846]	7.48	6.25	3.0	40hz	low_pain	45.0			sub-023	250	23	45	47	COM11	COM15	COM3	2024-03-08_14h42.20.666	001-EEG_SVR_Officel	2022.2.5	144.04551795218583		11.73599999999999	0_sub-023_SVR_EEG_block1-2.protocol.csv	step57	8068	801.695	STIMULATE	44.9	44.9	44.9	44.9	45.0	57	794.6400000000001
781.606	0	390803	40hz	9	1	0	1	0	11.0	0.0	11.0	0.0						827.1514999000356	834.6393536999822	834.6393536999822	1.0	['1', 'return']	[2.3488834002055228, 3.0531787001527846]	7.48	6.25	3.0	40hz	low_pain	45.0			sub-023	250	23	45	47	COM11	COM15	COM3	2024-03-08_14h42.20.666	001-EEG_SVR_Officel	2022.2.5	144.04551795218583		7.477999999999952	0_sub-023_SVR_EEG_block1-2.protocol.csv	step57	8068	801.695	STIMULATE	44.9	44.9	44.9	44.9	45.0	57	794.6400000000001
788.604	0	394302	40/Lo	8	1	0	1	0	11.0	0.0	11.0	0.0						827.1514999000356	834.6393536999822	834.6393536999822	1.0	['1', 'return']	[2.3488834002055228, 3.0531787001527846]	7.48	6.25	3.0	40hz	low_pain	45.0			sub-023	250	23	45	47	COM11	COM15	COM3	2024-03-08_14h42.20.666	001-EEG_SVR_Officel	2022.2.5	144.04551795218583		6.248000000000047	0_sub-023_SVR_EEG_block1-2.protocol.csv	step57	8068	801.695	STIMULATE	44.9	44.9	44.9	44.9	45.0	57	794.6400000000001
797.688	0	398844	wait	20	1	0	1	0	12.0	0.0	12.0	0.0						850.7107088998891	858.7115528997965	858.7115528997965	5.0	['5', 'return']	[2.9812432997860014, 3.6132677998393774]	7.99	5.94	0.0	10hz	high_pain	47.0			sub-023	250	23	45	47	COM11	COM15	COM3	2024-03-08_14h42.20.666	001-EEG_SVR_Officel	2022.2.5	144.04551795218583		9.833999999999946	0_sub-023_SVR_EEG_block1-2.protocol.csv	step59	8298	825.381	STIMULATE	47.0	46.9	47.0	46.9	47.0	59	818.326
805.678	0	402839	10hz	3	1	0	1	0	12.0	0.0	12.0	0.0						850.7107088998891	858.7115528997965	858.7115528997965	5.0	['5', 'return']	[2.9812432997860014, 3.6132677998393774]	7.99	5.94	0.0	10hz	high_pain	47.0			sub-023	250	23	45	47	COM11	COM15	COM3	2024-03-08_14h42.20.666	001-EEG_SVR_Officel	2022.2.5	144.04551795218583		7.990000000000009	0_sub-023_SVR_EEG_block1-2.protocol.csv	step59	8298	825.381	STIMULATE	47.0	46.9	47.0	46.9	47.0	59	818.326
812.37	0	406185	10/Hi	1	1	0	1	0	12.0	0.0	12.0	0.0						850.7107088998891	858.7115528997965	858.7115528997965	5.0	['5', 'return']	[2.9812432997860014, 3.6132677998393774]	7.99	5.94	0.0	10hz	high_pain	47.0			sub-023	250	23	45	47	COM11	COM15	COM3	2024-03-08_14h42.20.666	001-EEG_SVR_Officel	2022.2.5	144.04551795218583		5.942000000000007	0_sub-023_SVR_EEG_block1-2.protocol.csv	step59	8298	825.381	STIMULATE	47.0	46.9	47.0	46.9	47.0	59	818.326
822.316	0	411158	wait	20	1	0	1	0	13.0	0.0	13.0	0.0						875.3381272996776	882.8255273997784	882.8255273997784	8.0	['8', 'return']	[2.794567400123924, 3.404054199811071]	7.48	5.36	1.0	20hz	high_pain	47.0			sub-023	250	23	45	47	COM11	COM15	COM3	2024-03-08_14h42.20.666	001-EEG_SVR_Officel	2022.2.5	144.04551795218583		10.696000000000026	0_sub-023_SVR_EEG_block1-2.protocol.csv	step61	8524	848.863	STIMULATE	47.0	47.0	47.0	47.0	47.0	61	841.8080000000001
829.79	0	414895	20hz	6	1	0	1	0	13.0	0.0	13.0	0.0						875.3381272996776	882.8255273997784	882.8255273997784	8.0	['8', 'return']	[2.794567400123924, 3.404054199811071]	7.48	5.36	1.0	20hz	high_pain	47.0			sub-023	250	23	45	47	COM11	COM15	COM3	2024-03-08_14h42.20.666	001-EEG_SVR_Officel	2022.2.5	144.04551795218583		7.473999999999933	0_sub-023_SVR_EEG_block1-2.protocol.csv	step61	8524	848.863	STIMULATE	47.0	47.0	47.0	47.0	47.0	61	841.8080000000001
835.9	0	417950	20/Hi	4	1	0	1	0	13.0	0.0	13.0	0.0						875.3381272996776	882.8255273997784	882.8255273997784	8.0	['8', 'return']	[2.794567400123924, 3.404054199811071]	7.48	5.36	1.0	20hz	high_pain	47.0			sub-023	250	23	45	47	COM11	COM15	COM3	2024-03-08_14h42.20.666	001-EEG_SVR_Officel	2022.2.5	144.04551795218583		5.360000000000014	0_sub-023_SVR_EEG_block1-2.protocol.csv	step61	8524	848.863	STIMULATE	47.0	47.0	47.0	47.0	47.0	61	841.8080000000001
846.22	0	423110	wait	20	1	0	1	0	14.0	0.0	14.0	0.0						899.243401600048	904.3355052000844	904.3355052000844	1.0	['1', 'return']	[2.06948160007596, 2.85468910029158]	5.08	5.61	2.0	40hz	low_pain	45.0			sub-023	250	23	45	47	COM11	COM15	COM3	2024-03-08_14h42.20.666	001-EEG_SVR_Officel	2022.2.5	144.04551795218583		11.07000000000005	0_sub-023_SVR_EEG_block1-2.protocol.csv	step63	8732	870.703	STIMULATE	45.0	44.9	44.9	44.9	45.0	63	863.648
851.3	0	425650	40hz	9	1	0	1	0	14.0	0.0	14.0	0.0						899.243401600048	904.3355052000844	904.3355052000844	1.0	['1', 'return']	[2.06948160007596, 2.85468910029158]	5.08	5.61	2.0	40hz	low_pain	45.0			sub-023	250	23	45	47	COM11	COM15	COM3	2024-03-08_14h42.20.666	001-EEG_SVR_Officel	2022.2.5	144.04551795218583		5.079999999999927	0_sub-023_SVR_EEG_block1-2.protocol.csv	step63	8732	870.703	STIMULATE	45.0	44.9	44.9	44.9	45.0	63	863.648
857.66	0	428830	40/Lo	8	1	0	1	0	14.0	0.0	14.0	0.0						899.243401600048	904.3355052000844	904.3355052000844	1.0	['1', 'return']	[2.06948160007596, 2.85468910029158]	5.08	5.61	2.0	40hz	low_pain	45.0			sub-023	250	23	45	47	COM11	COM15	COM3	2024-03-08_14h42.20.666	001-EEG_SVR_Officel	2022.2.5	144.04551795218583		5.610000000000014	0_sub-023_SVR_EEG_block1-2.protocol.csv	step63	8732	870.703	STIMULATE	45.0	44.9	44.9	44.9	45.0	63	863.648
867.176	0	433588	wait	20	1	0	1	0	15.0	0.0	15.0	0.0						920.1980332997628	925.6780741000548	925.6780741000548	1.5	['1', 'a', '5', 'return']	[2.5345739000476897, 2.9343002000823617, 3.295171200297773, 3.9342856002040207]	5.47	5.63	3.0	10hz	low_pain	45.0			sub-023	250	23	45	47	COM11	COM15	COM3	2024-03-08_14h42.20.666	001-EEG_SVR_Officel	2022.2.5	144.04551795218583		10.266000000000076	0_sub-023_SVR_EEG_block1-2.protocol.csv	step65	8933	891.977	STIMULATE	44.9	44.9	44.9	44.9	45.0	65	884.922
872.642	0	436321	10hz	3	1	0	1	0	15.0	0.0	15.0	0.0						920.1980332997628	925.6780741000548	925.6780741000548	1.5	['1', 'a', '5', 'return']	[2.5345739000476897, 2.9343002000823617, 3.295171200297773, 3.9342856002040207]	5.47	5.63	3.0	10hz	low_pain	45.0			sub-023	250	23	45	47	COM11	COM15	COM3	2024-03-08_14h42.20.666	001-EEG_SVR_Officel	2022.2.5	144.04551795218583		5.466000000000008	0_sub-023_SVR_EEG_block1-2.protocol.csv	step65	8933	891.977	STIMULATE	44.9	44.9	44.9	44.9	45.0	65	884.922
879.024	0	439512	10/Lo	2	1	0	1	0	15.0	0.0	15.0	0.0						920.1980332997628	925.6780741000548	925.6780741000548	1.5	['1', 'a', '5', 'return']	[2.5345739000476897, 2.9343002000823617, 3.295171200297773, 3.9342856002040207]	5.47	5.63	3.0	10hz	low_pain	45.0			sub-023	250	23	45	47	COM11	COM15	COM3	2024-03-08_14h42.20.666	001-EEG_SVR_Officel	2022.2.5	144.04551795218583		5.631999999999948	0_sub-023_SVR_EEG_block1-2.protocol.csv	step65	8933	891.977	STIMULATE	44.9	44.9	44.9	44.9	45.0	65	884.922
951.088	0	475544	wait	20	2	0	2	0	0.0	0.0	0.0	0.0				p	0.645745400339365	1004.1101881000212	1011.2994065997192	1011.2994065997192	4.0	['4', 'return']	[2.6746085002087057, 3.745371399912983]	7.18	5.19	0.0	10hz	high_pain	47.0			sub-023	250	23	45	47	COM11	COM15	COM3	2024-03-08_14h42.20.666	001-EEG_SVR_Officel	2022.2.5	144.04551795218583		72.81399999999996	1_sub-023_SVR_EEG_block3-4.protocol.csv	step3	709	70.709	STIMULATE	47.0	46.9	47.0	46.9	47.0	3	970.079
958.264	0	479132	10hz	3	2	0	2	0	0.0	0.0	0.0	0.0				p	0.645745400339365	1004.1101881000212	1011.2994065997192	1011.2994065997192	4.0	['4', 'return']	[2.6746085002087057, 3.745371399912983]	7.18	5.19	0.0	10hz	high_pain	47.0			sub-023	250	23	45	47	COM11	COM15	COM3	2024-03-08_14h42.20.666	001-EEG_SVR_Officel	2022.2.5	144.04551795218583		7.176000000000045	1_sub-023_SVR_EEG_block3-4.protocol.csv	step3	709	70.709	STIMULATE	47.0	46.9	47.0	46.9	47.0	3	970.079
964.208	0	482104	10/Hi	1	2	0	2	0	0.0	0.0	0.0	0.0				p	0.645745400339365	1004.1101881000212	1011.2994065997192	1011.2994065997192	4.0	['4', 'return']	[2.6746085002087057, 3.745371399912983]	7.18	5.19	0.0	10hz	high_pain	47.0			sub-023	250	23	45	47	COM11	COM15	COM3	2024-03-08_14h42.20.666	001-EEG_SVR_Officel	2022.2.5	144.04551795218583		5.19399999999996	1_sub-023_SVR_EEG_block3-4.protocol.csv	step3	709	70.709	STIMULATE	47.0	46.9	47.0	46.9	47.0	3	970.079
975.036	0	487518	wait	20	2	0	2	0	1.0	0.0	1.0	0.0						1028.0582868997008	1035.8301220000722	1035.8301220000722	7.0	['7', 'return']	[2.023066300433129, 2.6563026001676917]	7.76	5.93	1.0	20hz	high_pain	47.0			sub-023	250	23	45	47	COM11	COM15	COM3	2024-03-08_14h42.20.666	001-EEG_SVR_Officel	2022.2.5	144.04551795218583		11.577999999999975	1_sub-023_SVR_EEG_block3-4.protocol.csv	step5	963	95.929	STIMULATE	47.1	47.0	47.0	47.0	47.0	5	995.299
982.794	0	491397	20hz	6	2	0	2	0	1.0	0.0	1.0	0.0						1028.0582868997008	1035.8301220000722	1035.8301220000722	7.0	['7', 'return']	[2.023066300433129, 2.6563026001676917]	7.76	5.93	1.0	20hz	high_pain	47.0			sub-023	250	23	45	47	COM11	COM15	COM3	2024-03-08_14h42.20.666	001-EEG_SVR_Officel	2022.2.5	144.04551795218583		7.758000000000038	1_sub-023_SVR_EEG_block3-4.protocol.csv	step5	963	95.929	STIMULATE	47.1	47.0	47.0	47.0	47.0	5	995.299
989.482	0	494741	20/Hi	4	2	0	2	0	1.0	0.0	1.0	0.0						1028.0582868997008	1035.8301220000722	1035.8301220000722	7.0	['7', 'return']	[2.023066300433129, 2.6563026001676917]	7.76	5.93	1.0	20hz	high_pain	47.0			sub-023	250	23	45	47	COM11	COM15	COM3	2024-03-08_14h42.20.666	001-EEG_SVR_Officel	2022.2.5	144.04551795218583		5.937999999999988	1_sub-023_SVR_EEG_block3-4.protocol.csv	step5	963	95.929	STIMULATE	47.1	47.0	47.0	47.0	47.0	5	995.299
998.474	0	499237	wait	20	2	0	2	0	2.0	0.0	2.0	0.0						1051.4980848999694	1059.360743300058	1059.360743300058	2.0	['2', 'return']	[2.2528222003020346, 2.9802600000984967]	7.85	5.88	2.0	40hz	low_pain	45.0			sub-023	250	23	45	47	COM11	COM15	COM3	2024-03-08_14h42.20.666	001-EEG_SVR_Officel	2022.2.5	144.04551795218583		9.742000000000075	1_sub-023_SVR_EEG_block3-4.protocol.csv	step7	1200	119.438	STIMULATE	45.0	44.9	44.9	44.9	45.0	7	1018.808
1006.326	0	503163	40hz	9	2	0	2	0	2.0	0.0	2.0	0.0						1051.4980848999694	1059.360743300058	1059.360743300058	2.0	['2', 'return']	[2.2528222003020346, 2.9802600000984967]	7.85	5.88	2.0	40hz	low_pain	45.0			sub-023	250	23	45	47	COM11	COM15	COM3	2024-03-08_14h42.20.666	001-EEG_SVR_Officel	2022.2.5	144.04551795218583		7.851999999999975	1_sub-023_SVR_EEG_block3-4.protocol.csv	step7	1200	119.438	STIMULATE	45.0	44.9	44.9	44.9	45.0	7	1018.808
1012.958	0	506479	40/Lo	8	2	0	2	0	2.0	0.0	2.0	0.0						1051.4980848999694	1059.360743300058	1059.360743300058	2.0	['2', 'return']	[2.2528222003020346, 2.9802600000984967]	7.85	5.88	2.0	40hz	low_pain	45.0			sub-023	250	23	45	47	COM11	COM15	COM3	2024-03-08_14h42.20.666	001-EEG_SVR_Officel	2022.2.5	144.04551795218583		5.881999999999948	1_sub-023_SVR_EEG_block3-4.protocol.csv	step7	1200	119.438	STIMULATE	45.0	44.9	44.9	44.9	45.0	7	1018.808
1022.332	0	511166	wait	20	2	0	2	0	3.0	0.0	3.0	0.0						1075.3557242997922	1082.3152703000233	1082.3152703000233	1.0	['1', 'return']	[2.3465748000890017, 2.995685299858451]	6.95	6.37	3.0	controle	low_pain	45.0			sub-023	250	23	45	47	COM11	COM15	COM3	2024-03-08_14h42.20.666	001-EEG_SVR_Officel	2022.2.5	144.04551795218583		10.124000000000024	1_sub-023_SVR_EEG_block3-4.protocol.csv	step9	1437	142.917	STIMULATE	44.9	44.9	44.9	44.9	44.9	9	1042.287
1029.28	0	514640	CNhz	12	2	0	2	0	3.0	0.0	3.0	0.0						1075.3557242997922	1082.3152703000233	1082.3152703000233	1.0	['1', 'return']	[2.3465748000890017, 2.995685299858451]	6.95	6.37	3.0	controle	low_pain	45.0			sub-023	250	23	45	47	COM11	COM15	COM3	2024-03-08_14h42.20.666	001-EEG_SVR_Officel	2022.2.5	144.04551795218583		6.947999999999979	1_sub-023_SVR_EEG_block3-4.protocol.csv	step9	1437	142.917	STIMULATE	44.9	44.9	44.9	44.9	44.9	9	1042.287
1036.404	0	518202	CN/Lo	11	2	0	2	0	3.0	0.0	3.0	0.0						1075.3557242997922	1082.3152703000233	1082.3152703000233	1.0	['1', 'return']	[2.3465748000890017, 2.995685299858451]	6.95	6.37	3.0	controle	low_pain	45.0			sub-023	250	23	45	47	COM11	COM15	COM3	2024-03-08_14h42.20.666	001-EEG_SVR_Officel	2022.2.5	144.04551795218583		6.374000000000024	1_sub-023_SVR_EEG_block3-4.protocol.csv	step9	1437	142.917	STIMULATE	44.9	44.9	44.9	44.9	44.9	9	1042.287
1045.308	0	522654	wait	20	2	0	2	0	4.0	0.0	4.0	0.0						1098.331157699693	1105.693434199784	1105.693434199784	5.0	['5', 'return']	[3.1209883000701666, 3.768880099989474]	7.35	5.87	0.0	20hz	high_pain	47.0			sub-023	250	23	45	47	COM11	COM15	COM3	2024-03-08_14h42.20.666	001-EEG_SVR_Officel	2022.2.5	144.04551795218583		9.653999999999996	1_sub-023_SVR_EEG_block3-4.protocol.csv	step11	1667	165.764	STIMULATE	47.0	47.0	47.0	47.0	47.0	11	1065.134
1052.658	0	526329	20hz	6	2	0	2	0	4.0	0.0	4.0	0.0						1098.331157699693	1105.693434199784	1105.693434199784	5.0	['5', 'return']	[3.1209883000701666, 3.768880099989474]	7.35	5.87	0.0	20hz	high_pain	47.0			sub-023	250	23	45	47	COM11	COM15	COM3	2024-03-08_14h42.20.666	001-EEG_SVR_Officel	2022.2.5	144.04551795218583		7.349999999999909	1_sub-023_SVR_EEG_block3-4.protocol.csv	step11	1667	165.764	STIMULATE	47.0	47.0	47.0	47.0	47.0	11	1065.134
1059.28	0	529640	20/Hi	4	2	0	2	0	4.0	0.0	4.0	0.0						1098.331157699693	1105.693434199784	1105.693434199784	5.0	['5', 'return']	[3.1209883000701666, 3.768880099989474]	7.35	5.87	0.0	20hz	high_pain	47.0			sub-023	250	23	45	47	COM11	COM15	COM3	2024-03-08_14h42.20.666	001-EEG_SVR_Officel	2022.2.5	144.04551795218583		5.872000000000071	1_sub-023_SVR_EEG_block3-4.protocol.csv	step11	1667	165.764	STIMULATE	47.0	47.0	47.0	47.0	47.0	11	1065.134
1069.456	0	534728	wait	20	2	0	2	0	5.0	0.0	5.0	0.0						1122.4794502998702	1127.702402899973	1127.702402899973	3.0	['3', 'return']	[2.583018899895251, 3.4472040999680758]	5.21	5.42	1.0	10hz	low_pain	45.0			sub-023	250	23	45	47	COM11	COM15	COM3	2024-03-08_14h42.20.666	001-EEG_SVR_Officel	2022.2.5	144.04551795218583		10.92599999999993	1_sub-023_SVR_EEG_block3-4.protocol.csv	step13	1885	187.332	STIMULATE	45.0	44.9	44.9	44.9	45.0	13	1086.702
1074.666	0	537333	10hz	3	2	0	2	0	5.0	0.0	5.0	0.0						1122.4794502998702	1127.702402899973	1127.702402899973	3.0	['3', 'return']	[2.583018899895251, 3.4472040999680758]	5.21	5.42	1.0	10hz	low_pain	45.0			sub-023	250	23	45	47	COM11	COM15	COM3	2024-03-08_14h42.20.666	001-EEG_SVR_Officel	2022.2.5	144.04551795218583		5.210000000000036	1_sub-023_SVR_EEG_block3-4.protocol.csv	step13	1885	187.332	STIMULATE	45.0	44.9	44.9	44.9	45.0	13	1086.702
1080.84	0	540420	10/Lo	2	2	0	2	0	5.0	0.0	5.0	0.0						1122.4794502998702	1127.702402899973	1127.702402899973	3.0	['3', 'return']	[2.583018899895251, 3.4472040999680758]	5.21	5.42	1.0	10hz	low_pain	45.0			sub-023	250	23	45	47	COM11	COM15	COM3	2024-03-08_14h42.20.666	001-EEG_SVR_Officel	2022.2.5	144.04551795218583		5.423999999999978	1_sub-023_SVR_EEG_block3-4.protocol.csv	step13	1885	187.332	STIMULATE	45.0	44.9	44.9	44.9	45.0	13	1086.702
1091.146	0	545573	wait	20	2	0	2	0	6.0	0.0	6.0	0.0						1144.1695746998305	1149.9760565999895	1149.9760565999895	5.5	['5', 'a', '5', 'return']	[2.469343699980527, 2.925313699990511, 3.1496660001575947, 3.8622131003066897]	5.79	6.38	2.0	10hz	high_pain	47.0			sub-023	250	23	45	47	COM11	COM15	COM3	2024-03-08_14h42.20.666	001-EEG_SVR_Officel	2022.2.5	144.04551795218583		11.05600000000004	1_sub-023_SVR_EEG_block3-4.protocol.csv	step15	2119	210.561	STIMULATE	47.1	47.0	46.9	47.0	47.0	15	1109.931
1096.94	0	548470	10hz	3	2	0	2	0	6.0	0.0	6.0	0.0						1144.1695746998305	1149.9760565999895	1149.9760565999895	5.5	['5', 'a', '5', 'return']	[2.469343699980527, 2.925313699990511, 3.1496660001575947, 3.8622131003066897]	5.79	6.38	2.0	10hz	high_pain	47.0			sub-023	250	23	45	47	COM11	COM15	COM3	2024-03-08_14h42.20.666	001-EEG_SVR_Officel	2022.2.5	144.04551795218583		5.794000000000096	1_sub-023_SVR_EEG_block3-4.protocol.csv	step15	2119	210.561	STIMULATE	47.1	47.0	46.9	47.0	47.0	15	1109.931
1104.07	0	552035	10/Hi	1	2	0	2	0	6.0	0.0	6.0	0.0						1144.1695746998305	1149.9760565999895	1149.9760565999895	5.5	['5', 'a', '5', 'return']	[2.469343699980527, 2.925313699990511, 3.1496660001575947, 3.8622131003066897]	5.79	6.38	2.0	10hz	high_pain	47.0			sub-023	250	23	45	47	COM11	COM15	COM3	2024-03-08_14h42.20.666	001-EEG_SVR_Officel	2022.2.5	144.04551795218583		6.379999999999882	1_sub-023_SVR_EEG_block3-4.protocol.csv	step15	2119	210.561	STIMULATE	47.1	47.0	46.9	47.0	47.0	15	1109.931
1113.836	0	556918	wait	20	2	0	2	0	7.0	0.0	7.0	0.0						1166.859791699797	1172.7425216999836	1172.7425216999836	8.5	['8', 'a', '5', 'return']	[2.422753599938005, 2.86954789981246, 3.134719899855554, 4.45420609973371]	5.87	5.72	3.0	controle	high_pain	47.0			sub-023	250	23	45	47	COM11	COM15	COM3	2024-03-08_14h42.20.666	001-EEG_SVR_Officel	2022.2.5	144.04551795218583		10.516000000000076	1_sub-023_SVR_EEG_block3-4.protocol.csv	step17	2342	232.652	STIMULATE	47.0	46.9	47.0	47.0	47.1	17	1132.022
1119.706	0	559853	CNhz	12	2	0	2	0	7.0	0.0	7.0	0.0						1166.859791699797	1172.7425216999836	1172.7425216999836	8.5	['8', 'a', '5', 'return']	[2.422753599938005, 2.86954789981246, 3.134719899855554, 4.45420609973371]	5.87	5.72	3.0	controle	high_pain	47.0			sub-023	250	23	45	47	COM11	COM15	COM3	2024-03-08_14h42.20.666	001-EEG_SVR_Officel	2022.2.5	144.04551795218583		5.869999999999891	1_sub-023_SVR_EEG_block3-4.protocol.csv	step17	2342	232.652	STIMULATE	47.0	46.9	47.0	47.0	47.1	17	1132.022
1126.176	0	563088	CN/Hi	10	2	0	2	0	7.0	0.0	7.0	0.0						1166.859791699797	1172.7425216999836	1172.7425216999836	8.5	['8', 'a', '5', 'return']	[2.422753599938005, 2.86954789981246, 3.134719899855554, 4.45420609973371]	5.87	5.72	3.0	controle	high_pain	47.0			sub-023	250	23	45	47	COM11	COM15	COM3	2024-03-08_14h42.20.666	001-EEG_SVR_Officel	2022.2.5	144.04551795218583		5.720000000000027	1_sub-023_SVR_EEG_block3-4.protocol.csv	step17	2342	232.652	STIMULATE	47.0	46.9	47.0	47.0	47.1	17	1132.022
1137.192	0	568596	wait	20	2	0	2	0	8.0	0.0	8.0	0.0						1190.21672450006	1197.9051747997291	1197.9051747997291	2.5	['2', 'a', '5', 'return']	[2.618546400219202, 3.0832993001677096, 3.4269997999072075, 4.250626699998975]	7.68	5.79	0.0	10hz	low_pain	45.0			sub-023	250	23	45	47	COM11	COM15	COM3	2024-03-08_14h42.20.666	001-EEG_SVR_Officel	2022.2.5	144.04551795218583		11.766000000000076	1_sub-023_SVR_EEG_block3-4.protocol.csv	step19	2597	257.945	STIMULATE	45.0	44.9	44.9	44.9	44.9	19	1157.315
1144.868	0	572434	10hz	3	2	0	2	0	8.0	0.0	8.0	0.0						1190.21672450006	1197.9051747997291	1197.9051747997291	2.5	['2', 'a', '5', 'return']	[2.618546400219202, 3.0832993001677096, 3.4269997999072075, 4.250626699998975]	7.68	5.79	0.0	10hz	low_pain	45.0			sub-023	250	23	45	47	COM11	COM15	COM3	2024-03-08_14h42.20.666	001-EEG_SVR_Officel	2022.2.5	144.04551795218583		7.675999999999931	1_sub-023_SVR_EEG_block3-4.protocol.csv	step19	2597	257.945	STIMULATE	45.0	44.9	44.9	44.9	44.9	19	1157.315
1151.41	0	575705	10/Lo	2	2	0	2	0	8.0	0.0	8.0	0.0						1190.21672450006	1197.9051747997291	1197.9051747997291	2.5	['2', 'a', '5', 'return']	[2.618546400219202, 3.0832993001677096, 3.4269997999072075, 4.250626699998975]	7.68	5.79	0.0	10hz	low_pain	45.0			sub-023	250	23	45	47	COM11	COM15	COM3	2024-03-08_14h42.20.666	001-EEG_SVR_Officel	2022.2.5	144.04551795218583		5.792000000000144	1_sub-023_SVR_EEG_block3-4.protocol.csv	step19	2597	257.945	STIMULATE	45.0	44.9	44.9	44.9	44.9	19	1157.315
1162.154	0	581077	wait	20	2	0	2	0	9.0	0.0	9.0	0.0						1215.178614600096	1223.179497799836	1223.179497799836	7.0	['7', 'return']	[2.3542960002087057, 3.002605500165373]	7.99	5.97	1.0	40hz	high_pain	47.0			sub-023	250	23	45	47	COM11	COM15	COM3	2024-03-08_14h42.20.666	001-EEG_SVR_Officel	2022.2.5	144.04551795218583		11.493999999999915	1_sub-023_SVR_EEG_block3-4.protocol.csv	step21	2853	283.354	STIMULATE	47.1	47.0	47.0	47.0	47.0	21	1182.724
1170.142	0	585071	40hz	9	2	0	2	0	9.0	0.0	9.0	0.0						1215.178614600096	1223.179497799836	1223.179497799836	7.0	['7', 'return']	[2.3542960002087057, 3.002605500165373]	7.99	5.97	1.0	40hz	high_pain	47.0			sub-023	250	23	45	47	COM11	COM15	COM3	2024-03-08_14h42.20.666	001-EEG_SVR_Officel	2022.2.5	144.04551795218583		7.988000000000056	1_sub-023_SVR_EEG_block3-4.protocol.csv	step21	2853	283.354	STIMULATE	47.1	47.0	47.0	47.0	47.0	21	1182.724
1176.864	0	588432	40/Hi	7	2	0	2	0	9.0	0.0	9.0	0.0						1215.178614600096	1223.179497799836	1223.179497799836	7.0	['7', 'return']	[2.3542960002087057, 3.002605500165373]	7.99	5.97	1.0	40hz	high_pain	47.0			sub-023	250	23	45	47	COM11	COM15	COM3	2024-03-08_14h42.20.666	001-EEG_SVR_Officel	2022.2.5	144.04551795218583		5.97199999999998	1_sub-023_SVR_EEG_block3-4.protocol.csv	step21	2853	283.354	STIMULATE	47.1	47.0	47.0	47.0	47.0	21	1182.724
1186.17	0	593085	wait	20	2	0	2	0	10.0	0.0	10.0	0.0						1239.1944797998294	1245.3344755000437	1245.3344755000437	7.5	['7', 'a', '5', 'return']	[2.8543491000309587, 3.3994013997726142, 3.605684000067413, 4.294720499776304]	6.13	5.45	2.0	20hz	high_pain	47.0			sub-023	250	23	45	47	COM11	COM15	COM3	2024-03-08_14h42.20.666	001-EEG_SVR_Officel	2022.2.5	144.04551795218583		10.05600000000004	1_sub-023_SVR_EEG_block3-4.protocol.csv	step23	3071	304.984	STIMULATE	47.1	47.0	46.9	47.0	47.0	23	1204.354
1192.298	0	596149	20hz	6	2	0	2	0	10.0	0.0	10.0	0.0						1239.1944797998294	1245.3344755000437	1245.3344755000437	7.5	['7', 'a', '5', 'return']	[2.8543491000309587, 3.3994013997726142, 3.605684000067413, 4.294720499776304]	6.13	5.45	2.0	20hz	high_pain	47.0			sub-023	250	23	45	47	COM11	COM15	COM3	2024-03-08_14h42.20.666	001-EEG_SVR_Officel	2022.2.5	144.04551795218583		6.127999999999929	1_sub-023_SVR_EEG_block3-4.protocol.csv	step23	3071	304.984	STIMULATE	47.1	47.0	46.9	47.0	47.0	23	1204.354
1198.498	0	599249	20/Hi	4	2	0	2	0	10.0	0.0	10.0	0.0						1239.1944797998294	1245.3344755000437	1245.3344755000437	7.5	['7', 'a', '5', 'return']	[2.8543491000309587, 3.3994013997726142, 3.605684000067413, 4.294720499776304]	6.13	5.45	2.0	20hz	high_pain	47.0			sub-023	250	23	45	47	COM11	COM15	COM3	2024-03-08_14h42.20.666	001-EEG_SVR_Officel	2022.2.5	144.04551795218583		5.4500000000000455	1_sub-023_SVR_EEG_block3-4.protocol.csv	step23	3071	304.984	STIMULATE	47.1	47.0	46.9	47.0	47.0	23	1204.354
1209.624	0	604812	wait	20	2	0	2	0	11.0	0.0	11.0	0.0						1262.6491018999368	1269.7890749000944	1269.7890749000944	8.5	['8', 'a', '5', 'return']	[2.8400810002349317, 3.208081000018865, 3.4322049003094435, 4.200721700210124]	7.13	5.13	3.0	20hz	high_pain	47.0			sub-023	250	23	45	47	COM11	COM15	COM3	2024-03-08_14h42.20.666	001-EEG_SVR_Officel	2022.2.5	144.04551795218583		11.875999999999976	1_sub-023_SVR_EEG_block3-4.protocol.csv	step25	3315	329.129	STIMULATE	47.1	47.0	47.0	46.9	47.0	25	1228.499
1216.752	0	608376	20hz	6	2	0	2	0	11.0	0.0	11.0	0.0						1262.6491018999368	1269.7890749000944	1269.7890749000944	8.5	['8', 'a', '5', 'return']	[2.8400810002349317, 3.208081000018865, 3.4322049003094435, 4.200721700210124]	7.13	5.13	3.0	20hz	high_pain	47.0			sub-023	250	23	45	47	COM11	COM15	COM3	2024-03-08_14h42.20.666	001-EEG_SVR_Officel	2022.2.5	144.04551795218583		7.127999999999929	1_sub-023_SVR_EEG_block3-4.protocol.csv	step25	3315	329.129	STIMULATE	47.1	47.0	47.0	46.9	47.0	25	1228.499
1222.632	0	611316	20/Hi	4	2	0	2	0	11.0	0.0	11.0	0.0						1262.6491018999368	1269.7890749000944	1269.7890749000944	8.5	['8', 'a', '5', 'return']	[2.8400810002349317, 3.208081000018865, 3.4322049003094435, 4.200721700210124]	7.13	5.13	3.0	20hz	high_pain	47.0			sub-023	250	23	45	47	COM11	COM15	COM3	2024-03-08_14h42.20.666	001-EEG_SVR_Officel	2022.2.5	144.04551795218583		5.130000000000109	1_sub-023_SVR_EEG_block3-4.protocol.csv	step25	3315	329.129	STIMULATE	47.1	47.0	47.0	46.9	47.0	25	1228.499
1233.982	0	616991	wait	20	2	0	2	0	12.0	0.0	12.0	0.0						1287.0063044000417	1293.2640014998617	1293.2640014998617	1.5	['1', 'a', '5', 'return']	[3.2135081002488732, 3.940413000062108, 4.133509000297636, 4.861346100457013]	6.25	6.44	0.0	controle	low_pain	45.0			sub-023	250	23	45	47	COM11	COM15	COM3	2024-03-08_14h42.20.666	001-EEG_SVR_Officel	2022.2.5	144.04551795218583		12.099999999999909	1_sub-023_SVR_EEG_block3-4.protocol.csv	step27	3565	353.958	STIMULATE	45.0	44.9	44.9	44.9	45.0	27	1253.328
1240.226	0	620113	CNhz	12	2	0	2	0	12.0	0.0	12.0	0.0						1287.0063044000417	1293.2640014998617	1293.2640014998617	1.5	['1', 'a', '5', 'return']	[3.2135081002488732, 3.940413000062108, 4.133509000297636, 4.861346100457013]	6.25	6.44	0.0	controle	low_pain	45.0			sub-023	250	23	45	47	COM11	COM15	COM3	2024-03-08_14h42.20.666	001-EEG_SVR_Officel	2022.2.5	144.04551795218583		6.244000000000142	1_sub-023_SVR_EEG_block3-4.protocol.csv	step27	3565	353.958	STIMULATE	45.0	44.9	44.9	44.9	45.0	27	1253.328
1247.42	0	623710	CN/Lo	11	2	0	2	0	12.0	0.0	12.0	0.0						1287.0063044000417	1293.2640014998617	1293.2640014998617	1.5	['1', 'a', '5', 'return']	[3.2135081002488732, 3.940413000062108, 4.133509000297636, 4.861346100457013]	6.25	6.44	0.0	controle	low_pain	45.0			sub-023	250	23	45	47	COM11	COM15	COM3	2024-03-08_14h42.20.666	001-EEG_SVR_Officel	2022.2.5	144.04551795218583		6.44399999999996	1_sub-023_SVR_EEG_block3-4.protocol.csv	step27	3565	353.958	STIMULATE	45.0	44.9	44.9	44.9	45.0	27	1253.328
1258.108	0	629054	wait	20	2	0	2	0	13.0	0.0	13.0	0.0						1311.133653699886	1316.5513939000666	1316.5513939000666	6.5	['6', 'a', '5', 'return']	[2.9648867999203503, 3.237609799951315, 3.4365074997767806, 4.110285900067538]	5.41	6.22	1.0	controle	high_pain	47.0			sub-023	250	23	45	47	COM11	COM15	COM3	2024-03-08_14h42.20.666	001-EEG_SVR_Officel	2022.2.5	144.04551795218583		11.437999999999874	1_sub-023_SVR_EEG_block3-4.protocol.csv	step29	3797	376.985	STIMULATE	47.0	46.9	47.0	47.0	47.0	29	1276.355
1263.514	0	631757	CNhz	12	2	0	2	0	13.0	0.0	13.0	0.0						1311.133653699886	1316.5513939000666	1316.5513939000666	6.5	['6', 'a', '5', 'return']	[2.9648867999203503, 3.237609799951315, 3.4365074997767806, 4.110285900067538]	5.41	6.22	1.0	controle	high_pain	47.0			sub-023	250	23	45	47	COM11	COM15	COM3	2024-03-08_14h42.20.666	001-EEG_SVR_Officel	2022.2.5	144.04551795218583		5.405999999999949	1_sub-023_SVR_EEG_block3-4.protocol.csv	step29	3797	376.985	STIMULATE	47.0	46.9	47.0	47.0	47.0	29	1276.355
1270.486	0	635243	CN/Hi	10	2	0	2	0	13.0	0.0	13.0	0.0						1311.133653699886	1316.5513939000666	1316.5513939000666	6.5	['6', 'a', '5', 'return']	[2.9648867999203503, 3.237609799951315, 3.4365074997767806, 4.110285900067538]	5.41	6.22	1.0	controle	high_pain	47.0			sub-023	250	23	45	47	COM11	COM15	COM3	2024-03-08_14h42.20.666	001-EEG_SVR_Officel	2022.2.5	144.04551795218583		6.222000000000207	1_sub-023_SVR_EEG_block3-4.protocol.csv	step29	3797	376.985	STIMULATE	47.0	46.9	47.0	47.0	47.0	29	1276.355
1280.652	0	640326	wait	20	2	0	2	0	14.0	0.0	14.0	0.0						1333.6791832000015	1341.6801986997016	1341.6801986997016	1.0	['1', 'return']	[2.167241199873388, 2.799314099829644]	7.99	5.03	2.0	20hz	low_pain	45.0			sub-023	250	23	45	47	COM11	COM15	COM3	2024-03-08_14h42.20.666	001-EEG_SVR_Officel	2022.2.5	144.04551795218583		10.91599999999994	1_sub-023_SVR_EEG_block3-4.protocol.csv	step31	4039	400.953	STIMULATE	45.2	44.9	44.9	44.9	44.9	31	1300.3229999999999
1288.644	0	644322	20hz	6	2	0	2	0	14.0	0.0	14.0	0.0						1333.6791832000015	1341.6801986997016	1341.6801986997016	1.0	['1', 'return']	[2.167241199873388, 2.799314099829644]	7.99	5.03	2.0	20hz	low_pain	45.0			sub-023	250	23	45	47	COM11	COM15	COM3	2024-03-08_14h42.20.666	001-EEG_SVR_Officel	2022.2.5	144.04551795218583		7.991999999999962	1_sub-023_SVR_EEG_block3-4.protocol.csv	step31	4039	400.953	STIMULATE	45.2	44.9	44.9	44.9	44.9	31	1300.3229999999999
1294.426	0	647213	20/Lo	5	2	0	2	0	14.0	0.0	14.0	0.0						1333.6791832000015	1341.6801986997016	1341.6801986997016	1.0	['1', 'return']	[2.167241199873388, 2.799314099829644]	7.99	5.03	2.0	20hz	low_pain	45.0			sub-023	250	23	45	47	COM11	COM15	COM3	2024-03-08_14h42.20.666	001-EEG_SVR_Officel	2022.2.5	144.04551795218583		5.031999999999925	1_sub-023_SVR_EEG_block3-4.protocol.csv	step31	4039	400.953	STIMULATE	45.2	44.9	44.9	44.9	44.9	31	1300.3229999999999
1304.468	0	652234	wait	20	2	0	2	0	15.0	0.0	15.0	0.0						1357.4934555999937	1363.2098448998297	1363.2098448998297	9.0	['9', 'return']	[2.251547100022435, 2.7706705001182854]	5.71	5.85	3.0	10hz	high_pain	47.0			sub-023	250	23	45	47	COM11	COM15	COM3	2024-03-08_14h42.20.666	001-EEG_SVR_Officel	2022.2.5	144.04551795218583		10.792000000000144	1_sub-023_SVR_EEG_block3-4.protocol.csv	step33	4264	423.261	STIMULATE	47.0	46.9	47.0	47.0	47.0	33	1322.6309999999999
1310.172	0	655086	10hz	3	2	0	2	0	15.0	0.0	15.0	0.0						1357.4934555999937	1363.2098448998297	1363.2098448998297	9.0	['9', 'return']	[2.251547100022435, 2.7706705001182854]	5.71	5.85	3.0	10hz	high_pain	47.0			sub-023	250	23	45	47	COM11	COM15	COM3	2024-03-08_14h42.20.666	001-EEG_SVR_Officel	2022.2.5	144.04551795218583		5.703999999999951	1_sub-023_SVR_EEG_block3-4.protocol.csv	step33	4264	423.261	STIMULATE	47.0	46.9	47.0	47.0	47.0	33	1322.6309999999999
1316.774	0	658387	10/Hi	1	2	0	2	0	15.0	0.0	15.0	0.0						1357.4934555999937	1363.2098448998297	1363.2098448998297	9.0	['9', 'return']	[2.251547100022435, 2.7706705001182854]	5.71	5.85	3.0	10hz	high_pain	47.0			sub-023	250	23	45	47	COM11	COM15	COM3	2024-03-08_14h42.20.666	001-EEG_SVR_Officel	2022.2.5	144.04551795218583		5.851999999999862	1_sub-023_SVR_EEG_block3-4.protocol.csv	step33	4264	423.261	STIMULATE	47.0	46.9	47.0	47.0	47.0	33	1322.6309999999999
1387.332	0	693666	wait	20	3	0	3	0	0.0	0.0	0.0	0.0				p	0.3956249998882413	1440.358852500096	1445.5187757997774	1445.5187757997774	0.5	['0', 'a', '5', 'return']	[2.9753024000674486, 4.23945640027523, 4.718672099988908, 7.63100629998371]	5.15	5.22	0.0	40hz	low_pain	45.0			sub-023	250	23	45	47	COM11	COM15	COM3	2024-03-08_14h42.20.666	001-EEG_SVR_Officel	2022.2.5	144.04551795218583		71.30800000000022	1_sub-023_SVR_EEG_block3-4.protocol.csv	step35	5083	504.98	STIMULATE	44.9	44.9	44.9	44.9	45.2	35	1404.343
1392.48	0	696240	40hz	9	3	0	3	0	0.0	0.0	0.0	0.0				p	0.3956249998882413	1440.358852500096	1445.5187757997774	1445.5187757997774	0.5	['0', 'a', '5', 'return']	[2.9753024000674486, 4.23945640027523, 4.718672099988908, 7.63100629998371]	5.15	5.22	0.0	40hz	low_pain	45.0			sub-023	250	23	45	47	COM11	COM15	COM3	2024-03-08_14h42.20.666	001-EEG_SVR_Officel	2022.2.5	144.04551795218583		5.147999999999911	1_sub-023_SVR_EEG_block3-4.protocol.csv	step35	5083	504.98	STIMULATE	44.9	44.9	44.9	44.9	45.2	35	1404.343
1398.452	0	699226	40/Lo	8	3	0	3	0	0.0	0.0	0.0	0.0				p	0.3956249998882413	1440.358852500096	1445.5187757997774	1445.5187757997774	0.5	['0', 'a', '5', 'return']	[2.9753024000674486, 4.23945640027523, 4.718672099988908, 7.63100629998371]	5.15	5.22	0.0	40hz	low_pain	45.0			sub-023	250	23	45	47	COM11	COM15	COM3	2024-03-08_14h42.20.666	001-EEG_SVR_Officel	2022.2.5	144.04551795218583		5.22199999999998	1_sub-023_SVR_EEG_block3-4.protocol.csv	step35	5083	504.98	STIMULATE	44.9	44.9	44.9	44.9	45.2	35	1404.343
1413.14	0	706570	wait	20	3	0	3	0	1.0	0.0	1.0	0.0						1466.1670896997675	1473.1190132000484	1473.1190132000484	5.5	['5', 'a', '5', 'return']	[2.359373399987817, 2.854624600149691, 3.056278199888766, 3.8067999999038875]	6.94	5.17	1.0	10hz	high_pain	47.0			sub-023	250	23	45	47	COM11	COM15	COM3	2024-03-08_14h42.20.666	001-EEG_SVR_Officel	2022.2.5	144.04551795218583		15.438000000000102	1_sub-023_SVR_EEG_block3-4.protocol.csv	step37	5361	532.548	STIMULATE	47.2	46.9	47.0	47.0	47.0	37	1431.911
1420.08	0	710040	10hz	3	3	0	3	0	1.0	0.0	1.0	0.0						1466.1670896997675	1473.1190132000484	1473.1190132000484	5.5	['5', 'a', '5', 'return']	[2.359373399987817, 2.854624600149691, 3.056278199888766, 3.8067999999038875]	6.94	5.17	1.0	10hz	high_pain	47.0			sub-023	250	23	45	47	COM11	COM15	COM3	2024-03-08_14h42.20.666	001-EEG_SVR_Officel	2022.2.5	144.04551795218583		6.939999999999827	1_sub-023_SVR_EEG_block3-4.protocol.csv	step37	5361	532.548	STIMULATE	47.2	46.9	47.0	47.0	47.0	37	1431.911
1426.002	0	713001	10/Hi	1	3	0	3	0	1.0	0.0	1.0	0.0						1466.1670896997675	1473.1190132000484	1473.1190132000484	5.5	['5', 'a', '5', 'return']	[2.359373399987817, 2.854624600149691, 3.056278199888766, 3.8067999999038875]	6.94	5.17	1.0	10hz	high_pain	47.0			sub-023	250	23	45	47	COM11	COM15	COM3	2024-03-08_14h42.20.666	001-EEG_SVR_Officel	2022.2.5	144.04551795218583		5.1720000000000255	1_sub-023_SVR_EEG_block3-4.protocol.csv	step37	5361	532.548	STIMULATE	47.2	46.9	47.0	47.0	47.0	37	1431.911
1436.912	0	718456	wait	20	3	0	3	0	2.0	0.0	2.0	0.0						1489.940166299697	1495.3986810999922	1495.3986810999922	6.5	['6', 'a', '5', 'return']	[2.189405799843371, 2.5098974998109043, 2.7261648001149297, 3.494022199884057]	5.45	6.3	2.0	40hz	high_pain	47.0			sub-023	250	23	45	47	COM11	COM15	COM3	2024-03-08_14h42.20.666	001-EEG_SVR_Officel	2022.2.5	144.04551795218583		11.660000000000082	1_sub-023_SVR_EEG_block3-4.protocol.csv	step39	5597	555.946	STIMULATE	47.1	46.9	47.0	47.0	47.0	39	1455.309
1442.362	0	721181	40hz	9	3	0	3	0	2.0	0.0	2.0	0.0						1489.940166299697	1495.3986810999922	1495.3986810999922	6.5	['6', 'a', '5', 'return']	[2.189405799843371, 2.5098974998109043, 2.7261648001149297, 3.494022199884057]	5.45	6.3	2.0	40hz	high_pain	47.0			sub-023	250	23	45	47	COM11	COM15	COM3	2024-03-08_14h42.20.666	001-EEG_SVR_Officel	2022.2.5	144.04551795218583		5.4500000000000455	1_sub-023_SVR_EEG_block3-4.protocol.csv	step39	5597	555.946	STIMULATE	47.1	46.9	47.0	47.0	47.0	39	1455.309
1449.416	0	724708	40/Hi	7	3	0	3	0	2.0	0.0	2.0	0.0						1489.940166299697	1495.3986810999922	1495.3986810999922	6.5	['6', 'a', '5', 'return']	[2.189405799843371, 2.5098974998109043, 2.7261648001149297, 3.494022199884057]	5.45	6.3	2.0	40hz	high_pain	47.0			sub-023	250	23	45	47	COM11	COM15	COM3	2024-03-08_14h42.20.666	001-EEG_SVR_Officel	2022.2.5	144.04551795218583		6.30399999999986	1_sub-023_SVR_EEG_block3-4.protocol.csv	step39	5597	555.946	STIMULATE	47.1	46.9	47.0	47.0	47.0	39	1455.309
1458.89	0	729445	wait	20	3	0	3	0	3.0	0.0	3.0	0.0						1511.9153161998838	1517.9229192999192	1517.9229192999192	8.5	['8', 'a', '5', 'return']	[2.2182130003347993, 2.70561629999429, 2.906149400398135, 3.570152500178665]	6.0	6.44	3.0	40hz	high_pain	47.0			sub-023	250	23	45	47	COM11	COM15	COM3	2024-03-08_14h42.20.666	001-EEG_SVR_Officel	2022.2.5	144.04551795218583		10.22400000000016	1_sub-023_SVR_EEG_block3-4.protocol.csv	step41	5826	578.635	STIMULATE	47.1	46.9	47.0	47.0	47.0	41	1477.998
1464.884	0	732442	40hz	9	3	0	3	0	3.0	0.0	3.0	0.0						1511.9153161998838	1517.9229192999192	1517.9229192999192	8.5	['8', 'a', '5', 'return']	[2.2182130003347993, 2.70561629999429, 2.906149400398135, 3.570152500178665]	6.0	6.44	3.0	40hz	high_pain	47.0			sub-023	250	23	45	47	COM11	COM15	COM3	2024-03-08_14h42.20.666	001-EEG_SVR_Officel	2022.2.5	144.04551795218583		5.9939999999999145	1_sub-023_SVR_EEG_block3-4.protocol.csv	step41	5826	578.635	STIMULATE	47.1	46.9	47.0	47.0	47.0	41	1477.998
1472.076	0	736038	40/Hi	7	3	0	3	0	3.0	0.0	3.0	0.0						1511.9153161998838	1517.9229192999192	1517.9229192999192	8.5	['8', 'a', '5', 'return']	[2.2182130003347993, 2.70561629999429, 2.906149400398135, 3.570152500178665]	6.0	6.44	3.0	40hz	high_pain	47.0			sub-023	250	23	45	47	COM11	COM15	COM3	2024-03-08_14h42.20.666	001-EEG_SVR_Officel	2022.2.5	144.04551795218583		6.442000000000007	1_sub-023_SVR_EEG_block3-4.protocol.csv	step41	5826	578.635	STIMULATE	47.1	46.9	47.0	47.0	47.0	41	1477.998
1481.488	0	740744	wait	20	3	0	3	0	4.0	0.0	4.0	0.0						1534.5151563999243	1539.5436781998724	1539.5436781998724	1.0	['1', 'return']	[2.229650099761784, 3.3091700999066234]	5.02	5.4	0.0	20hz	low_pain	45.0			sub-023	250	23	45	47	COM11	COM15	COM3	2024-03-08_14h42.20.666	001-EEG_SVR_Officel	2022.2.5	144.04551795218583		10.162000000000035	1_sub-023_SVR_EEG_block3-4.protocol.csv	step43	6034	599.289	STIMULATE	45.0	44.9	44.9	44.9	45.1	43	1498.652
1486.504	0	743252	20hz	6	3	0	3	0	4.0	0.0	4.0	0.0						1534.5151563999243	1539.5436781998724	1539.5436781998724	1.0	['1', 'return']	[2.229650099761784, 3.3091700999066234]	5.02	5.4	0.0	20hz	low_pain	45.0			sub-023	250	23	45	47	COM11	COM15	COM3	2024-03-08_14h42.20.666	001-EEG_SVR_Officel	2022.2.5	144.04551795218583		5.015999999999849	1_sub-023_SVR_EEG_block3-4.protocol.csv	step43	6034	599.289	STIMULATE	45.0	44.9	44.9	44.9	45.1	43	1498.652
1492.656	0	746328	20/Lo	5	3	0	3	0	4.0	0.0	4.0	0.0						1534.5151563999243	1539.5436781998724	1539.5436781998724	1.0	['1', 'return']	[2.229650099761784, 3.3091700999066234]	5.02	5.4	0.0	20hz	low_pain	45.0			sub-023	250	23	45	47	COM11	COM15	COM3	2024-03-08_14h42.20.666	001-EEG_SVR_Officel	2022.2.5	144.04551795218583		5.402000000000044	1_sub-023_SVR_EEG_block3-4.protocol.csv	step43	6034	599.289	STIMULATE	45.0	44.9	44.9	44.9	45.1	43	1498.652
1502.838	0	751419	wait	20	3	0	3	0	5.0	0.0	5.0	0.0						1555.8649579999037	1562.1922396998852	1562.1922396998852	2.0	['2', 'return']	[2.4049776000902057, 3.6931922999210656]	6.32	5.4	1.0	controle	low_pain	45.0			sub-023	250	23	45	47	COM11	COM15	COM3	2024-03-08_14h42.20.666	001-EEG_SVR_Officel	2022.2.5	144.04551795218583		10.932000000000016	1_sub-023_SVR_EEG_block3-4.protocol.csv	step45	6263	621.904	STIMULATE	44.9	44.9	44.9	44.9	45.0	45	1521.267
1509.154	0	754577	CNhz	12	3	0	3	0	5.0	0.0	5.0	0.0						1555.8649579999037	1562.1922396998852	1562.1922396998852	2.0	['2', 'return']	[2.4049776000902057, 3.6931922999210656]	6.32	5.4	1.0	controle	low_pain	45.0			sub-023	250	23	45	47	COM11	COM15	COM3	2024-03-08_14h42.20.666	001-EEG_SVR_Officel	2022.2.5	144.04551795218583		6.316000000000031	1_sub-023_SVR_EEG_block3-4.protocol.csv	step45	6263	621.904	STIMULATE	44.9	44.9	44.9	44.9	45.0	45	1521.267
1515.306	0	757653	CN/Lo	11	3	0	3	0	5.0	0.0	5.0	0.0						1555.8649579999037	1562.1922396998852	1562.1922396998852	2.0	['2', 'return']	[2.4049776000902057, 3.6931922999210656]	6.32	5.4	1.0	controle	low_pain	45.0			sub-023	250	23	45	47	COM11	COM15	COM3	2024-03-08_14h42.20.666	001-EEG_SVR_Officel	2022.2.5	144.04551795218583		5.402000000000044	1_sub-023_SVR_EEG_block3-4.protocol.csv	step45	6263	621.904	STIMULATE	44.9	44.9	44.9	44.9	45.0	45	1521.267
1525.876	0	762938	wait	20	3	0	3	0	6.0	0.0	6.0	0.0						1578.9024807997048	1586.361793899909	1586.361793899909	8.0	['8', 'return']	[2.3389008003287017, 3.026801100000739]	7.45	6.43	2.0	controle	high_pain	47.0			sub-023	250	23	45	47	COM11	COM15	COM3	2024-03-08_14h42.20.666	001-EEG_SVR_Officel	2022.2.5	144.04551795218583		11.319999999999936	1_sub-023_SVR_EEG_block3-4.protocol.csv	step47	6516	647.091	STIMULATE	47.1	47.0	47.0	46.9	47.0	47	1546.454
1533.324	0	766662	CNhz	12	3	0	3	0	6.0	0.0	6.0	0.0						1578.9024807997048	1586.361793899909	1586.361793899909	8.0	['8', 'return']	[2.3389008003287017, 3.026801100000739]	7.45	6.43	2.0	controle	high_pain	47.0			sub-023	250	23	45	47	COM11	COM15	COM3	2024-03-08_14h42.20.666	001-EEG_SVR_Officel	2022.2.5	144.04551795218583		7.448000000000093	1_sub-023_SVR_EEG_block3-4.protocol.csv	step47	6516	647.091	STIMULATE	47.1	47.0	47.0	46.9	47.0	47	1546.454
1540.502	0	770251	CN/Hi	10	3	0	3	0	6.0	0.0	6.0	0.0						1578.9024807997048	1586.361793899909	1586.361793899909	8.0	['8', 'return']	[2.3389008003287017, 3.026801100000739]	7.45	6.43	2.0	controle	high_pain	47.0			sub-023	250	23	45	47	COM11	COM15	COM3	2024-03-08_14h42.20.666	001-EEG_SVR_Officel	2022.2.5	144.04551795218583		6.427999999999884	1_sub-023_SVR_EEG_block3-4.protocol.csv	step47	6516	647.091	STIMULATE	47.1	47.0	47.0	46.9	47.0	47	1546.454
1549.378	0	774689	wait	20	3	0	3	0	7.0	0.0	7.0	0.0						1602.4053946998902	1609.1422259998508	1609.1422259998508	0.5	['0', 'a', '5', 'return']	[2.6872890000231564, 3.167977100238204, 3.415076400153339, 4.319781300146133]	6.73	6.23	3.0	40hz	low_pain	45.0			sub-023	250	23	45	47	COM11	COM15	COM3	2024-03-08_14h42.20.666	001-EEG_SVR_Officel	2022.2.5	144.04551795218583		9.625999999999976	1_sub-023_SVR_EEG_block3-4.protocol.csv	step49	6744	669.666	STIMULATE	45.0	44.9	44.9	44.9	44.9	49	1569.029
1556.104	0	778052	40hz	9	3	0	3	0	7.0	0.0	7.0	0.0						1602.4053946998902	1609.1422259998508	1609.1422259998508	0.5	['0', 'a', '5', 'return']	[2.6872890000231564, 3.167977100238204, 3.415076400153339, 4.319781300146133]	6.73	6.23	3.0	40hz	low_pain	45.0			sub-023	250	23	45	47	COM11	COM15	COM3	2024-03-08_14h42.20.666	001-EEG_SVR_Officel	2022.2.5	144.04551795218583		6.726000000000113	1_sub-023_SVR_EEG_block3-4.protocol.csv	step49	6744	669.666	STIMULATE	45.0	44.9	44.9	44.9	44.9	49	1569.029
1563.088	0	781544	40/Lo	8	3	0	3	0	7.0	0.0	7.0	0.0						1602.4053946998902	1609.1422259998508	1609.1422259998508	0.5	['0', 'a', '5', 'return']	[2.6872890000231564, 3.167977100238204, 3.415076400153339, 4.319781300146133]	6.73	6.23	3.0	40hz	low_pain	45.0			sub-023	250	23	45	47	COM11	COM15	COM3	2024-03-08_14h42.20.666	001-EEG_SVR_Officel	2022.2.5	144.04551795218583		6.233999999999924	1_sub-023_SVR_EEG_block3-4.protocol.csv	step49	6744	669.666	STIMULATE	45.0	44.9	44.9	44.9	44.9	49	1569.029
1573.442	0	786721	wait	20	3	0	3	0	8.0	0.0	8.0	0.0						1626.4698437000625	1633.318781199865	1633.318781199865	7.0	['7', 'return']	[1.7983367000706494, 2.374699200037867]	6.84	5.84	0.0	40hz	high_pain	47.0			sub-023	250	23	45	47	COM11	COM15	COM3	2024-03-08_14h42.20.666	001-EEG_SVR_Officel	2022.2.5	144.04551795218583		11.104000000000042	1_sub-023_SVR_EEG_block3-4.protocol.csv	step51	6984	693.457	STIMULATE	47.0	46.9	47.0	47.0	47.0	51	1592.82
1580.28	0	790140	40hz	9	3	0	3	0	8.0	0.0	8.0	0.0						1626.4698437000625	1633.318781199865	1633.318781199865	7.0	['7', 'return']	[1.7983367000706494, 2.374699200037867]	6.84	5.84	0.0	40hz	high_pain	47.0			sub-023	250	23	45	47	COM11	COM15	COM3	2024-03-08_14h42.20.666	001-EEG_SVR_Officel	2022.2.5	144.04551795218583		6.837999999999965	1_sub-023_SVR_EEG_block3-4.protocol.csv	step51	6984	693.457	STIMULATE	47.0	46.9	47.0	47.0	47.0	51	1592.82
1586.868	0	793434	40/Hi	7	3	0	3	0	8.0	0.0	8.0	0.0						1626.4698437000625	1633.318781199865	1633.318781199865	7.0	['7', 'return']	[1.7983367000706494, 2.374699200037867]	6.84	5.84	0.0	40hz	high_pain	47.0			sub-023	250	23	45	47	COM11	COM15	COM3	2024-03-08_14h42.20.666	001-EEG_SVR_Officel	2022.2.5	144.04551795218583		5.837999999999965	1_sub-023_SVR_EEG_block3-4.protocol.csv	step51	6984	693.457	STIMULATE	47.0	46.9	47.0	47.0	47.0	51	1592.82
1595.676	0	797838	wait	20	3	0	3	0	9.0	0.0	9.0	0.0						1648.7026549000293	1654.3629665998742	1654.3629665998742	3.5	['3', 'a', '5', 'return']	[2.112369100097567, 2.510771100409329, 2.7114695999771357, 3.5838775001466274]	5.65	6.47	1.0	40hz	low_pain	45.0			sub-023	250	23	45	47	COM11	COM15	COM3	2024-03-08_14h42.20.666	001-EEG_SVR_Officel	2022.2.5	144.04551795218583		9.557999999999993	1_sub-023_SVR_EEG_block3-4.protocol.csv	step53	7203	715.123	STIMULATE	44.9	44.9	44.9	44.9	45.0	53	1614.486
1601.324	0	800662	40hz	9	3	0	3	0	9.0	0.0	9.0	0.0						1648.7026549000293	1654.3629665998742	1654.3629665998742	3.5	['3', 'a', '5', 'return']	[2.112369100097567, 2.510771100409329, 2.7114695999771357, 3.5838775001466274]	5.65	6.47	1.0	40hz	low_pain	45.0			sub-023	250	23	45	47	COM11	COM15	COM3	2024-03-08_14h42.20.666	001-EEG_SVR_Officel	2022.2.5	144.04551795218583		5.648000000000138	1_sub-023_SVR_EEG_block3-4.protocol.csv	step53	7203	715.123	STIMULATE	44.9	44.9	44.9	44.9	45.0	53	1614.486
1608.544	0	804272	40/Lo	8	3	0	3	0	9.0	0.0	9.0	0.0						1648.7026549000293	1654.3629665998742	1654.3629665998742	3.5	['3', 'a', '5', 'return']	[2.112369100097567, 2.510771100409329, 2.7114695999771357, 3.5838775001466274]	5.65	6.47	1.0	40hz	low_pain	45.0			sub-023	250	23	45	47	COM11	COM15	COM3	2024-03-08_14h42.20.666	001-EEG_SVR_Officel	2022.2.5	144.04551795218583		6.470000000000027	1_sub-023_SVR_EEG_block3-4.protocol.csv	step53	7203	715.123	STIMULATE	44.9	44.9	44.9	44.9	45.0	53	1614.486
1617.934	0	808967	wait	20	3	0	3	0	10.0	0.0	10.0	0.0						1670.9621683000587	1678.733993799891	1678.733993799891	0.5	['0', 'a', '5', 'return']	[2.3268551998771727, 2.83066640002653, 3.06278089992702, 3.7439526999369264]	7.76	5.81	2.0	controle	low_pain	45.0			sub-023	250	23	45	47	COM11	COM15	COM3	2024-03-08_14h42.20.666	001-EEG_SVR_Officel	2022.2.5	144.04551795218583		10.139999999999873	1_sub-023_SVR_EEG_block3-4.protocol.csv	step55	7441	738.748	STIMULATE	45.1	44.9	44.9	44.9	44.9	55	1638.111
1625.694	0	812847	CNhz	12	3	0	3	0	10.0	0.0	10.0	0.0						1670.9621683000587	1678.733993799891	1678.733993799891	0.5	['0', 'a', '5', 'return']	[2.3268551998771727, 2.83066640002653, 3.06278089992702, 3.7439526999369264]	7.76	5.81	2.0	controle	low_pain	45.0			sub-023	250	23	45	47	COM11	COM15	COM3	2024-03-08_14h42.20.666	001-EEG_SVR_Officel	2022.2.5	144.04551795218583		7.759999999999991	1_sub-023_SVR_EEG_block3-4.protocol.csv	step55	7441	738.748	STIMULATE	45.1	44.9	44.9	44.9	44.9	55	1638.111
1632.256	0	816128	CN/Lo	11	3	0	3	0	10.0	0.0	10.0	0.0						1670.9621683000587	1678.733993799891	1678.733993799891	0.5	['0', 'a', '5', 'return']	[2.3268551998771727, 2.83066640002653, 3.06278089992702, 3.7439526999369264]	7.76	5.81	2.0	controle	low_pain	45.0			sub-023	250	23	45	47	COM11	COM15	COM3	2024-03-08_14h42.20.666	001-EEG_SVR_Officel	2022.2.5	144.04551795218583		5.8120000000001255	1_sub-023_SVR_EEG_block3-4.protocol.csv	step55	7441	738.748	STIMULATE	45.1	44.9	44.9	44.9	44.9	55	1638.111
1642.472	0	821236	wait	20	3	0	3	0	11.0	0.0	11.0	0.0						1695.5005490998738	1701.8831372996792	1701.8831372996792	1.0	['1', 'return']	[2.298171500209719, 2.970737900119275]	6.37	5.0	3.0	10hz	low_pain	45.0			sub-023	250	23	45	47	COM11	COM15	COM3	2024-03-08_14h42.20.666	001-EEG_SVR_Officel	2022.2.5	144.04551795218583		10.965999999999894	1_sub-023_SVR_EEG_block3-4.protocol.csv	step57	7666	761.137	STIMULATE	44.9	44.9	44.9	45.0	45.1	57	1660.5
1648.842	0	824421	10hz	3	3	0	3	0	11.0	0.0	11.0	0.0						1695.5005490998738	1701.8831372996792	1701.8831372996792	1.0	['1', 'return']	[2.298171500209719, 2.970737900119275]	6.37	5.0	3.0	10hz	low_pain	45.0			sub-023	250	23	45	47	COM11	COM15	COM3	2024-03-08_14h42.20.666	001-EEG_SVR_Officel	2022.2.5	144.04551795218583		6.370000000000118	1_sub-023_SVR_EEG_block3-4.protocol.csv	step57	7666	761.137	STIMULATE	44.9	44.9	44.9	45.0	45.1	57	1660.5
1654.592	0	827296	10/Lo	2	3	0	3	0	11.0	0.0	11.0	0.0						1695.5005490998738	1701.8831372996792	1701.8831372996792	1.0	['1', 'return']	[2.298171500209719, 2.970737900119275]	6.37	5.0	3.0	10hz	low_pain	45.0			sub-023	250	23	45	47	COM11	COM15	COM3	2024-03-08_14h42.20.666	001-EEG_SVR_Officel	2022.2.5	144.04551795218583		5.0	1_sub-023_SVR_EEG_block3-4.protocol.csv	step57	7666	761.137	STIMULATE	44.9	44.9	44.9	45.0	45.1	57	1660.5
1664.842	0	832421	wait	20	3	0	3	0	12.0	0.0	12.0	0.0						1717.8707522000186	1725.8368848999962	1725.8368848999962	6.0	['6', 'return']	[2.816094799898565, 3.375758799724281]	7.96	6.3	0.0	controle	high_pain	47.0			sub-023	250	23	45	47	COM11	COM15	COM3	2024-03-08_14h42.20.666	001-EEG_SVR_Officel	2022.2.5	144.04551795218583		11.0	1_sub-023_SVR_EEG_block3-4.protocol.csv	step59	7916	786.438	STIMULATE	47.0	46.9	46.9	47.0	47.1	59	1685.801
1672.796	0	836398	CNhz	12	3	0	3	0	12.0	0.0	12.0	0.0						1717.8707522000186	1725.8368848999962	1725.8368848999962	6.0	['6', 'return']	[2.816094799898565, 3.375758799724281]	7.96	6.3	0.0	controle	high_pain	47.0			sub-023	250	23	45	47	COM11	COM15	COM3	2024-03-08_14h42.20.666	001-EEG_SVR_Officel	2022.2.5	144.04551795218583		7.953999999999951	1_sub-023_SVR_EEG_block3-4.protocol.csv	step59	7916	786.438	STIMULATE	47.0	46.9	46.9	47.0	47.1	59	1685.801
1679.852	0	839926	CN/Hi	10	3	0	3	0	12.0	0.0	12.0	0.0						1717.8707522000186	1725.8368848999962	1725.8368848999962	6.0	['6', 'return']	[2.816094799898565, 3.375758799724281]	7.96	6.3	0.0	controle	high_pain	47.0			sub-023	250	23	45	47	COM11	COM15	COM3	2024-03-08_14h42.20.666	001-EEG_SVR_Officel	2022.2.5	144.04551795218583		6.30600000000004	1_sub-023_SVR_EEG_block3-4.protocol.csv	step59	7916	786.438	STIMULATE	47.0	46.9	46.9	47.0	47.1	59	1685.801
1689.206	0	844603	wait	20	3	0	3	0	13.0	0.0	13.0	0.0						1742.2346582999453	1747.3672291999685	1747.3672291999685	0.5	['0', 'a', '5', 'return']	[2.5819993000477552, 3.1418353002518415, 3.374238900374621, 4.230302100069821]	5.12	6.22	1.0	20hz	low_pain	45.0			sub-023	250	23	45	47	COM11	COM15	COM3	2024-03-08_14h42.20.666	001-EEG_SVR_Officel	2022.2.5	144.04551795218583		10.103999999999814	1_sub-023_SVR_EEG_block3-4.protocol.csv	step61	8124	807.916	STIMULATE	45.0	44.9	44.9	44.9	45.0	61	1707.279
1694.328	0	847164	20hz	6	3	0	3	0	13.0	0.0	13.0	0.0						1742.2346582999453	1747.3672291999685	1747.3672291999685	0.5	['0', 'a', '5', 'return']	[2.5819993000477552, 3.1418353002518415, 3.374238900374621, 4.230302100069821]	5.12	6.22	1.0	20hz	low_pain	45.0			sub-023	250	23	45	47	COM11	COM15	COM3	2024-03-08_14h42.20.666	001-EEG_SVR_Officel	2022.2.5	144.04551795218583		5.122000000000071	1_sub-023_SVR_EEG_block3-4.protocol.csv	step61	8124	807.916	STIMULATE	45.0	44.9	44.9	44.9	45.0	61	1707.279
1701.298	0	850649	20/Lo	5	3	0	3	0	13.0	0.0	13.0	0.0						1742.2346582999453	1747.3672291999685	1747.3672291999685	0.5	['0', 'a', '5', 'return']	[2.5819993000477552, 3.1418353002518415, 3.374238900374621, 4.230302100069821]	5.12	6.22	1.0	20hz	low_pain	45.0			sub-023	250	23	45	47	COM11	COM15	COM3	2024-03-08_14h42.20.666	001-EEG_SVR_Officel	2022.2.5	144.04551795218583		6.220000000000027	1_sub-023_SVR_EEG_block3-4.protocol.csv	step61	8124	807.916	STIMULATE	45.0	44.9	44.9	44.9	45.0	61	1707.279
1711.584	0	855792	wait	20	3	0	3	0	14.0	0.0	14.0	0.0						1764.6124165998772	1771.9187973998487	1771.9187973998487	2.0	['2', 'return']	[2.3501928001642227, 2.9587854999117553]	7.3	5.38	2.0	10hz	low_pain	45.0			sub-023	250	23	45	47	COM11	COM15	COM3	2024-03-08_14h42.20.666	001-EEG_SVR_Officel	2022.2.5	144.04551795218583		11.036000000000058	1_sub-023_SVR_EEG_block3-4.protocol.csv	step63	8351	831.51	STIMULATE	44.9	44.9	44.9	44.9	45.0	63	1730.873
1718.878	0	859439	10hz	3	3	0	3	0	14.0	0.0	14.0	0.0						1764.6124165998772	1771.9187973998487	1771.9187973998487	2.0	['2', 'return']	[2.3501928001642227, 2.9587854999117553]	7.3	5.38	2.0	10hz	low_pain	45.0			sub-023	250	23	45	47	COM11	COM15	COM3	2024-03-08_14h42.20.666	001-EEG_SVR_Officel	2022.2.5	144.04551795218583		7.293999999999869	1_sub-023_SVR_EEG_block3-4.protocol.csv	step63	8351	831.51	STIMULATE	44.9	44.9	44.9	44.9	45.0	63	1730.873
1725.01	0	862505	10/Lo	2	3	0	3	0	14.0	0.0	14.0	0.0						1764.6124165998772	1771.9187973998487	1771.9187973998487	2.0	['2', 'return']	[2.3501928001642227, 2.9587854999117553]	7.3	5.38	2.0	10hz	low_pain	45.0			sub-023	250	23	45	47	COM11	COM15	COM3	2024-03-08_14h42.20.666	001-EEG_SVR_Officel	2022.2.5	144.04551795218583		5.382000000000062	1_sub-023_SVR_EEG_block3-4.protocol.csv	step63	8351	831.51	STIMULATE	44.9	44.9	44.9	44.9	45.0	63	1730.873
1734.872	0	867436	wait	20	3	0	3	0	15.0	0.0	15.0	0.0						1787.8999844999053	1793.7895908998323	1793.7895908998323	2.0	['2', 'return']	[2.382624799851328, 3.1340139000676572]	5.88	5.03	3.0	20hz	low_pain	45.0			sub-023	250	23	45	47	COM11	COM15	COM3	2024-03-08_14h42.20.666	001-EEG_SVR_Officel	2022.2.5	144.04551795218583		10.61200000000008	1_sub-023_SVR_EEG_block3-4.protocol.csv	step65	8557	853.114	STIMULATE	44.9	44.9	44.9	45.0	45.0	65	1752.477
1740.748	0	870374	20hz	6	3	0	3	0	15.0	0.0	15.0	0.0						1787.8999844999053	1793.7895908998323	1793.7895908998323	2.0	['2', 'return']	[2.382624799851328, 3.1340139000676572]	5.88	5.03	3.0	20hz	low_pain	45.0			sub-023	250	23	45	47	COM11	COM15	COM3	2024-03-08_14h42.20.666	001-EEG_SVR_Officel	2022.2.5	144.04551795218583		5.875999999999976	1_sub-023_SVR_EEG_block3-4.protocol.csv	step65	8557	853.114	STIMULATE	44.9	44.9	44.9	45.0	45.0	65	1752.477
1746.532	0	873266	20/Lo	5	3	0	3	0	15.0	0.0	15.0	0.0						1787.8999844999053	1793.7895908998323	1793.7895908998323	2.0	['2', 'return']	[2.382624799851328, 3.1340139000676572]	5.88	5.03	3.0	20hz	low_pain	45.0			sub-023	250	23	45	47	COM11	COM15	COM3	2024-03-08_14h42.20.666	001-EEG_SVR_Officel	2022.2.5	144.04551795218583		5.033999999999878	1_sub-023_SVR_EEG_block3-4.protocol.csv	step65	8557	853.114	STIMULATE	44.9	44.9	44.9	45.0	45.0	65	1752.477
1821.582	0	910791	wait	20	4	0	4	0	0.0	0.0	0.0	0.0				p	2.8484581001102924	1874.612027599942	1881.1334148999304	1881.1334148999304	5.0	['5', 'return']	[2.1436358001083136, 2.7036677999421954]	6.51	5.53	0.0	controle	high_pain	47.0			sub-023	250	23	45	47	COM11	COM15	COM3	2024-03-08_14h42.20.666	001-EEG_SVR_Officel	2022.2.5	144.04551795218583		75.80000000000018	2_sub-023_SVR_EEG_block5-6.protocol.csv	step3	634	63.211	STIMULATE	47.0	47.0	47.0	47.0	47.1	3	1840.202
1828.092	0	914046	CNhz	12	4	0	4	0	0.0	0.0	0.0	0.0				p	2.8484581001102924	1874.612027599942	1881.1334148999304	1881.1334148999304	5.0	['5', 'return']	[2.1436358001083136, 2.7036677999421954]	6.51	5.53	0.0	controle	high_pain	47.0			sub-023	250	23	45	47	COM11	COM15	COM3	2024-03-08_14h42.20.666	001-EEG_SVR_Officel	2022.2.5	144.04551795218583		6.509999999999991	2_sub-023_SVR_EEG_block5-6.protocol.csv	step3	634	63.211	STIMULATE	47.0	47.0	47.0	47.0	47.1	3	1840.202
1834.376	0	917188	CN/Hi	10	4	0	4	0	0.0	0.0	0.0	0.0				p	2.8484581001102924	1874.612027599942	1881.1334148999304	1881.1334148999304	5.0	['5', 'return']	[2.1436358001083136, 2.7036677999421954]	6.51	5.53	0.0	controle	high_pain	47.0			sub-023	250	23	45	47	COM11	COM15	COM3	2024-03-08_14h42.20.666	001-EEG_SVR_Officel	2022.2.5	144.04551795218583		5.533999999999878	2_sub-023_SVR_EEG_block5-6.protocol.csv	step3	634	63.211	STIMULATE	47.0	47.0	47.0	47.0	47.1	3	1840.202
1843.828	0	921914	wait	20	4	0	4	0	1.0	0.0	1.0	0.0						1896.8575025997125	1902.6639147000387	1902.6639147000387	7.5	['7', 'a', '5', 'return']	[2.1329616997390985, 2.7811448997817934, 3.3259380999952555, 4.38188869971782]	5.8	5.06	1.0	controle	high_pain	47.0			sub-023	250	23	45	47	COM11	COM15	COM3	2024-03-08_14h42.20.666	001-EEG_SVR_Officel	2022.2.5	144.04551795218583		10.201999999999998	2_sub-023_SVR_EEG_block5-6.protocol.csv	step5	846	84.213	STIMULATE	47.0	47.0	47.0	47.0	47.1	5	1861.204
1849.622	0	924811	CNhz	12	4	0	4	0	1.0	0.0	1.0	0.0						1896.8575025997125	1902.6639147000387	1902.6639147000387	7.5	['7', 'a', '5', 'return']	[2.1329616997390985, 2.7811448997817934, 3.3259380999952555, 4.38188869971782]	5.8	5.06	1.0	controle	high_pain	47.0			sub-023	250	23	45	47	COM11	COM15	COM3	2024-03-08_14h42.20.666	001-EEG_SVR_Officel	2022.2.5	144.04551795218583		5.794000000000096	2_sub-023_SVR_EEG_block5-6.protocol.csv	step5	846	84.213	STIMULATE	47.0	47.0	47.0	47.0	47.1	5	1861.204
1855.434	0	927717	CN/Hi	10	4	0	4	0	1.0	0.0	1.0	0.0						1896.8575025997125	1902.6639147000387	1902.6639147000387	7.5	['7', 'a', '5', 'return']	[2.1329616997390985, 2.7811448997817934, 3.3259380999952555, 4.38188869971782]	5.8	5.06	1.0	controle	high_pain	47.0			sub-023	250	23	45	47	COM11	COM15	COM3	2024-03-08_14h42.20.666	001-EEG_SVR_Officel	2022.2.5	144.04551795218583		5.061999999999898	2_sub-023_SVR_EEG_block5-6.protocol.csv	step5	846	84.213	STIMULATE	47.0	47.0	47.0	47.0	47.1	5	1861.204
1867.026	0	933513	wait	20	4	0	4	0	2.0	0.0	2.0	0.0						1920.054353399668	1926.8541862997224	1926.8541862997224	3.0	['3', 'return']	[2.5744604002684355, 3.4796360000036657]	6.79	6.27	2.0	40hz	low_pain	45.0			sub-023	250	23	45	47	COM11	COM15	COM3	2024-03-08_14h42.20.666	001-EEG_SVR_Officel	2022.2.5	144.04551795218583		12.342000000000098	2_sub-023_SVR_EEG_block5-6.protocol.csv	step7	1103	109.704	STIMULATE	45.0	44.9	44.9	44.9	44.9	7	1886.695
1873.812	0	936906	40hz	9	4	0	4	0	2.0	0.0	2.0	0.0						1920.054353399668	1926.8541862997224	1926.8541862997224	3.0	['3', 'return']	[2.5744604002684355, 3.4796360000036657]	6.79	6.27	2.0	40hz	low_pain	45.0			sub-023	250	23	45	47	COM11	COM15	COM3	2024-03-08_14h42.20.666	001-EEG_SVR_Officel	2022.2.5	144.04551795218583		6.785999999999831	2_sub-023_SVR_EEG_block5-6.protocol.csv	step7	1103	109.704	STIMULATE	45.0	44.9	44.9	44.9	44.9	7	1886.695
1880.832	0	940416	40/Lo	8	4	0	4	0	2.0	0.0	2.0	0.0						1920.054353399668	1926.8541862997224	1926.8541862997224	3.0	['3', 'return']	[2.5744604002684355, 3.4796360000036657]	6.79	6.27	2.0	40hz	low_pain	45.0			sub-023	250	23	45	47	COM11	COM15	COM3	2024-03-08_14h42.20.666	001-EEG_SVR_Officel	2022.2.5	144.04551795218583		6.270000000000209	2_sub-023_SVR_EEG_block5-6.protocol.csv	step7	1103	109.704	STIMULATE	45.0	44.9	44.9	44.9	44.9	7	1886.695
1890.312	0	945156	wait	20	4	0	4	0	3.0	0.0	3.0	0.0						1943.3418197999708	1949.1908570998348	1949.1908570998348	8.5	['8', 'a', '5', 'return']	[2.4149316996335983, 2.9342753998935223, 3.1347791999578476, 4.079388399608433]	5.84	5.17	3.0	controle	high_pain	47.0			sub-023	250	23	45	47	COM11	COM15	COM3	2024-03-08_14h42.20.666	001-EEG_SVR_Officel	2022.2.5	144.04551795218583		10.22999999999979	2_sub-023_SVR_EEG_block5-6.protocol.csv	step9	1317	130.941	STIMULATE	47.2	46.9	46.9	46.9	47.0	9	1907.932
1896.15	0	948075	CNhz	12	4	0	4	0	3.0	0.0	3.0	0.0						1943.3418197999708	1949.1908570998348	1949.1908570998348	8.5	['8', 'a', '5', 'return']	[2.4149316996335983, 2.9342753998935223, 3.1347791999578476, 4.079388399608433]	5.84	5.17	3.0	controle	high_pain	47.0			sub-023	250	23	45	47	COM11	COM15	COM3	2024-03-08_14h42.20.666	001-EEG_SVR_Officel	2022.2.5	144.04551795218583		5.838000000000193	2_sub-023_SVR_EEG_block5-6.protocol.csv	step9	1317	130.941	STIMULATE	47.2	46.9	46.9	46.9	47.0	9	1907.932
1902.07	0	951035	CN/Hi	10	4	0	4	0	3.0	0.0	3.0	0.0						1943.3418197999708	1949.1908570998348	1949.1908570998348	8.5	['8', 'a', '5', 'return']	[2.4149316996335983, 2.9342753998935223, 3.1347791999578476, 4.079388399608433]	5.84	5.17	3.0	controle	high_pain	47.0			sub-023	250	23	45	47	COM11	COM15	COM3	2024-03-08_14h42.20.666	001-EEG_SVR_Officel	2022.2.5	144.04551795218583		5.169999999999845	2_sub-023_SVR_EEG_block5-6.protocol.csv	step9	1317	130.941	STIMULATE	47.2	46.9	46.9	46.9	47.0	9	1907.932
1913.26	0	956630	wait	20	4	0	4	0	4.0	0.0	4.0	0.0						1966.289603299927	1972.9223102997055	1972.9223102997055	6.0	['6', 'return']	[2.0278914999216795, 3.7403067001141608]	6.62	5.57	0.0	10hz	high_pain	47.0			sub-023	250	23	45	47	COM11	COM15	COM3	2024-03-08_14h42.20.666	001-EEG_SVR_Officel	2022.2.5	144.04551795218583		11.940000000000055	2_sub-023_SVR_EEG_block5-6.protocol.csv	step11	1560	155.01	STIMULATE	47.0	46.9	47.0	47.0	47.0	11	1932.001
1919.88	0	959940	10hz	3	4	0	4	0	4.0	0.0	4.0	0.0						1966.289603299927	1972.9223102997055	1972.9223102997055	6.0	['6', 'return']	[2.0278914999216795, 3.7403067001141608]	6.62	5.57	0.0	10hz	high_pain	47.0			sub-023	250	23	45	47	COM11	COM15	COM3	2024-03-08_14h42.20.666	001-EEG_SVR_Officel	2022.2.5	144.04551795218583		6.620000000000118	2_sub-023_SVR_EEG_block5-6.protocol.csv	step11	1560	155.01	STIMULATE	47.0	46.9	47.0	47.0	47.0	11	1932.001
1926.2	0	963100	10/Hi	1	4	0	4	0	4.0	0.0	4.0	0.0						1966.289603299927	1972.9223102997055	1972.9223102997055	6.0	['6', 'return']	[2.0278914999216795, 3.7403067001141608]	6.62	5.57	0.0	10hz	high_pain	47.0			sub-023	250	23	45	47	COM11	COM15	COM3	2024-03-08_14h42.20.666	001-EEG_SVR_Officel	2022.2.5	144.04551795218583		5.569999999999936	2_sub-023_SVR_EEG_block5-6.protocol.csv	step11	1560	155.01	STIMULATE	47.0	46.9	47.0	47.0	47.0	11	1932.001
1936.652	0	968326	wait	20	4	0	4	0	5.0	0.0	5.0	0.0						1989.6812848998236	1996.411465500016	1996.411465500016	3.0	['3', 'return']	[2.5056413002312183, 3.322374800220132]	6.72	5.99	1.0	20hz	low_pain	45.0			sub-023	250	23	45	47	COM11	COM15	COM3	2024-03-08_14h42.20.666	001-EEG_SVR_Officel	2022.2.5	144.04551795218583		11.201999999999998	2_sub-023_SVR_EEG_block5-6.protocol.csv	step13	1801	178.962	STIMULATE	44.9	44.9	44.9	44.9	45.2	13	1955.953
1943.368	0	971684	20hz	6	4	0	4	0	5.0	0.0	5.0	0.0						1989.6812848998236	1996.411465500016	1996.411465500016	3.0	['3', 'return']	[2.5056413002312183, 3.322374800220132]	6.72	5.99	1.0	20hz	low_pain	45.0			sub-023	250	23	45	47	COM11	COM15	COM3	2024-03-08_14h42.20.666	001-EEG_SVR_Officel	2022.2.5	144.04551795218583		6.7159999999998945	2_sub-023_SVR_EEG_block5-6.protocol.csv	step13	1801	178.962	STIMULATE	44.9	44.9	44.9	44.9	45.2	13	1955.953
1950.11	0	975055	20/Lo	5	4	0	4	0	5.0	0.0	5.0	0.0						1989.6812848998236	1996.411465500016	1996.411465500016	3.0	['3', 'return']	[2.5056413002312183, 3.322374800220132]	6.72	5.99	1.0	20hz	low_pain	45.0			sub-023	250	23	45	47	COM11	COM15	COM3	2024-03-08_14h42.20.666	001-EEG_SVR_Officel	2022.2.5	144.04551795218583		5.991999999999962	2_sub-023_SVR_EEG_block5-6.protocol.csv	step13	1801	178.962	STIMULATE	44.9	44.9	44.9	44.9	45.2	13	1955.953
1959.73	0	979865	wait	20	4	0	4	0	6.0	0.0	6.0	0.0						2012.7604498998264	2018.8582961997015	2018.8582961997015	8.5	['8', 'a', '5', 'return']	[2.5866971001960337, 3.226909500081092, 3.756210300140083, 4.786659500095993]	6.09	5.84	2.0	40hz	high_pain	47.0			sub-023	250	23	45	47	COM11	COM15	COM3	2024-03-08_14h42.20.666	001-EEG_SVR_Officel	2022.2.5	144.04551795218583		10.370000000000118	2_sub-023_SVR_EEG_block5-6.protocol.csv	step15	2026	201.209	STIMULATE	47.0	47.0	47.0	47.0	47.1	15	1978.2
1965.816	0	982908	40hz	9	4	0	4	0	6.0	0.0	6.0	0.0						2012.7604498998264	2018.8582961997015	2018.8582961997015	8.5	['8', 'a', '5', 'return']	[2.5866971001960337, 3.226909500081092, 3.756210300140083, 4.786659500095993]	6.09	5.84	2.0	40hz	high_pain	47.0			sub-023	250	23	45	47	COM11	COM15	COM3	2024-03-08_14h42.20.666	001-EEG_SVR_Officel	2022.2.5	144.04551795218583		6.086000000000013	2_sub-023_SVR_EEG_block5-6.protocol.csv	step15	2026	201.209	STIMULATE	47.0	47.0	47.0	47.0	47.1	15	1978.2
1972.406	0	986203	40/Hi	7	4	0	4	0	6.0	0.0	6.0	0.0						2012.7604498998264	2018.8582961997015	2018.8582961997015	8.5	['8', 'a', '5', 'return']	[2.5866971001960337, 3.226909500081092, 3.756210300140083, 4.786659500095993]	6.09	5.84	2.0	40hz	high_pain	47.0			sub-023	250	23	45	47	COM11	COM15	COM3	2024-03-08_14h42.20.666	001-EEG_SVR_Officel	2022.2.5	144.04551795218583		5.839999999999918	2_sub-023_SVR_EEG_block5-6.protocol.csv	step15	2026	201.209	STIMULATE	47.0	47.0	47.0	47.0	47.1	15	1978.2
