onset	duration	sample	trial_type	value	block.thisRepN	block.thisTrialN	block.thisN	block.thisIndex	reps.thisRepN	reps.thisTrialN	reps.thisN	reps.thisIndex	afrec_start	rec_start	rec_start_egi	key_resp.keys	key_resp.rt	wait_time_text.started	wait_time_text.stopped	therm_loca_text.started	subResponse	keyResp.keys	keyResp.rt	ITI_wait	wait_trigger	loca_thermode	Hz_condition	temp_condition	temp_valeur	text.started	text.stopped	participant	brightness	num_part	low	high	com_svr	com_thermode	com_eeg	date	expName	psychopyVersion	frameRate	Unnamed: 39	distance_from_previous	file	step	index	time	type	temp1	temp2	temp3	temp4	temp5	step_num	time_sync
28.01	0	14005	wait	20	0	0	0	0	0.0	0.0	0.0	0.0	29.29404190008063	29.082779600052163	1714586941.155564	p	27.77091650001239	57.09232940000948	64.68476329999976	64.68476329999976	7.0	['7', 'return']	[4.130809800000861, 5.259417199995369]	7.58	5.61	0.0	20hz	high_pain	43.7			sub-033	250	33	41.3	43.7	COM11	COM15	COM3	2024-05-01_14h08.55.599	001-EEG_SVR_Officel	2022.2.5	143.72338423435298		28.01	0_sub-pilot033_SVR_EEG_block1-2 (1).protocol.csv	step3	443	44.117	STIMULATE	43.7	43.6	43.6	43.7	43.8	3	47.699999999999996
35.592	0	17796	20hz	6	0	0	0	0	0.0	0.0	0.0	0.0	29.29404190008063	29.082779600052163	1714586941.155564	p	27.77091650001239	57.09232940000948	64.68476329999976	64.68476329999976	7.0	['7', 'return']	[4.130809800000861, 5.259417199995369]	7.58	5.61	0.0	20hz	high_pain	43.7			sub-033	250	33	41.3	43.7	COM11	COM15	COM3	2024-05-01_14h08.55.599	001-EEG_SVR_Officel	2022.2.5	143.72338423435298		7.581999999999997	0_sub-pilot033_SVR_EEG_block1-2 (1).protocol.csv	step3	443	44.117	STIMULATE	43.7	43.6	43.6	43.7	43.8	3	47.699999999999996
41.952	0	20976	20/Hi	4	0	0	0	0	0.0	0.0	0.0	0.0	29.29404190008063	29.082779600052163	1714586941.155564	p	27.77091650001239	57.09232940000948	64.68476329999976	64.68476329999976	7.0	['7', 'return']	[4.130809800000861, 5.259417199995369]	7.58	5.61	0.0	20hz	high_pain	43.7			sub-033	250	33	41.3	43.7	COM11	COM15	COM3	2024-05-01_14h08.55.599	001-EEG_SVR_Officel	2022.2.5	143.72338423435298		5.609999999999999	0_sub-pilot033_SVR_EEG_block1-2 (1).protocol.csv	step3	443	44.117	STIMULATE	43.7	43.6	43.6	43.7	43.8	3	47.699999999999996
53.89	0	26945	wait	20	0	0	0	0	1.0	0.0	1.0	0.0						82.97140799998306	90.31946999998765	90.31946999998765	4.0	['4', 'return']	[4.448296700022183, 5.120911899954081]	7.34	5.48	1.0	controle	low_pain	41.3			sub-033	250	33	41.3	43.7	COM11	COM15	COM3	2024-05-01_14h08.55.599	001-EEG_SVR_Officel	2022.2.5	143.72338423435298		12.688000000000002	0_sub-pilot033_SVR_EEG_block1-2 (1).protocol.csv	step5	701	69.765	STIMULATE	41.2	41.1	41.1	41.1	41.3	5	73.348
61.226	0	30613	CNhz	12	0	0	0	0	1.0	0.0	1.0	0.0						82.97140799998306	90.31946999998765	90.31946999998765	4.0	['4', 'return']	[4.448296700022183, 5.120911899954081]	7.34	5.48	1.0	controle	low_pain	41.3			sub-033	250	33	41.3	43.7	COM11	COM15	COM3	2024-05-01_14h08.55.599	001-EEG_SVR_Officel	2022.2.5	143.72338423435298		7.3359999999999985	0_sub-pilot033_SVR_EEG_block1-2 (1).protocol.csv	step5	701	69.765	STIMULATE	41.2	41.1	41.1	41.1	41.3	5	73.348
67.454	0	33727	CN/Lo	11	0	0	0	0	1.0	0.0	1.0	0.0						82.97140799998306	90.31946999998765	90.31946999998765	4.0	['4', 'return']	[4.448296700022183, 5.120911899954081]	7.34	5.48	1.0	controle	low_pain	41.3			sub-033	250	33	41.3	43.7	COM11	COM15	COM3	2024-05-01_14h08.55.599	001-EEG_SVR_Officel	2022.2.5	143.72338423435298		5.477999999999994	0_sub-pilot033_SVR_EEG_block1-2 (1).protocol.csv	step5	701	69.765	STIMULATE	41.2	41.1	41.1	41.1	41.3	5	73.348
79.38	0	39690	wait	20	0	0	0	0	2.0	0.0	2.0	0.0						108.4601471000351	113.89147550007328	113.89147550007328	7.5	['7', 'a', '5', 'return']	[2.7485248000593856, 3.0674955000868067, 3.308391600032337, 4.325312600005418]	5.42	6.15	2.0	20hz	high_pain	43.7			sub-033	250	33	41.3	43.7	COM11	COM15	COM3	2024-05-01_14h08.55.599	001-EEG_SVR_Officel	2022.2.5	143.72338423435298		12.676000000000002	0_sub-pilot033_SVR_EEG_block1-2 (1).protocol.csv	step7	945	93.927	STIMULATE	43.6	43.6	43.6	43.6	43.7	7	97.51
84.798	0	42399	20hz	6	0	0	0	0	2.0	0.0	2.0	0.0						108.4601471000351	113.89147550007328	113.89147550007328	7.5	['7', 'a', '5', 'return']	[2.7485248000593856, 3.0674955000868067, 3.308391600032337, 4.325312600005418]	5.42	6.15	2.0	20hz	high_pain	43.7			sub-033	250	33	41.3	43.7	COM11	COM15	COM3	2024-05-01_14h08.55.599	001-EEG_SVR_Officel	2022.2.5	143.72338423435298		5.418000000000006	0_sub-pilot033_SVR_EEG_block1-2 (1).protocol.csv	step7	945	93.927	STIMULATE	43.6	43.6	43.6	43.6	43.7	7	97.51
91.7	0	45850	20/Hi	4	0	0	0	0	2.0	0.0	2.0	0.0						108.4601471000351	113.89147550007328	113.89147550007328	7.5	['7', 'a', '5', 'return']	[2.7485248000593856, 3.0674955000868067, 3.308391600032337, 4.325312600005418]	5.42	6.15	2.0	20hz	high_pain	43.7			sub-033	250	33	41.3	43.7	COM11	COM15	COM3	2024-05-01_14h08.55.599	001-EEG_SVR_Officel	2022.2.5	143.72338423435298		6.152000000000001	0_sub-pilot033_SVR_EEG_block1-2 (1).protocol.csv	step7	945	93.927	STIMULATE	43.6	43.6	43.6	43.6	43.7	7	97.51
102.152	0	51076	wait	20	0	0	0	0	3.0	0.0	3.0	0.0						131.23366180004086	138.75578920007683	138.75578920007683	8.0	['8', 'return']	[7.884006800013594, 8.572395099909045]	7.51	5.82	3.0	40hz	high_pain	43.7			sub-033	250	33	41.3	43.7	COM11	COM15	COM3	2024-05-01_14h08.55.599	001-EEG_SVR_Officel	2022.2.5	143.72338423435298		11.201999999999998	0_sub-pilot033_SVR_EEG_block1-2 (1).protocol.csv	step9	1192	118.423	STIMULATE	43.6	43.6	43.6	43.6	43.6	9	122.006
109.662	0	54831	40hz	9	0	0	0	0	3.0	0.0	3.0	0.0						131.23366180004086	138.75578920007683	138.75578920007683	8.0	['8', 'return']	[7.884006800013594, 8.572395099909045]	7.51	5.82	3.0	40hz	high_pain	43.7			sub-033	250	33	41.3	43.7	COM11	COM15	COM3	2024-05-01_14h08.55.599	001-EEG_SVR_Officel	2022.2.5	143.72338423435298		7.510000000000005	0_sub-pilot033_SVR_EEG_block1-2 (1).protocol.csv	step9	1192	118.423	STIMULATE	43.6	43.6	43.6	43.6	43.6	9	122.006
116.23	0	58115	40/Hi	7	0	0	0	0	3.0	0.0	3.0	0.0						131.23366180004086	138.75578920007683	138.75578920007683	8.0	['8', 'return']	[7.884006800013594, 8.572395099909045]	7.51	5.82	3.0	40hz	high_pain	43.7			sub-033	250	33	41.3	43.7	COM11	COM15	COM3	2024-05-01_14h08.55.599	001-EEG_SVR_Officel	2022.2.5	143.72338423435298		5.817999999999998	0_sub-pilot033_SVR_EEG_block1-2 (1).protocol.csv	step9	1192	118.423	STIMULATE	43.6	43.6	43.6	43.6	43.6	9	122.006
131.26	0	65630	wait	20	0	0	0	0	4.0	0.0	4.0	0.0						160.3413731000619	167.1264243000187	167.1264243000187	3.0	['3', 'return']	[4.0910157999023795, 4.67447029997129]	6.78	6.26	0.0	40hz	low_pain	41.3			sub-033	250	33	41.3	43.7	COM11	COM15	COM3	2024-05-01_14h08.55.599	001-EEG_SVR_Officel	2022.2.5	143.72338423435298		15.779999999999987	0_sub-pilot033_SVR_EEG_block1-2 (1).protocol.csv	step11	1483	147.325	STIMULATE	41.2	41.1	41.1	41.1	41.3	11	150.908
138.036	0	69018	40hz	9	0	0	0	0	4.0	0.0	4.0	0.0						160.3413731000619	167.1264243000187	167.1264243000187	3.0	['3', 'return']	[4.0910157999023795, 4.67447029997129]	6.78	6.26	0.0	40hz	low_pain	41.3			sub-033	250	33	41.3	43.7	COM11	COM15	COM3	2024-05-01_14h08.55.599	001-EEG_SVR_Officel	2022.2.5	143.72338423435298		6.7760000000000105	0_sub-pilot033_SVR_EEG_block1-2 (1).protocol.csv	step11	1483	147.325	STIMULATE	41.2	41.1	41.1	41.1	41.3	11	150.908
145.046	0	72523	40/Lo	8	0	0	0	0	4.0	0.0	4.0	0.0						160.3413731000619	167.1264243000187	167.1264243000187	3.0	['3', 'return']	[4.0910157999023795, 4.67447029997129]	6.78	6.26	0.0	40hz	low_pain	41.3			sub-033	250	33	41.3	43.7	COM11	COM15	COM3	2024-05-01_14h08.55.599	001-EEG_SVR_Officel	2022.2.5	143.72338423435298		6.259999999999991	0_sub-pilot033_SVR_EEG_block1-2 (1).protocol.csv	step11	1483	147.325	STIMULATE	41.2	41.1	41.1	41.1	41.3	11	150.908
155.742	0	77871	wait	20	0	0	0	0	5.0	0.0	5.0	0.0						184.82411050004885	192.05388500005935	192.05388500005935	3.0	['3', 'return']	[3.2655954000074416, 3.786235300009139]	7.22	5.69	1.0	10hz	low_pain	41.3			sub-033	250	33	41.3	43.7	COM11	COM15	COM3	2024-05-01_14h08.55.599	001-EEG_SVR_Officel	2022.2.5	143.72338423435298		11.445999999999998	0_sub-pilot033_SVR_EEG_block1-2 (1).protocol.csv	step13	1728	171.657	STIMULATE	41.2	41.1	41.1	41.1	41.3	13	175.24
162.96	0	81480	10hz	3	0	0	0	0	5.0	0.0	5.0	0.0						184.82411050004885	192.05388500005935	192.05388500005935	3.0	['3', 'return']	[3.2655954000074416, 3.786235300009139]	7.22	5.69	1.0	10hz	low_pain	41.3			sub-033	250	33	41.3	43.7	COM11	COM15	COM3	2024-05-01_14h08.55.599	001-EEG_SVR_Officel	2022.2.5	143.72338423435298		7.218000000000018	0_sub-pilot033_SVR_EEG_block1-2 (1).protocol.csv	step13	1728	171.657	STIMULATE	41.2	41.1	41.1	41.1	41.3	13	175.24
169.404	0	84702	10/Lo	2	0	0	0	0	5.0	0.0	5.0	0.0						184.82411050004885	192.05388500005935	192.05388500005935	3.0	['3', 'return']	[3.2655954000074416, 3.786235300009139]	7.22	5.69	1.0	10hz	low_pain	41.3			sub-033	250	33	41.3	43.7	COM11	COM15	COM3	2024-05-01_14h08.55.599	001-EEG_SVR_Officel	2022.2.5	143.72338423435298		5.693999999999988	0_sub-pilot033_SVR_EEG_block1-2 (1).protocol.csv	step13	1728	171.657	STIMULATE	41.2	41.1	41.1	41.1	41.3	13	175.24
179.778	0	89889	wait	20	0	0	0	0	6.0	0.0	6.0	0.0						208.86179380002432	216.5496660000645	216.5496660000645	4.5	['4', 'a', '5', 'return']	[3.402433199924417, 3.979114399990067, 4.18702149996534, 5.162626400007866]	7.68	5.59	2.0	20hz	low_pain	41.3			sub-033	250	33	41.3	43.7	COM11	COM15	COM3	2024-05-01_14h08.55.599	001-EEG_SVR_Officel	2022.2.5	143.72338423435298		11.123999999999995	0_sub-pilot033_SVR_EEG_block1-2 (1).protocol.csv	step15	1975	196.117	STIMULATE	41.2	41.1	41.1	41.1	41.2	15	199.7
187.456	0	93728	20hz	6	0	0	0	0	6.0	0.0	6.0	0.0						208.86179380002432	216.5496660000645	216.5496660000645	4.5	['4', 'a', '5', 'return']	[3.402433199924417, 3.979114399990067, 4.18702149996534, 5.162626400007866]	7.68	5.59	2.0	20hz	low_pain	41.3			sub-033	250	33	41.3	43.7	COM11	COM15	COM3	2024-05-01_14h08.55.599	001-EEG_SVR_Officel	2022.2.5	143.72338423435298		7.677999999999997	0_sub-pilot033_SVR_EEG_block1-2 (1).protocol.csv	step15	1975	196.117	STIMULATE	41.2	41.1	41.1	41.1	41.2	15	199.7
193.794	0	96897	20/Lo	5	0	0	0	0	6.0	0.0	6.0	0.0						208.86179380002432	216.5496660000645	216.5496660000645	4.5	['4', 'a', '5', 'return']	[3.402433199924417, 3.979114399990067, 4.18702149996534, 5.162626400007866]	7.68	5.59	2.0	20hz	low_pain	41.3			sub-033	250	33	41.3	43.7	COM11	COM15	COM3	2024-05-01_14h08.55.599	001-EEG_SVR_Officel	2022.2.5	143.72338423435298		5.588000000000022	0_sub-pilot033_SVR_EEG_block1-2 (1).protocol.csv	step15	1975	196.117	STIMULATE	41.2	41.1	41.1	41.1	41.2	15	199.7
205.65	0	102825	wait	20	0	0	0	0	7.0	0.0	7.0	0.0						234.7322732000612	241.99028550006915	241.99028550006915	7.0	['7', 'return']	[2.930345300002955, 3.418346600024961]	7.25	5.65	3.0	20hz	high_pain	43.7			sub-033	250	33	41.3	43.7	COM11	COM15	COM3	2024-05-01_14h08.55.599	001-EEG_SVR_Officel	2022.2.5	143.72338423435298		12.605999999999995	0_sub-pilot033_SVR_EEG_block1-2 (1).protocol.csv	step17	2232	221.626	STIMULATE	43.6	43.6	43.6	43.6	43.6	17	225.209
212.896	0	106448	20hz	6	0	0	0	0	7.0	0.0	7.0	0.0						234.7322732000612	241.99028550006915	241.99028550006915	7.0	['7', 'return']	[2.930345300002955, 3.418346600024961]	7.25	5.65	3.0	20hz	high_pain	43.7			sub-033	250	33	41.3	43.7	COM11	COM15	COM3	2024-05-01_14h08.55.599	001-EEG_SVR_Officel	2022.2.5	143.72338423435298		7.245999999999981	0_sub-pilot033_SVR_EEG_block1-2 (1).protocol.csv	step17	2232	221.626	STIMULATE	43.6	43.6	43.6	43.6	43.6	17	225.209
219.296	0	109648	20/Hi	4	0	0	0	0	7.0	0.0	7.0	0.0						234.7322732000612	241.99028550006915	241.99028550006915	7.0	['7', 'return']	[2.930345300002955, 3.418346600024961]	7.25	5.65	3.0	20hz	high_pain	43.7			sub-033	250	33	41.3	43.7	COM11	COM15	COM3	2024-05-01_14h08.55.599	001-EEG_SVR_Officel	2022.2.5	143.72338423435298		5.650000000000006	0_sub-pilot033_SVR_EEG_block1-2 (1).protocol.csv	step17	2232	221.626	STIMULATE	43.6	43.6	43.6	43.6	43.6	17	225.209
229.346	0	114673	wait	20	0	0	0	0	8.0	0.0	8.0	0.0						258.4296014000429	263.5621459000977	263.5621459000977	5.0	['5', 'return']	[3.7230411999626085, 4.2758801999734715]	5.12	5.84	0.0	controle	high_pain	43.7			sub-033	250	33	41.3	43.7	COM11	COM15	COM3	2024-05-01_14h08.55.599	001-EEG_SVR_Officel	2022.2.5	143.72338423435298		10.800000000000011	0_sub-pilot033_SVR_EEG_block1-2 (1).protocol.csv	step19	2450	243.213	STIMULATE	43.7	43.6	43.6	43.6	43.8	19	246.796
234.468	0	117234	CNhz	12	0	0	0	0	8.0	0.0	8.0	0.0						258.4296014000429	263.5621459000977	263.5621459000977	5.0	['5', 'return']	[3.7230411999626085, 4.2758801999734715]	5.12	5.84	0.0	controle	high_pain	43.7			sub-033	250	33	41.3	43.7	COM11	COM15	COM3	2024-05-01_14h08.55.599	001-EEG_SVR_Officel	2022.2.5	143.72338423435298		5.121999999999986	0_sub-pilot033_SVR_EEG_block1-2 (1).protocol.csv	step19	2450	243.213	STIMULATE	43.7	43.6	43.6	43.6	43.8	19	246.796
241.058	0	120529	CN/Hi	10	0	0	0	0	8.0	0.0	8.0	0.0						258.4296014000429	263.5621459000977	263.5621459000977	5.0	['5', 'return']	[3.7230411999626085, 4.2758801999734715]	5.12	5.84	0.0	controle	high_pain	43.7			sub-033	250	33	41.3	43.7	COM11	COM15	COM3	2024-05-01_14h08.55.599	001-EEG_SVR_Officel	2022.2.5	143.72338423435298		5.840000000000003	0_sub-pilot033_SVR_EEG_block1-2 (1).protocol.csv	step19	2450	243.213	STIMULATE	43.7	43.6	43.6	43.6	43.8	19	246.796
251.78	0	125890	wait	20	0	0	0	0	9.0	0.0	9.0	0.0						280.86274690006394	288.0789190999931	288.0789190999931	7.0	['7', 'return']	[3.066015199990943, 3.466110899928026]	7.21	5.78	1.0	40hz	high_pain	43.7			sub-033	250	33	41.3	43.7	COM11	COM15	COM3	2024-05-01_14h08.55.599	001-EEG_SVR_Officel	2022.2.5	143.72338423435298		11.472000000000008	0_sub-pilot033_SVR_EEG_block1-2 (1).protocol.csv	step21	2698	267.825	STIMULATE	43.7	43.6	43.6	43.6	43.7	21	271.408
258.984	0	129491	40hz	9	0	0	0	0	9.0	0.0	9.0	0.0						280.86274690006394	288.0789190999931	288.0789190999931	7.0	['7', 'return']	[3.066015199990943, 3.466110899928026]	7.21	5.78	1.0	40hz	high_pain	43.7			sub-033	250	33	41.3	43.7	COM11	COM15	COM3	2024-05-01_14h08.55.599	001-EEG_SVR_Officel	2022.2.5	143.72338423435298		7.203999999999979	0_sub-pilot033_SVR_EEG_block1-2 (1).protocol.csv	step21	2698	267.825	STIMULATE	43.7	43.6	43.6	43.6	43.7	21	271.408
265.518	0	132759	40/Hi	7	0	0	0	0	9.0	0.0	9.0	0.0						280.86274690006394	288.0789190999931	288.0789190999931	7.0	['7', 'return']	[3.066015199990943, 3.466110899928026]	7.21	5.78	1.0	40hz	high_pain	43.7			sub-033	250	33	41.3	43.7	COM11	COM15	COM3	2024-05-01_14h08.55.599	001-EEG_SVR_Officel	2022.2.5	143.72338423435298		5.783999999999992	0_sub-pilot033_SVR_EEG_block1-2 (1).protocol.csv	step21	2698	267.825	STIMULATE	43.7	43.6	43.6	43.6	43.7	21	271.408
275.478	0	137739	wait	20	0	0	0	0	10.0	0.0	10.0	0.0						304.56068590004	310.17913160007447	310.17913160007447	6.0	['6', 'return']	[3.004043500055559, 3.5645750000840053]	5.61	6.42	2.0	10hz	low_pain	41.3			sub-033	250	33	41.3	43.7	COM11	COM15	COM3	2024-05-01_14h08.55.599	001-EEG_SVR_Officel	2022.2.5	143.72338423435298		10.710000000000036	0_sub-pilot033_SVR_EEG_block1-2 (1).protocol.csv	step23	2927	290.578	STIMULATE	41.1	41.1	41.1	41.1	41.3	23	294.16099999999994
281.084	0	140542	10hz	3	0	0	0	0	10.0	0.0	10.0	0.0						304.56068590004	310.17913160007447	310.17913160007447	6.0	['6', 'return']	[3.004043500055559, 3.5645750000840053]	5.61	6.42	2.0	10hz	low_pain	41.3			sub-033	250	33	41.3	43.7	COM11	COM15	COM3	2024-05-01_14h08.55.599	001-EEG_SVR_Officel	2022.2.5	143.72338423435298		5.6059999999999945	0_sub-pilot033_SVR_EEG_block1-2 (1).protocol.csv	step23	2927	290.578	STIMULATE	41.1	41.1	41.1	41.1	41.3	23	294.16099999999994
288.256	0	144128	10/Lo	2	0	0	0	0	10.0	0.0	10.0	0.0						304.56068590004	310.17913160007447	310.17913160007447	6.0	['6', 'return']	[3.004043500055559, 3.5645750000840053]	5.61	6.42	2.0	10hz	low_pain	41.3			sub-033	250	33	41.3	43.7	COM11	COM15	COM3	2024-05-01_14h08.55.599	001-EEG_SVR_Officel	2022.2.5	143.72338423435298		6.421999999999969	0_sub-pilot033_SVR_EEG_block1-2 (1).protocol.csv	step23	2927	290.578	STIMULATE	41.1	41.1	41.1	41.1	41.3	23	294.16099999999994
297.68	0	148840	wait	20	0	0	0	0	11.0	0.0	11.0	0.0						326.76432680001017	332.9037127000047	332.9037127000047	6.5	['6', 'a', '5', 'return']	[2.7513621000107378, 2.9522234000032768, 3.167544399970211, 3.896224800031632]	6.12	5.46	3.0	10hz	high_pain	43.7			sub-033	250	33	41.3	43.7	COM11	COM15	COM3	2024-05-01_14h08.55.599	001-EEG_SVR_Officel	2022.2.5	143.72338423435298		10.174000000000035	0_sub-pilot033_SVR_EEG_block1-2 (1).protocol.csv	step25	3147	312.317	STIMULATE	43.6	43.6	43.6	43.6	43.6	25	315.9
303.81	0	151905	10hz	3	0	0	0	0	11.0	0.0	11.0	0.0						326.76432680001017	332.9037127000047	332.9037127000047	6.5	['6', 'a', '5', 'return']	[2.7513621000107378, 2.9522234000032768, 3.167544399970211, 3.896224800031632]	6.12	5.46	3.0	10hz	high_pain	43.7			sub-033	250	33	41.3	43.7	COM11	COM15	COM3	2024-05-01_14h08.55.599	001-EEG_SVR_Officel	2022.2.5	143.72338423435298		6.1299999999999955	0_sub-pilot033_SVR_EEG_block1-2 (1).protocol.csv	step25	3147	312.317	STIMULATE	43.6	43.6	43.6	43.6	43.6	25	315.9
310.024	0	155012	10/Hi	1	0	0	0	0	11.0	0.0	11.0	0.0						326.76432680001017	332.9037127000047	332.9037127000047	6.5	['6', 'a', '5', 'return']	[2.7513621000107378, 2.9522234000032768, 3.167544399970211, 3.896224800031632]	6.12	5.46	3.0	10hz	high_pain	43.7			sub-033	250	33	41.3	43.7	COM11	COM15	COM3	2024-05-01_14h08.55.599	001-EEG_SVR_Officel	2022.2.5	143.72338423435298		5.463999999999999	0_sub-pilot033_SVR_EEG_block1-2 (1).protocol.csv	step25	3147	312.317	STIMULATE	43.6	43.6	43.6	43.6	43.6	25	315.9
320.734	0	160367	wait	20	0	0	0	0	12.0	0.0	12.0	0.0						349.81584420008585	355.045188600081	355.045188600081	2.0	['2', 'return']	[3.384345499915071, 4.144593899953179]	5.22	5.23	0.0	20hz	low_pain	41.3			sub-033	250	33	41.3	43.7	COM11	COM15	COM3	2024-05-01_14h08.55.599	001-EEG_SVR_Officel	2022.2.5	143.72338423435298		11.45999999999998	0_sub-pilot033_SVR_EEG_block1-2 (1).protocol.csv	step27	3367	334.116	STIMULATE	41.2	41.1	41.1	41.1	41.3	27	337.69899999999996
325.954	0	162977	20hz	6	0	0	0	0	12.0	0.0	12.0	0.0						349.81584420008585	355.045188600081	355.045188600081	2.0	['2', 'return']	[3.384345499915071, 4.144593899953179]	5.22	5.23	0.0	20hz	low_pain	41.3			sub-033	250	33	41.3	43.7	COM11	COM15	COM3	2024-05-01_14h08.55.599	001-EEG_SVR_Officel	2022.2.5	143.72338423435298		5.220000000000027	0_sub-pilot033_SVR_EEG_block1-2 (1).protocol.csv	step27	3367	334.116	STIMULATE	41.2	41.1	41.1	41.1	41.3	27	337.69899999999996
331.936	0	165968	20/Lo	5	0	0	0	0	12.0	0.0	12.0	0.0						349.81584420008585	355.045188600081	355.045188600081	2.0	['2', 'return']	[3.384345499915071, 4.144593899953179]	5.22	5.23	0.0	20hz	low_pain	41.3			sub-033	250	33	41.3	43.7	COM11	COM15	COM3	2024-05-01_14h08.55.599	001-EEG_SVR_Officel	2022.2.5	143.72338423435298		5.231999999999971	0_sub-pilot033_SVR_EEG_block1-2 (1).protocol.csv	step27	3367	334.116	STIMULATE	41.2	41.1	41.1	41.1	41.3	27	337.69899999999996
343.132	0	171566	wait	20	0	0	0	0	13.0	0.0	13.0	0.0						372.2134619000135	380.1039274000796	380.1039274000796	4.0	['4', 'return']	[3.0239462999161333, 3.784332299954258]	7.88	5.05	1.0	20hz	low_pain	41.3			sub-033	250	33	41.3	43.7	COM11	COM15	COM3	2024-05-01_14h08.55.599	001-EEG_SVR_Officel	2022.2.5	143.72338423435298		11.946000000000026	0_sub-pilot033_SVR_EEG_block1-2 (1).protocol.csv	step29	3618	359.041	STIMULATE	41.2	41.1	41.1	41.1	41.3	29	362.624
351.008	0	175504	20hz	6	0	0	0	0	13.0	0.0	13.0	0.0						372.2134619000135	380.1039274000796	380.1039274000796	4.0	['4', 'return']	[3.0239462999161333, 3.784332299954258]	7.88	5.05	1.0	20hz	low_pain	41.3			sub-033	250	33	41.3	43.7	COM11	COM15	COM3	2024-05-01_14h08.55.599	001-EEG_SVR_Officel	2022.2.5	143.72338423435298		7.875999999999976	0_sub-pilot033_SVR_EEG_block1-2 (1).protocol.csv	step29	3618	359.041	STIMULATE	41.2	41.1	41.1	41.1	41.3	29	362.624
356.814	0	178407	20/Lo	5	0	0	0	0	13.0	0.0	13.0	0.0						372.2134619000135	380.1039274000796	380.1039274000796	4.0	['4', 'return']	[3.0239462999161333, 3.784332299954258]	7.88	5.05	1.0	20hz	low_pain	41.3			sub-033	250	33	41.3	43.7	COM11	COM15	COM3	2024-05-01_14h08.55.599	001-EEG_SVR_Officel	2022.2.5	143.72338423435298		5.05600000000004	0_sub-pilot033_SVR_EEG_block1-2 (1).protocol.csv	step29	3618	359.041	STIMULATE	41.2	41.1	41.1	41.1	41.3	29	362.624
367.822	0	183911	wait	20	0	0	0	0	14.0	0.0	14.0	0.0						396.9045080000069	404.2117440000875	404.2117440000875	7.0	['7', 'return']	[3.653182699927129, 4.1411250999663025]	7.3	5.77	2.0	controle	high_pain	43.7			sub-033	250	33	41.3	43.7	COM11	COM15	COM3	2024-05-01_14h08.55.599	001-EEG_SVR_Officel	2022.2.5	143.72338423435298		11.757999999999981	0_sub-pilot033_SVR_EEG_block1-2 (1).protocol.csv	step31	3869	383.939	STIMULATE	43.6	43.6	43.6	43.6	43.7	31	387.52200000000005
375.116	0	187558	CNhz	12	0	0	0	0	14.0	0.0	14.0	0.0						396.9045080000069	404.2117440000875	404.2117440000875	7.0	['7', 'return']	[3.653182699927129, 4.1411250999663025]	7.3	5.77	2.0	controle	high_pain	43.7			sub-033	250	33	41.3	43.7	COM11	COM15	COM3	2024-05-01_14h08.55.599	001-EEG_SVR_Officel	2022.2.5	143.72338423435298		7.293999999999983	0_sub-pilot033_SVR_EEG_block1-2 (1).protocol.csv	step31	3869	383.939	STIMULATE	43.6	43.6	43.6	43.6	43.7	31	387.52200000000005
381.636	0	190818	CN/Hi	10	0	0	0	0	14.0	0.0	14.0	0.0						396.9045080000069	404.2117440000875	404.2117440000875	7.0	['7', 'return']	[3.653182699927129, 4.1411250999663025]	7.3	5.77	2.0	controle	high_pain	43.7			sub-033	250	33	41.3	43.7	COM11	COM15	COM3	2024-05-01_14h08.55.599	001-EEG_SVR_Officel	2022.2.5	143.72338423435298		5.770000000000039	0_sub-pilot033_SVR_EEG_block1-2 (1).protocol.csv	step31	3869	383.939	STIMULATE	43.6	43.6	43.6	43.6	43.7	31	387.52200000000005
392.29	0	196145	wait	20	0	0	0	0	15.0	0.0	15.0	0.0						421.3726045000367	427.3736359000905	427.3736359000905	3.0	['3', 'return']	[2.8026212999830022, 3.554960499983281]	5.99	5.32	3.0	40hz	low_pain	41.3			sub-033	250	33	41.3	43.7	COM11	COM15	COM3	2024-05-01_14h08.55.599	001-EEG_SVR_Officel	2022.2.5	143.72338423435298		11.403999999999996	0_sub-pilot033_SVR_EEG_block1-2 (1).protocol.csv	step33	4098	406.676	STIMULATE	41.2	41.1	41.1	41.1	41.2	33	410.259
398.278	0	199139	40hz	9	0	0	0	0	15.0	0.0	15.0	0.0						421.3726045000367	427.3736359000905	427.3736359000905	3.0	['3', 'return']	[2.8026212999830022, 3.554960499983281]	5.99	5.32	3.0	40hz	low_pain	41.3			sub-033	250	33	41.3	43.7	COM11	COM15	COM3	2024-05-01_14h08.55.599	001-EEG_SVR_Officel	2022.2.5	143.72338423435298		5.9879999999999995	0_sub-pilot033_SVR_EEG_block1-2 (1).protocol.csv	step33	4098	406.676	STIMULATE	41.2	41.1	41.1	41.1	41.2	33	410.259
404.346	0	202173	40/Lo	8	0	0	0	0	15.0	0.0	15.0	0.0						421.3726045000367	427.3736359000905	427.3736359000905	3.0	['3', 'return']	[2.8026212999830022, 3.554960499983281]	5.99	5.32	3.0	40hz	low_pain	41.3			sub-033	250	33	41.3	43.7	COM11	COM15	COM3	2024-05-01_14h08.55.599	001-EEG_SVR_Officel	2022.2.5	143.72338423435298		5.317999999999984	0_sub-pilot033_SVR_EEG_block1-2 (1).protocol.csv	step33	4098	406.676	STIMULATE	41.2	41.1	41.1	41.1	41.2	33	410.259
476.48	0	238240	wait	20	1	0	1	0	0.0	0.0	0.0	0.0				p	0.392593799973838	505.56336480006576	512.4329084000783	512.4329084000783	5.5	['5', 'a', '5', 'return']	[2.024813299998641, 2.463405399932526, 2.623365700012073, 3.4312628000043333]	6.86	6.01	0.0	10hz	high_pain	43.7			sub-033	250	33	41.3	43.7	COM11	COM15	COM3	2024-05-01_14h08.55.599	001-EEG_SVR_Officel	2022.2.5	143.72338423435298		72.88400000000001	0_sub-pilot033_SVR_EEG_block1-2 (1).protocol.csv	step35	4957	492.402	STIMULATE	43.8	43.6	43.6	43.6	43.6	35	495.965
483.336	0	241668	10hz	3	1	0	1	0	0.0	0.0	0.0	0.0				p	0.392593799973838	505.56336480006576	512.4329084000783	512.4329084000783	5.5	['5', 'a', '5', 'return']	[2.024813299998641, 2.463405399932526, 2.623365700012073, 3.4312628000043333]	6.86	6.01	0.0	10hz	high_pain	43.7			sub-033	250	33	41.3	43.7	COM11	COM15	COM3	2024-05-01_14h08.55.599	001-EEG_SVR_Officel	2022.2.5	143.72338423435298		6.8559999999999945	0_sub-pilot033_SVR_EEG_block1-2 (1).protocol.csv	step35	4957	492.402	STIMULATE	43.8	43.6	43.6	43.6	43.6	35	495.965
490.098	0	245049	10/Hi	1	1	0	1	0	0.0	0.0	0.0	0.0				p	0.392593799973838	505.56336480006576	512.4329084000783	512.4329084000783	5.5	['5', 'a', '5', 'return']	[2.024813299998641, 2.463405399932526, 2.623365700012073, 3.4312628000043333]	6.86	6.01	0.0	10hz	high_pain	43.7			sub-033	250	33	41.3	43.7	COM11	COM15	COM3	2024-05-01_14h08.55.599	001-EEG_SVR_Officel	2022.2.5	143.72338423435298		6.0120000000000005	0_sub-pilot033_SVR_EEG_block1-2 (1).protocol.csv	step35	4957	492.402	STIMULATE	43.8	43.6	43.6	43.6	43.6	35	495.965
499.802	0	249901	wait	20	1	0	1	0	1.0	0.0	1.0	0.0						528.8854895000113	534.2542542000301	534.2542542000301	6.0	['6', 'return']	[2.1384078999981284, 2.7145000000018626]	5.36	5.69	1.0	controle	high_pain	43.7			sub-033	250	33	41.3	43.7	COM11	COM15	COM3	2024-05-01_14h08.55.599	001-EEG_SVR_Officel	2022.2.5	143.72338423435298		10.454000000000008	0_sub-pilot033_SVR_EEG_block1-2 (1).protocol.csv	step37	5174	513.858	STIMULATE	43.7	43.6	43.6	43.6	43.6	37	517.4209999999999
505.158	0	252579	CNhz	12	1	0	1	0	1.0	0.0	1.0	0.0						528.8854895000113	534.2542542000301	534.2542542000301	6.0	['6', 'return']	[2.1384078999981284, 2.7145000000018626]	5.36	5.69	1.0	controle	high_pain	43.7			sub-033	250	33	41.3	43.7	COM11	COM15	COM3	2024-05-01_14h08.55.599	001-EEG_SVR_Officel	2022.2.5	143.72338423435298		5.3559999999999945	0_sub-pilot033_SVR_EEG_block1-2 (1).protocol.csv	step37	5174	513.858	STIMULATE	43.7	43.6	43.6	43.6	43.6	37	517.4209999999999
511.602	0	255801	CN/Hi	10	1	0	1	0	1.0	0.0	1.0	0.0						528.8854895000113	534.2542542000301	534.2542542000301	6.0	['6', 'return']	[2.1384078999981284, 2.7145000000018626]	5.36	5.69	1.0	controle	high_pain	43.7			sub-033	250	33	41.3	43.7	COM11	COM15	COM3	2024-05-01_14h08.55.599	001-EEG_SVR_Officel	2022.2.5	143.72338423435298		5.69399999999996	0_sub-pilot033_SVR_EEG_block1-2 (1).protocol.csv	step37	5174	513.858	STIMULATE	43.7	43.6	43.6	43.6	43.6	37	517.4209999999999
520.902	0	260451	wait	20	1	0	1	0	2.0	0.0	2.0	0.0						549.9856548000826	557.5422790000448	557.5422790000448	6.0	['6', 'return']	[1.5941194000188261, 2.0097760000498965]	7.55	5.26	2.0	40hz	low_pain	41.3			sub-033	250	33	41.3	43.7	COM11	COM15	COM3	2024-05-01_14h08.55.599	001-EEG_SVR_Officel	2022.2.5	143.72338423435298		10.050000000000068	0_sub-pilot033_SVR_EEG_block1-2 (1).protocol.csv	step39	5406	536.838	STIMULATE	41.2	41.1	41.1	41.1	41.2	39	540.401
528.446	0	264223	40hz	9	1	0	1	0	2.0	0.0	2.0	0.0						549.9856548000826	557.5422790000448	557.5422790000448	6.0	['6', 'return']	[1.5941194000188261, 2.0097760000498965]	7.55	5.26	2.0	40hz	low_pain	41.3			sub-033	250	33	41.3	43.7	COM11	COM15	COM3	2024-05-01_14h08.55.599	001-EEG_SVR_Officel	2022.2.5	143.72338423435298		7.543999999999983	0_sub-pilot033_SVR_EEG_block1-2 (1).protocol.csv	step39	5406	536.838	STIMULATE	41.2	41.1	41.1	41.1	41.2	39	540.401
534.458	0	267229	40/Lo	8	1	0	1	0	2.0	0.0	2.0	0.0						549.9856548000826	557.5422790000448	557.5422790000448	6.0	['6', 'return']	[1.5941194000188261, 2.0097760000498965]	7.55	5.26	2.0	40hz	low_pain	41.3			sub-033	250	33	41.3	43.7	COM11	COM15	COM3	2024-05-01_14h08.55.599	001-EEG_SVR_Officel	2022.2.5	143.72338423435298		5.261999999999944	0_sub-pilot033_SVR_EEG_block1-2 (1).protocol.csv	step39	5406	536.838	STIMULATE	41.2	41.1	41.1	41.1	41.2	39	540.401
543.486	0	271743	wait	20	1	0	1	0	3.0	0.0	3.0	0.0						572.571283300058	580.5097103000153	580.5097103000153	7.5	['7', 'a', '5', 'return']	[1.866142800077796, 2.3951814000029117, 2.5617819000035524, 3.626187300076708]	7.93	5.49	3.0	controle	high_pain	43.7			sub-033	250	33	41.3	43.7	COM11	COM15	COM3	2024-05-01_14h08.55.599	001-EEG_SVR_Officel	2022.2.5	143.72338423435298		9.77800000000002	0_sub-pilot033_SVR_EEG_block1-2 (1).protocol.csv	step41	5639	560.002	STIMULATE	43.6	43.6	43.6	43.6	43.6	41	563.5649999999999
551.414	0	275707	CNhz	12	1	0	1	0	3.0	0.0	3.0	0.0						572.571283300058	580.5097103000153	580.5097103000153	7.5	['7', 'a', '5', 'return']	[1.866142800077796, 2.3951814000029117, 2.5617819000035524, 3.626187300076708]	7.93	5.49	3.0	controle	high_pain	43.7			sub-033	250	33	41.3	43.7	COM11	COM15	COM3	2024-05-01_14h08.55.599	001-EEG_SVR_Officel	2022.2.5	143.72338423435298		7.927999999999997	0_sub-pilot033_SVR_EEG_block1-2 (1).protocol.csv	step41	5639	560.002	STIMULATE	43.6	43.6	43.6	43.6	43.6	41	563.5649999999999
557.654	0	278827	CN/Hi	10	1	0	1	0	3.0	0.0	3.0	0.0						572.571283300058	580.5097103000153	580.5097103000153	7.5	['7', 'a', '5', 'return']	[1.866142800077796, 2.3951814000029117, 2.5617819000035524, 3.626187300076708]	7.93	5.49	3.0	controle	high_pain	43.7			sub-033	250	33	41.3	43.7	COM11	COM15	COM3	2024-05-01_14h08.55.599	001-EEG_SVR_Officel	2022.2.5	143.72338423435298		5.490000000000009	0_sub-pilot033_SVR_EEG_block1-2 (1).protocol.csv	step41	5639	560.002	STIMULATE	43.6	43.6	43.6	43.6	43.6	41	563.5649999999999
568.066	0	284033	wait	20	1	0	1	0	4.0	0.0	4.0	0.0						597.1505343000172	604.4569787000073	604.4569787000073	4.0	['4', 'return']	[2.9438212999375537, 3.5766363999573514]	7.3	5.59	0.0	10hz	low_pain	41.3			sub-033	250	33	41.3	43.7	COM11	COM15	COM3	2024-05-01_14h08.55.599	001-EEG_SVR_Officel	2022.2.5	143.72338423435298		11.162000000000035	0_sub-pilot033_SVR_EEG_block1-2 (1).protocol.csv	step43	5881	584.0	STIMULATE	41.2	41.1	41.1	41.1	41.2	43	587.563
575.362	0	287681	10hz	3	1	0	1	0	4.0	0.0	4.0	0.0						597.1505343000172	604.4569787000073	604.4569787000073	4.0	['4', 'return']	[2.9438212999375537, 3.5766363999573514]	7.3	5.59	0.0	10hz	low_pain	41.3			sub-033	250	33	41.3	43.7	COM11	COM15	COM3	2024-05-01_14h08.55.599	001-EEG_SVR_Officel	2022.2.5	143.72338423435298		7.295999999999935	0_sub-pilot033_SVR_EEG_block1-2 (1).protocol.csv	step43	5881	584.0	STIMULATE	41.2	41.1	41.1	41.1	41.2	43	587.563
581.7	0	290850	10/Lo	2	1	0	1	0	4.0	0.0	4.0	0.0						597.1505343000172	604.4569787000073	604.4569787000073	4.0	['4', 'return']	[2.9438212999375537, 3.5766363999573514]	7.3	5.59	0.0	10hz	low_pain	41.3			sub-033	250	33	41.3	43.7	COM11	COM15	COM3	2024-05-01_14h08.55.599	001-EEG_SVR_Officel	2022.2.5	143.72338423435298		5.588000000000079	0_sub-pilot033_SVR_EEG_block1-2 (1).protocol.csv	step43	5881	584.0	STIMULATE	41.2	41.1	41.1	41.1	41.2	43	587.563
591.966	0	295983	wait	20	1	0	1	0	5.0	0.0	5.0	0.0						621.0493686000118	627.1958516000304	627.1958516000304	6.0	['6', 'return']	[1.964524200069718, 2.5009130000835285]	6.14	6.11	1.0	10hz	high_pain	43.7			sub-033	250	33	41.3	43.7	COM11	COM15	COM3	2024-05-01_14h08.55.599	001-EEG_SVR_Officel	2022.2.5	143.72338423435298		11.015999999999963	0_sub-pilot033_SVR_EEG_block1-2 (1).protocol.csv	step45	6117	607.342	STIMULATE	43.8	43.6	43.6	43.6	43.6	45	610.905
598.1	0	299050	10hz	3	1	0	1	0	5.0	0.0	5.0	0.0						621.0493686000118	627.1958516000304	627.1958516000304	6.0	['6', 'return']	[1.964524200069718, 2.5009130000835285]	6.14	6.11	1.0	10hz	high_pain	43.7			sub-033	250	33	41.3	43.7	COM11	COM15	COM3	2024-05-01_14h08.55.599	001-EEG_SVR_Officel	2022.2.5	143.72338423435298		6.1340000000000146	0_sub-pilot033_SVR_EEG_block1-2 (1).protocol.csv	step45	6117	607.342	STIMULATE	43.8	43.6	43.6	43.6	43.6	45	610.905
604.958	0	302479	10/Hi	1	1	0	1	0	5.0	0.0	5.0	0.0						621.0493686000118	627.1958516000304	627.1958516000304	6.0	['6', 'return']	[1.964524200069718, 2.5009130000835285]	6.14	6.11	1.0	10hz	high_pain	43.7			sub-033	250	33	41.3	43.7	COM11	COM15	COM3	2024-05-01_14h08.55.599	001-EEG_SVR_Officel	2022.2.5	143.72338423435298		6.107999999999947	0_sub-pilot033_SVR_EEG_block1-2 (1).protocol.csv	step45	6117	607.342	STIMULATE	43.8	43.6	43.6	43.6	43.6	45	610.905
613.634	0	306817	wait	20	1	0	1	0	6.0	0.0	6.0	0.0						642.7185348999919	650.4972063000314	650.4972063000314	7.0	['7', 'return']	[2.1985123000340536, 2.766427500057034]	7.77	5.88	2.0	40hz	high_pain	43.7			sub-033	250	33	41.3	43.7	COM11	COM15	COM3	2024-05-01_14h08.55.599	001-EEG_SVR_Officel	2022.2.5	143.72338423435298		9.426000000000045	0_sub-pilot033_SVR_EEG_block1-2 (1).protocol.csv	step47	6348	630.311	STIMULATE	43.7	43.6	43.6	43.6	43.6	47	633.874
621.402	0	310701	40hz	9	1	0	1	0	6.0	0.0	6.0	0.0						642.7185348999919	650.4972063000314	650.4972063000314	7.0	['7', 'return']	[2.1985123000340536, 2.766427500057034]	7.77	5.88	2.0	40hz	high_pain	43.7			sub-033	250	33	41.3	43.7	COM11	COM15	COM3	2024-05-01_14h08.55.599	001-EEG_SVR_Officel	2022.2.5	143.72338423435298		7.768000000000029	0_sub-pilot033_SVR_EEG_block1-2 (1).protocol.csv	step47	6348	630.311	STIMULATE	43.7	43.6	43.6	43.6	43.6	47	633.874
628.032	0	314016	40/Hi	7	1	0	1	0	6.0	0.0	6.0	0.0						642.7185348999919	650.4972063000314	650.4972063000314	7.0	['7', 'return']	[2.1985123000340536, 2.766427500057034]	7.77	5.88	2.0	40hz	high_pain	43.7			sub-033	250	33	41.3	43.7	COM11	COM15	COM3	2024-05-01_14h08.55.599	001-EEG_SVR_Officel	2022.2.5	143.72338423435298		5.8799999999999955	0_sub-pilot033_SVR_EEG_block1-2 (1).protocol.csv	step47	6348	630.311	STIMULATE	43.7	43.6	43.6	43.6	43.6	47	633.874
637.2	0	318600	wait	20	1	0	1	0	7.0	0.0	7.0	0.0						666.2842301999917	672.784712200053	672.784712200053	5.0	['5', 'return']	[2.606615399941802, 3.181853999965824]	6.49	6.37	3.0	10hz	low_pain	41.3			sub-033	250	33	41.3	43.7	COM11	COM15	COM3	2024-05-01_14h08.55.599	001-EEG_SVR_Officel	2022.2.5	143.72338423435298		9.918000000000006	0_sub-pilot033_SVR_EEG_block1-2 (1).protocol.csv	step49	6578	653.089	STIMULATE	41.2	41.1	41.1	41.1	41.2	49	656.652
643.688	0	321844	10hz	3	1	0	1	0	7.0	0.0	7.0	0.0						666.2842301999917	672.784712200053	672.784712200053	5.0	['5', 'return']	[2.606615399941802, 3.181853999965824]	6.49	6.37	3.0	10hz	low_pain	41.3			sub-033	250	33	41.3	43.7	COM11	COM15	COM3	2024-05-01_14h08.55.599	001-EEG_SVR_Officel	2022.2.5	143.72338423435298		6.487999999999943	0_sub-pilot033_SVR_EEG_block1-2 (1).protocol.csv	step49	6578	653.089	STIMULATE	41.2	41.1	41.1	41.1	41.2	49	656.652
650.812	0	325406	10/Lo	2	1	0	1	0	7.0	0.0	7.0	0.0						666.2842301999917	672.784712200053	672.784712200053	5.0	['5', 'return']	[2.606615399941802, 3.181853999965824]	6.49	6.37	3.0	10hz	low_pain	41.3			sub-033	250	33	41.3	43.7	COM11	COM15	COM3	2024-05-01_14h08.55.599	001-EEG_SVR_Officel	2022.2.5	143.72338423435298		6.374000000000024	0_sub-pilot033_SVR_EEG_block1-2 (1).protocol.csv	step49	6578	653.089	STIMULATE	41.2	41.1	41.1	41.1	41.2	49	656.652
659.904	0	329952	wait	20	1	0	1	0	8.0	0.0	8.0	0.0						688.9882831000723	695.6485000000102	695.6485000000102	4.5	['4', 'a', '5', 'return']	[2.6387921000132337, 2.9275283999741077, 3.847150700050406, 4.951731699984521]	6.65	5.22	0.0	controle	low_pain	41.3			sub-033	250	33	41.3	43.7	COM11	COM15	COM3	2024-05-01_14h08.55.599	001-EEG_SVR_Officel	2022.2.5	143.72338423435298		9.841999999999985	0_sub-pilot033_SVR_EEG_block1-2 (1).protocol.csv	step51	6798	674.88	STIMULATE	41.2	41.1	41.1	41.1	41.2	51	678.443
666.552	0	333276	CNhz	12	1	0	1	0	8.0	0.0	8.0	0.0						688.9882831000723	695.6485000000102	695.6485000000102	4.5	['4', 'a', '5', 'return']	[2.6387921000132337, 2.9275283999741077, 3.847150700050406, 4.951731699984521]	6.65	5.22	0.0	controle	low_pain	41.3			sub-033	250	33	41.3	43.7	COM11	COM15	COM3	2024-05-01_14h08.55.599	001-EEG_SVR_Officel	2022.2.5	143.72338423435298		6.648000000000025	0_sub-pilot033_SVR_EEG_block1-2 (1).protocol.csv	step51	6798	674.88	STIMULATE	41.2	41.1	41.1	41.1	41.2	51	678.443
672.526	0	336263	CN/Lo	11	1	0	1	0	8.0	0.0	8.0	0.0						688.9882831000723	695.6485000000102	695.6485000000102	4.5	['4', 'a', '5', 'return']	[2.6387921000132337, 2.9275283999741077, 3.847150700050406, 4.951731699984521]	6.65	5.22	0.0	controle	low_pain	41.3			sub-033	250	33	41.3	43.7	COM11	COM15	COM3	2024-05-01_14h08.55.599	001-EEG_SVR_Officel	2022.2.5	143.72338423435298		5.223999999999933	0_sub-pilot033_SVR_EEG_block1-2 (1).protocol.csv	step51	6798	674.88	STIMULATE	41.2	41.1	41.1	41.1	41.2	51	678.443
684.53	0	342265	wait	20	1	0	1	0	9.0	0.0	9.0	0.0						713.6148937999969	721.4570913000498	721.4570913000498	2.0	['2', 'return']	[2.2072096000192687, 3.1514816000126302]	7.83	6.49	1.0	40hz	low_pain	41.3			sub-033	250	33	41.3	43.7	COM11	COM15	COM3	2024-05-01_14h08.55.599	001-EEG_SVR_Officel	2022.2.5	143.72338423435298		12.754000000000019	0_sub-pilot033_SVR_EEG_block1-2 (1).protocol.csv	step53	7071	701.93	STIMULATE	41.2	41.1	41.1	41.1	41.2	53	705.4929999999999
692.36	0	346180	40hz	9	1	0	1	0	9.0	0.0	9.0	0.0						713.6148937999969	721.4570913000498	721.4570913000498	2.0	['2', 'return']	[2.2072096000192687, 3.1514816000126302]	7.83	6.49	1.0	40hz	low_pain	41.3			sub-033	250	33	41.3	43.7	COM11	COM15	COM3	2024-05-01_14h08.55.599	001-EEG_SVR_Officel	2022.2.5	143.72338423435298		7.830000000000041	0_sub-pilot033_SVR_EEG_block1-2 (1).protocol.csv	step53	7071	701.93	STIMULATE	41.2	41.1	41.1	41.1	41.2	53	705.4929999999999
699.602	0	349801	40/Lo	8	1	0	1	0	9.0	0.0	9.0	0.0						713.6148937999969	721.4570913000498	721.4570913000498	2.0	['2', 'return']	[2.2072096000192687, 3.1514816000126302]	7.83	6.49	1.0	40hz	low_pain	41.3			sub-033	250	33	41.3	43.7	COM11	COM15	COM3	2024-05-01_14h08.55.599	001-EEG_SVR_Officel	2022.2.5	143.72338423435298		6.491999999999962	0_sub-pilot033_SVR_EEG_block1-2 (1).protocol.csv	step53	7071	701.93	STIMULATE	41.2	41.1	41.1	41.1	41.2	53	705.4929999999999
708.546	0	354273	wait	20	1	0	1	0	10.0	0.0	10.0	0.0						737.6326656000456	743.0987043000059	743.0987043000059	5.0	['5', 'return']	[2.2366049999836832, 2.9652453999733552]	5.46	5.25	2.0	10hz	high_pain	43.7			sub-033	250	33	41.3	43.7	COM11	COM15	COM3	2024-05-01_14h08.55.599	001-EEG_SVR_Officel	2022.2.5	143.72338423435298		9.694000000000074	0_sub-pilot033_SVR_EEG_block1-2 (1).protocol.csv	step55	7277	722.313	STIMULATE	43.7	43.6	43.6	43.6	43.6	55	725.876
714.002	0	357001	10hz	3	1	0	1	0	10.0	0.0	10.0	0.0						737.6326656000456	743.0987043000059	743.0987043000059	5.0	['5', 'return']	[2.2366049999836832, 2.9652453999733552]	5.46	5.25	2.0	10hz	high_pain	43.7			sub-033	250	33	41.3	43.7	COM11	COM15	COM3	2024-05-01_14h08.55.599	001-EEG_SVR_Officel	2022.2.5	143.72338423435298		5.455999999999904	0_sub-pilot033_SVR_EEG_block1-2 (1).protocol.csv	step55	7277	722.313	STIMULATE	43.7	43.6	43.6	43.6	43.6	55	725.876
720.0	0	360000	10/Hi	1	1	0	1	0	10.0	0.0	10.0	0.0						737.6326656000456	743.0987043000059	743.0987043000059	5.0	['5', 'return']	[2.2366049999836832, 2.9652453999733552]	5.46	5.25	2.0	10hz	high_pain	43.7			sub-033	250	33	41.3	43.7	COM11	COM15	COM3	2024-05-01_14h08.55.599	001-EEG_SVR_Officel	2022.2.5	143.72338423435298		5.248000000000047	0_sub-pilot033_SVR_EEG_block1-2 (1).protocol.csv	step55	7277	722.313	STIMULATE	43.7	43.6	43.6	43.6	43.6	55	725.876
729.988	0	364994	wait	20	1	0	1	0	11.0	0.0	11.0	0.0						759.0722943000728	766.7195221000584	766.7195221000584	3.0	['3', 'return']	[4.032532699988224, 4.7442067000083625]	7.64	6.0	3.0	20hz	low_pain	41.3			sub-033	250	33	41.3	43.7	COM11	COM15	COM3	2024-05-01_14h08.55.599	001-EEG_SVR_Officel	2022.2.5	143.72338423435298		10.738000000000056	0_sub-pilot033_SVR_EEG_block1-2 (1).protocol.csv	step57	7522	746.642	STIMULATE	41.2	41.1	41.1	41.1	41.2	57	750.205
737.624	0	368812	20hz	6	1	0	1	0	11.0	0.0	11.0	0.0						759.0722943000728	766.7195221000584	766.7195221000584	3.0	['3', 'return']	[4.032532699988224, 4.7442067000083625]	7.64	6.0	3.0	20hz	low_pain	41.3			sub-033	250	33	41.3	43.7	COM11	COM15	COM3	2024-05-01_14h08.55.599	001-EEG_SVR_Officel	2022.2.5	143.72338423435298		7.635999999999967	0_sub-pilot033_SVR_EEG_block1-2 (1).protocol.csv	step57	7522	746.642	STIMULATE	41.2	41.1	41.1	41.1	41.2	57	750.205
744.372	0	372186	20/Lo	5	1	0	1	0	11.0	0.0	11.0	0.0						759.0722943000728	766.7195221000584	766.7195221000584	3.0	['3', 'return']	[4.032532699988224, 4.7442067000083625]	7.64	6.0	3.0	20hz	low_pain	41.3			sub-033	250	33	41.3	43.7	COM11	COM15	COM3	2024-05-01_14h08.55.599	001-EEG_SVR_Officel	2022.2.5	143.72338423435298		5.997999999999934	0_sub-pilot033_SVR_EEG_block1-2 (1).protocol.csv	step57	7522	746.642	STIMULATE	41.2	41.1	41.1	41.1	41.2	57	750.205
755.4	0	377700	wait	20	1	0	1	0	12.0	0.0	12.0	0.0						784.4854642000282	790.326705000014	790.326705000014	3.5	['3', 'a', '5', 'return']	[1.9606532999314368, 2.217708899988793, 2.4418805999448523, 3.1853755000047386]	5.83	5.17	0.0	40hz	high_pain	43.7			sub-033	250	33	41.3	43.7	COM11	COM15	COM3	2024-05-01_14h08.55.599	001-EEG_SVR_Officel	2022.2.5	143.72338423435298		11.77800000000002	0_sub-pilot033_SVR_EEG_block1-2 (1).protocol.csv	step59	7753	769.542	STIMULATE	43.6	43.6	43.6	43.6	43.6	59	773.105
761.23	0	380615	40hz	9	1	0	1	0	12.0	0.0	12.0	0.0						784.4854642000282	790.326705000014	790.326705000014	3.5	['3', 'a', '5', 'return']	[1.9606532999314368, 2.217708899988793, 2.4418805999448523, 3.1853755000047386]	5.83	5.17	0.0	40hz	high_pain	43.7			sub-033	250	33	41.3	43.7	COM11	COM15	COM3	2024-05-01_14h08.55.599	001-EEG_SVR_Officel	2022.2.5	143.72338423435298		5.830000000000041	0_sub-pilot033_SVR_EEG_block1-2 (1).protocol.csv	step59	7753	769.542	STIMULATE	43.6	43.6	43.6	43.6	43.6	59	773.105
767.152	0	383576	40/Hi	7	1	0	1	0	12.0	0.0	12.0	0.0						784.4854642000282	790.326705000014	790.326705000014	3.5	['3', 'a', '5', 'return']	[1.9606532999314368, 2.217708899988793, 2.4418805999448523, 3.1853755000047386]	5.83	5.17	0.0	40hz	high_pain	43.7			sub-033	250	33	41.3	43.7	COM11	COM15	COM3	2024-05-01_14h08.55.599	001-EEG_SVR_Officel	2022.2.5	143.72338423435298		5.1720000000000255	0_sub-pilot033_SVR_EEG_block1-2 (1).protocol.csv	step59	7753	769.542	STIMULATE	43.6	43.6	43.6	43.6	43.6	59	773.105
777.438	0	388719	wait	20	1	0	1	0	13.0	0.0	13.0	0.0						806.5231844000518	812.0027761000674	812.0027761000674	4.0	['4', 'return']	[2.6288545998977497, 3.2443773999111727]	5.47	5.11	1.0	20hz	high_pain	43.7			sub-033	250	33	41.3	43.7	COM11	COM15	COM3	2024-05-01_14h08.55.599	001-EEG_SVR_Officel	2022.2.5	143.72338423435298		11.035999999999945	0_sub-pilot033_SVR_EEG_block1-2 (1).protocol.csv	step61	7970	791.131	STIMULATE	43.7	43.6	43.6	43.6	43.6	61	794.694
782.906	0	391453	20hz	6	1	0	1	0	13.0	0.0	13.0	0.0						806.5231844000518	812.0027761000674	812.0027761000674	4.0	['4', 'return']	[2.6288545998977497, 3.2443773999111727]	5.47	5.11	1.0	20hz	high_pain	43.7			sub-033	250	33	41.3	43.7	COM11	COM15	COM3	2024-05-01_14h08.55.599	001-EEG_SVR_Officel	2022.2.5	143.72338423435298		5.467999999999961	0_sub-pilot033_SVR_EEG_block1-2 (1).protocol.csv	step61	7970	791.131	STIMULATE	43.7	43.6	43.6	43.6	43.6	61	794.694
788.764	0	394382	20/Hi	4	1	0	1	0	13.0	0.0	13.0	0.0						806.5231844000518	812.0027761000674	812.0027761000674	4.0	['4', 'return']	[2.6288545998977497, 3.2443773999111727]	5.47	5.11	1.0	20hz	high_pain	43.7			sub-033	250	33	41.3	43.7	COM11	COM15	COM3	2024-05-01_14h08.55.599	001-EEG_SVR_Officel	2022.2.5	143.72338423435298		5.108000000000061	0_sub-pilot033_SVR_EEG_block1-2 (1).protocol.csv	step61	7970	791.131	STIMULATE	43.7	43.6	43.6	43.6	43.6	61	794.694
799.184	0	399592	wait	20	1	0	1	0	14.0	0.0	14.0	0.0						828.2684836999979	834.317804899998	834.317804899998	3.0	['3', 'return']	[3.3378779999911785, 4.057354199932888]	6.04	6.09	2.0	controle	low_pain	41.3			sub-033	250	33	41.3	43.7	COM11	COM15	COM3	2024-05-01_14h08.55.599	001-EEG_SVR_Officel	2022.2.5	143.72338423435298		11.169999999999959	0_sub-pilot033_SVR_EEG_block1-2 (1).protocol.csv	step63	8201	814.486	STIMULATE	41.2	41.1	41.1	41.1	41.2	63	818.049
805.22	0	402610	CNhz	12	1	0	1	0	14.0	0.0	14.0	0.0						828.2684836999979	834.317804899998	834.317804899998	3.0	['3', 'return']	[3.3378779999911785, 4.057354199932888]	6.04	6.09	2.0	controle	low_pain	41.3			sub-033	250	33	41.3	43.7	COM11	COM15	COM3	2024-05-01_14h08.55.599	001-EEG_SVR_Officel	2022.2.5	143.72338423435298		6.036000000000058	0_sub-pilot033_SVR_EEG_block1-2 (1).protocol.csv	step63	8201	814.486	STIMULATE	41.2	41.1	41.1	41.1	41.2	63	818.049
812.06	0	406030	CN/Lo	11	1	0	1	0	14.0	0.0	14.0	0.0						828.2684836999979	834.317804899998	834.317804899998	3.0	['3', 'return']	[3.3378779999911785, 4.057354199932888]	6.04	6.09	2.0	controle	low_pain	41.3			sub-033	250	33	41.3	43.7	COM11	COM15	COM3	2024-05-01_14h08.55.599	001-EEG_SVR_Officel	2022.2.5	143.72338423435298		6.089999999999918	0_sub-pilot033_SVR_EEG_block1-2 (1).protocol.csv	step63	8201	814.486	STIMULATE	41.2	41.1	41.1	41.1	41.2	63	818.049
822.302	0	411151	wait	20	1	0	1	0	15.0	0.0	15.0	0.0						851.3884457000531	856.4108509999933	856.4108509999933	2.0	['2', 'return']	[3.5505242999643087, 4.197661999962293]	5.01	6.49	3.0	controle	low_pain	41.3			sub-033	250	33	41.3	43.7	COM11	COM15	COM3	2024-05-01_14h08.55.599	001-EEG_SVR_Officel	2022.2.5	143.72338423435298		10.992000000000075	0_sub-pilot033_SVR_EEG_block1-2 (1).protocol.csv	step65	8419	836.92	STIMULATE	41.2	41.1	41.1	41.1	41.1	65	840.483
827.314	0	413657	CNhz	12	1	0	1	0	15.0	0.0	15.0	0.0						851.3884457000531	856.4108509999933	856.4108509999933	2.0	['2', 'return']	[3.5505242999643087, 4.197661999962293]	5.01	6.49	3.0	controle	low_pain	41.3			sub-033	250	33	41.3	43.7	COM11	COM15	COM3	2024-05-01_14h08.55.599	001-EEG_SVR_Officel	2022.2.5	143.72338423435298		5.011999999999944	0_sub-pilot033_SVR_EEG_block1-2 (1).protocol.csv	step65	8419	836.92	STIMULATE	41.2	41.1	41.1	41.1	41.1	65	840.483
834.554	0	417277	CN/Lo	11	1	0	1	0	15.0	0.0	15.0	0.0						851.3884457000531	856.4108509999933	856.4108509999933	2.0	['2', 'return']	[3.5505242999643087, 4.197661999962293]	5.01	6.49	3.0	controle	low_pain	41.3			sub-033	250	33	41.3	43.7	COM11	COM15	COM3	2024-05-01_14h08.55.599	001-EEG_SVR_Officel	2022.2.5	143.72338423435298		6.490000000000009	0_sub-pilot033_SVR_EEG_block1-2 (1).protocol.csv	step65	8419	836.92	STIMULATE	41.2	41.1	41.1	41.1	41.1	65	840.483
907.044	0	453522	wait	20	2	0	2	0	0.0	0.0	0.0	0.0				p	0.9650176001014188	936.1287575000896	941.670962400036	941.670962400036	5.5	['5', 'a', '5', 'return']	[2.8161492000799626, 3.0411427000071853, 3.2648617000086233, 3.9441599000710994]	5.53	6.05	0.0	20hz	high_pain	43.7			sub-033	250	33	41.3	43.7	COM11	COM15	COM3	2024-05-01_14h08.55.599	001-EEG_SVR_Officel	2022.2.5	143.72338423435298		73.24000000000001	1_sub-pilot033_SVR_EEG_block3-4.protocol.csv	step3	694	69.252	STIMULATE	43.8	43.6	43.6	43.6	43.7	3	925.2610000000001
912.572	0	456286	20hz	6	2	0	2	0	0.0	0.0	0.0	0.0				p	0.9650176001014188	936.1287575000896	941.670962400036	941.670962400036	5.5	['5', 'a', '5', 'return']	[2.8161492000799626, 3.0411427000071853, 3.2648617000086233, 3.9441599000710994]	5.53	6.05	0.0	20hz	high_pain	43.7			sub-033	250	33	41.3	43.7	COM11	COM15	COM3	2024-05-01_14h08.55.599	001-EEG_SVR_Officel	2022.2.5	143.72338423435298		5.52800000000002	1_sub-pilot033_SVR_EEG_block3-4.protocol.csv	step3	694	69.252	STIMULATE	43.8	43.6	43.6	43.6	43.7	3	925.2610000000001
919.378	0	459689	20/Hi	4	2	0	2	0	0.0	0.0	0.0	0.0				p	0.9650176001014188	936.1287575000896	941.670962400036	941.670962400036	5.5	['5', 'a', '5', 'return']	[2.8161492000799626, 3.0411427000071853, 3.2648617000086233, 3.9441599000710994]	5.53	6.05	0.0	20hz	high_pain	43.7			sub-033	250	33	41.3	43.7	COM11	COM15	COM3	2024-05-01_14h08.55.599	001-EEG_SVR_Officel	2022.2.5	143.72338423435298		6.05600000000004	1_sub-pilot033_SVR_EEG_block3-4.protocol.csv	step3	694	69.252	STIMULATE	43.8	43.6	43.6	43.6	43.7	3	925.2610000000001
929.544	0	464772	wait	20	2	0	2	0	1.0	0.0	1.0	0.0						958.6313457000068	966.479478500085	966.479478500085	4.0	['4', 'return']	[1.848585500032641, 2.544307600008324]	7.84	5.39	1.0	20hz	high_pain	43.7			sub-033	250	33	41.3	43.7	COM11	COM15	COM3	2024-05-01_14h08.55.599	001-EEG_SVR_Officel	2022.2.5	143.72338423435298		10.91599999999994	1_sub-pilot033_SVR_EEG_block3-4.protocol.csv	step5	937	93.338	STIMULATE	43.8	43.6	43.6	43.6	43.6	5	949.347
937.382	0	468691	20hz	6	2	0	2	0	1.0	0.0	1.0	0.0						958.6313457000068	966.479478500085	966.479478500085	4.0	['4', 'return']	[1.848585500032641, 2.544307600008324]	7.84	5.39	1.0	20hz	high_pain	43.7			sub-033	250	33	41.3	43.7	COM11	COM15	COM3	2024-05-01_14h08.55.599	001-EEG_SVR_Officel	2022.2.5	143.72338423435298		7.837999999999965	1_sub-pilot033_SVR_EEG_block3-4.protocol.csv	step5	937	93.338	STIMULATE	43.8	43.6	43.6	43.6	43.6	5	949.347
943.526	0	471763	20/Hi	4	2	0	2	0	1.0	0.0	1.0	0.0						958.6313457000068	966.479478500085	966.479478500085	4.0	['4', 'return']	[1.848585500032641, 2.544307600008324]	7.84	5.39	1.0	20hz	high_pain	43.7			sub-033	250	33	41.3	43.7	COM11	COM15	COM3	2024-05-01_14h08.55.599	001-EEG_SVR_Officel	2022.2.5	143.72338423435298		5.3940000000000055	1_sub-pilot033_SVR_EEG_block3-4.protocol.csv	step5	937	93.338	STIMULATE	43.8	43.6	43.6	43.6	43.6	5	949.347
952.958	0	476479	wait	20	2	0	2	0	2.0	0.0	2.0	0.0						982.0438624999952	989.6211668000324	989.6211668000324	5.0	['5', 'return']	[2.1704335999675095, 2.8049172000028193]	7.57	5.91	2.0	controle	low_pain	41.3			sub-033	250	33	41.3	43.7	COM11	COM15	COM3	2024-05-01_14h08.55.599	001-EEG_SVR_Officel	2022.2.5	143.72338423435298		10.182000000000016	1_sub-pilot033_SVR_EEG_block3-4.protocol.csv	step7	1176	117.026	STIMULATE	41.3	41.1	41.1	41.1	41.2	7	973.0350000000001
960.522	0	480261	CNhz	12	2	0	2	0	2.0	0.0	2.0	0.0						982.0438624999952	989.6211668000324	989.6211668000324	5.0	['5', 'return']	[2.1704335999675095, 2.8049172000028193]	7.57	5.91	2.0	controle	low_pain	41.3			sub-033	250	33	41.3	43.7	COM11	COM15	COM3	2024-05-01_14h08.55.599	001-EEG_SVR_Officel	2022.2.5	143.72338423435298		7.564000000000078	1_sub-pilot033_SVR_EEG_block3-4.protocol.csv	step7	1176	117.026	STIMULATE	41.3	41.1	41.1	41.1	41.2	7	973.0350000000001
967.182	0	483591	CN/Lo	11	2	0	2	0	2.0	0.0	2.0	0.0						982.0438624999952	989.6211668000324	989.6211668000324	5.0	['5', 'return']	[2.1704335999675095, 2.8049172000028193]	7.57	5.91	2.0	controle	low_pain	41.3			sub-033	250	33	41.3	43.7	COM11	COM15	COM3	2024-05-01_14h08.55.599	001-EEG_SVR_Officel	2022.2.5	143.72338423435298		5.909999999999968	1_sub-pilot033_SVR_EEG_block3-4.protocol.csv	step7	1176	117.026	STIMULATE	41.3	41.1	41.1	41.1	41.2	7	973.0350000000001
976.348	0	488174	wait	20	2	0	2	0	3.0	0.0	3.0	0.0						1005.4350809000898	1010.7278187000192	1010.7278187000192	7.0	['7', 'return']	[3.103526399936527, 4.1519105999032035]	5.28	5.21	3.0	10hz	high_pain	43.7			sub-033	250	33	41.3	43.7	COM11	COM15	COM3	2024-05-01_14h08.55.599	001-EEG_SVR_Officel	2022.2.5	143.72338423435298		9.91599999999994	1_sub-pilot033_SVR_EEG_block3-4.protocol.csv	step9	1381	137.318	STIMULATE	43.7	43.6	43.6	43.6	43.6	9	993.327
981.63	0	490815	10hz	3	2	0	2	0	3.0	0.0	3.0	0.0						1005.4350809000898	1010.7278187000192	1010.7278187000192	7.0	['7', 'return']	[3.103526399936527, 4.1519105999032035]	5.28	5.21	3.0	10hz	high_pain	43.7			sub-033	250	33	41.3	43.7	COM11	COM15	COM3	2024-05-01_14h08.55.599	001-EEG_SVR_Officel	2022.2.5	143.72338423435298		5.282000000000039	1_sub-pilot033_SVR_EEG_block3-4.protocol.csv	step9	1381	137.318	STIMULATE	43.7	43.6	43.6	43.6	43.6	9	993.327
987.592	0	493796	10/Hi	1	2	0	2	0	3.0	0.0	3.0	0.0						1005.4350809000898	1010.7278187000192	1010.7278187000192	7.0	['7', 'return']	[3.103526399936527, 4.1519105999032035]	5.28	5.21	3.0	10hz	high_pain	43.7			sub-033	250	33	41.3	43.7	COM11	COM15	COM3	2024-05-01_14h08.55.599	001-EEG_SVR_Officel	2022.2.5	143.72338423435298		5.211999999999989	1_sub-pilot033_SVR_EEG_block3-4.protocol.csv	step9	1381	137.318	STIMULATE	43.7	43.6	43.6	43.6	43.6	9	993.327
998.81	0	499405	wait	20	2	0	2	0	4.0	0.0	4.0	0.0						1027.8970634000143	1035.6067710000789	1035.6067710000789	3.0	['3', 'return']	[1.8256274999585003, 2.481023299973458]	7.7	5.0	0.0	40hz	low_pain	41.3			sub-033	250	33	41.3	43.7	COM11	COM15	COM3	2024-05-01_14h08.55.599	001-EEG_SVR_Officel	2022.2.5	143.72338423435298		11.967999999999961	1_sub-pilot033_SVR_EEG_block3-4.protocol.csv	step11	1630	162.051	STIMULATE	41.3	41.1	41.1	41.1	41.2	11	1018.0600000000001
1006.506	0	503253	40hz	9	2	0	2	0	4.0	0.0	4.0	0.0						1027.8970634000143	1035.6067710000789	1035.6067710000789	3.0	['3', 'return']	[1.8256274999585003, 2.481023299973458]	7.7	5.0	0.0	40hz	low_pain	41.3			sub-033	250	33	41.3	43.7	COM11	COM15	COM3	2024-05-01_14h08.55.599	001-EEG_SVR_Officel	2022.2.5	143.72338423435298		7.696000000000026	1_sub-pilot033_SVR_EEG_block3-4.protocol.csv	step11	1630	162.051	STIMULATE	41.3	41.1	41.1	41.1	41.2	11	1018.0600000000001
1012.256	0	506128	40/Lo	8	2	0	2	0	4.0	0.0	4.0	0.0						1027.8970634000143	1035.6067710000789	1035.6067710000789	3.0	['3', 'return']	[1.8256274999585003, 2.481023299973458]	7.7	5.0	0.0	40hz	low_pain	41.3			sub-033	250	33	41.3	43.7	COM11	COM15	COM3	2024-05-01_14h08.55.599	001-EEG_SVR_Officel	2022.2.5	143.72338423435298		5.0	1_sub-pilot033_SVR_EEG_block3-4.protocol.csv	step11	1630	162.051	STIMULATE	41.3	41.1	41.1	41.1	41.2	11	1018.0600000000001
1022.02	0	511010	wait	20	2	0	2	0	5.0	0.0	5.0	0.0						1051.1078153999988	1057.9699399000965	1057.9699399000965	3.0	['3', 'return']	[3.5899086999706924, 4.557656699907966]	6.85	5.22	1.0	controle	low_pain	41.3			sub-033	250	33	41.3	43.7	COM11	COM15	COM3	2024-05-01_14h08.55.599	001-EEG_SVR_Officel	2022.2.5	143.72338423435298		10.51400000000001	1_sub-pilot033_SVR_EEG_block3-4.protocol.csv	step13	1858	184.604	STIMULATE	41.2	41.1	41.1	41.1	41.1	13	1040.613
1028.872	0	514436	CNhz	12	2	0	2	0	5.0	0.0	5.0	0.0						1051.1078153999988	1057.9699399000965	1057.9699399000965	3.0	['3', 'return']	[3.5899086999706924, 4.557656699907966]	6.85	5.22	1.0	controle	low_pain	41.3			sub-033	250	33	41.3	43.7	COM11	COM15	COM3	2024-05-01_14h08.55.599	001-EEG_SVR_Officel	2022.2.5	143.72338423435298		6.852000000000089	1_sub-pilot033_SVR_EEG_block3-4.protocol.csv	step13	1858	184.604	STIMULATE	41.2	41.1	41.1	41.1	41.1	13	1040.613
1034.842	0	517421	CN/Lo	11	2	0	2	0	5.0	0.0	5.0	0.0						1051.1078153999988	1057.9699399000965	1057.9699399000965	3.0	['3', 'return']	[3.5899086999706924, 4.557656699907966]	6.85	5.22	1.0	controle	low_pain	41.3			sub-033	250	33	41.3	43.7	COM11	COM15	COM3	2024-05-01_14h08.55.599	001-EEG_SVR_Officel	2022.2.5	143.72338423435298		5.220000000000027	1_sub-pilot033_SVR_EEG_block3-4.protocol.csv	step13	1858	184.604	STIMULATE	41.2	41.1	41.1	41.1	41.1	13	1040.613
1046.462	0	523231	wait	20	2	0	2	0	6.0	0.0	6.0	0.0						1075.5481083000775	1081.396133000031	1081.396133000031	6.0	['6', 'return']	[2.4439721999224275, 2.939858299912885]	5.84	6.42	2.0	20hz	high_pain	43.7			sub-033	250	33	41.3	43.7	COM11	COM15	COM3	2024-05-01_14h08.55.599	001-EEG_SVR_Officel	2022.2.5	143.72338423435298		12.36999999999989	1_sub-pilot033_SVR_EEG_block3-4.protocol.csv	step15	2107	209.313	STIMULATE	43.7	43.6	43.6	43.6	43.6	15	1065.3220000000001
1052.296	0	526148	20hz	6	2	0	2	0	6.0	0.0	6.0	0.0						1075.5481083000775	1081.396133000031	1081.396133000031	6.0	['6', 'return']	[2.4439721999224275, 2.939858299912885]	5.84	6.42	2.0	20hz	high_pain	43.7			sub-033	250	33	41.3	43.7	COM11	COM15	COM3	2024-05-01_14h08.55.599	001-EEG_SVR_Officel	2022.2.5	143.72338423435298		5.83400000000006	1_sub-pilot033_SVR_EEG_block3-4.protocol.csv	step15	2107	209.313	STIMULATE	43.7	43.6	43.6	43.6	43.6	15	1065.3220000000001
1059.47	0	529735	20/Hi	4	2	0	2	0	6.0	0.0	6.0	0.0						1075.5481083000775	1081.396133000031	1081.396133000031	6.0	['6', 'return']	[2.4439721999224275, 2.939858299912885]	5.84	6.42	2.0	20hz	high_pain	43.7			sub-033	250	33	41.3	43.7	COM11	COM15	COM3	2024-05-01_14h08.55.599	001-EEG_SVR_Officel	2022.2.5	143.72338423435298		6.423999999999978	1_sub-pilot033_SVR_EEG_block3-4.protocol.csv	step15	2107	209.313	STIMULATE	43.7	43.6	43.6	43.6	43.6	15	1065.3220000000001
1068.262	0	534131	wait	20	2	0	2	0	7.0	0.0	7.0	0.0						1097.3487973000156	1103.169638600084	1103.169638600084	5.0	['5', 'return']	[2.550468900008127, 3.1178863999666646]	5.81	6.16	3.0	20hz	low_pain	41.3			sub-033	250	33	41.3	43.7	COM11	COM15	COM3	2024-05-01_14h08.55.599	001-EEG_SVR_Officel	2022.2.5	143.72338423435298		9.541999999999916	1_sub-pilot033_SVR_EEG_block3-4.protocol.csv	step17	2324	230.833	STIMULATE	41.2	41.1	41.1	41.1	41.1	17	1086.842
1074.072	0	537036	20hz	6	2	0	2	0	7.0	0.0	7.0	0.0						1097.3487973000156	1103.169638600084	1103.169638600084	5.0	['5', 'return']	[2.550468900008127, 3.1178863999666646]	5.81	6.16	3.0	20hz	low_pain	41.3			sub-033	250	33	41.3	43.7	COM11	COM15	COM3	2024-05-01_14h08.55.599	001-EEG_SVR_Officel	2022.2.5	143.72338423435298		5.809999999999945	1_sub-pilot033_SVR_EEG_block3-4.protocol.csv	step17	2324	230.833	STIMULATE	41.2	41.1	41.1	41.1	41.1	17	1086.842
1080.986	0	540493	20/Lo	5	2	0	2	0	7.0	0.0	7.0	0.0						1097.3487973000156	1103.169638600084	1103.169638600084	5.0	['5', 'return']	[2.550468900008127, 3.1178863999666646]	5.81	6.16	3.0	20hz	low_pain	41.3			sub-033	250	33	41.3	43.7	COM11	COM15	COM3	2024-05-01_14h08.55.599	001-EEG_SVR_Officel	2022.2.5	143.72338423435298		6.164000000000215	1_sub-pilot033_SVR_EEG_block3-4.protocol.csv	step17	2324	230.833	STIMULATE	41.2	41.1	41.1	41.1	41.1	17	1086.842
1090.21	0	545105	wait	20	2	0	2	0	8.0	0.0	8.0	0.0						1119.295906000072	1124.4151753000915	1124.4151753000915	3.0	['3', 'return']	[2.208220199914649, 2.7121622998965904]	5.11	5.02	0.0	controle	high_pain	43.7			sub-033	250	33	41.3	43.7	COM11	COM15	COM3	2024-05-01_14h08.55.599	001-EEG_SVR_Officel	2022.2.5	143.72338423435298		9.973999999999933	1_sub-pilot033_SVR_EEG_block3-4.protocol.csv	step19	2526	250.817	STIMULATE	43.7	43.6	43.6	43.6	43.6	19	1106.826
1095.316	0	547658	CNhz	12	2	0	2	0	8.0	0.0	8.0	0.0						1119.295906000072	1124.4151753000915	1124.4151753000915	3.0	['3', 'return']	[2.208220199914649, 2.7121622998965904]	5.11	5.02	0.0	controle	high_pain	43.7			sub-033	250	33	41.3	43.7	COM11	COM15	COM3	2024-05-01_14h08.55.599	001-EEG_SVR_Officel	2022.2.5	143.72338423435298		5.1059999999999945	1_sub-pilot033_SVR_EEG_block3-4.protocol.csv	step19	2526	250.817	STIMULATE	43.7	43.6	43.6	43.6	43.6	19	1106.826
1101.086	0	550543	CN/Hi	10	2	0	2	0	8.0	0.0	8.0	0.0						1119.295906000072	1124.4151753000915	1124.4151753000915	3.0	['3', 'return']	[2.208220199914649, 2.7121622998965904]	5.11	5.02	0.0	controle	high_pain	43.7			sub-033	250	33	41.3	43.7	COM11	COM15	COM3	2024-05-01_14h08.55.599	001-EEG_SVR_Officel	2022.2.5	143.72338423435298		5.019999999999982	1_sub-pilot033_SVR_EEG_block3-4.protocol.csv	step19	2526	250.817	STIMULATE	43.7	43.6	43.6	43.6	43.6	19	1106.826
1111.058	0	555529	wait	20	2	0	2	0	9.0	0.0	9.0	0.0						1140.1461912000086	1146.2170511999866	1146.2170511999866	2.0	['2', 'return']	[3.841163199977018, 6.232523399987258]	6.06	5.24	1.0	controle	high_pain	43.7			sub-033	250	33	41.3	43.7	COM11	COM15	COM3	2024-05-01_14h08.55.599	001-EEG_SVR_Officel	2022.2.5	143.72338423435298		10.72199999999998	1_sub-pilot033_SVR_EEG_block3-4.protocol.csv	step21	2749	272.914	STIMULATE	43.7	43.6	43.6	43.6	43.6	21	1128.923
1117.118	0	558559	CNhz	12	2	0	2	0	9.0	0.0	9.0	0.0						1140.1461912000086	1146.2170511999866	1146.2170511999866	2.0	['2', 'return']	[3.841163199977018, 6.232523399987258]	6.06	5.24	1.0	controle	high_pain	43.7			sub-033	250	33	41.3	43.7	COM11	COM15	COM3	2024-05-01_14h08.55.599	001-EEG_SVR_Officel	2022.2.5	143.72338423435298		6.059999999999945	1_sub-pilot033_SVR_EEG_block3-4.protocol.csv	step21	2749	272.914	STIMULATE	43.7	43.6	43.6	43.6	43.6	21	1128.923
1123.11	0	561555	CN/Hi	10	2	0	2	0	9.0	0.0	9.0	0.0						1140.1461912000086	1146.2170511999866	1146.2170511999866	2.0	['2', 'return']	[3.841163199977018, 6.232523399987258]	6.06	5.24	1.0	controle	high_pain	43.7			sub-033	250	33	41.3	43.7	COM11	COM15	COM3	2024-05-01_14h08.55.599	001-EEG_SVR_Officel	2022.2.5	143.72338423435298		5.241999999999962	1_sub-pilot033_SVR_EEG_block3-4.protocol.csv	step21	2749	272.914	STIMULATE	43.7	43.6	43.6	43.6	43.6	21	1128.923
1136.388	0	568194	wait	20	2	0	2	0	10.0	0.0	10.0	0.0						1165.4759789000964	1173.3237441000529	1173.3237441000529	2.5	['2', 'a', '5', 'return']	[2.989317800034769, 3.2914555000606924, 3.5643211000133306, 4.452474300051108]	7.84	5.67	2.0	40hz	low_pain	41.3			sub-033	250	33	41.3	43.7	COM11	COM15	COM3	2024-05-01_14h08.55.599	001-EEG_SVR_Officel	2022.2.5	143.72338423435298		14.02800000000002	1_sub-pilot033_SVR_EEG_block3-4.protocol.csv	step23	3026	300.49	STIMULATE	41.2	41.1	41.1	41.1	41.1	23	1156.499
1144.224	0	572112	40hz	9	2	0	2	0	10.0	0.0	10.0	0.0						1165.4759789000964	1173.3237441000529	1173.3237441000529	2.5	['2', 'a', '5', 'return']	[2.989317800034769, 3.2914555000606924, 3.5643211000133306, 4.452474300051108]	7.84	5.67	2.0	40hz	low_pain	41.3			sub-033	250	33	41.3	43.7	COM11	COM15	COM3	2024-05-01_14h08.55.599	001-EEG_SVR_Officel	2022.2.5	143.72338423435298		7.836000000000013	1_sub-pilot033_SVR_EEG_block3-4.protocol.csv	step23	3026	300.49	STIMULATE	41.2	41.1	41.1	41.1	41.1	23	1156.499
1150.646	0	575323	40/Lo	8	2	0	2	0	10.0	0.0	10.0	0.0						1165.4759789000964	1173.3237441000529	1173.3237441000529	2.5	['2', 'a', '5', 'return']	[2.989317800034769, 3.2914555000606924, 3.5643211000133306, 4.452474300051108]	7.84	5.67	2.0	40hz	low_pain	41.3			sub-033	250	33	41.3	43.7	COM11	COM15	COM3	2024-05-01_14h08.55.599	001-EEG_SVR_Officel	2022.2.5	143.72338423435298		5.6720000000000255	1_sub-pilot033_SVR_EEG_block3-4.protocol.csv	step23	3026	300.49	STIMULATE	41.2	41.1	41.1	41.1	41.1	23	1156.499
1161.71	0	580855	wait	20	2	0	2	0	11.0	0.0	11.0	0.0						1190.7980378000066	1196.5904644000111	1196.5904644000111	6.0	['6', 'return']	[2.50516260007862, 3.1221245999913663]	5.78	5.88	3.0	controle	high_pain	43.7			sub-033	250	33	41.3	43.7	COM11	COM15	COM3	2024-05-01_14h08.55.599	001-EEG_SVR_Officel	2022.2.5	143.72338423435298		11.814000000000078	1_sub-pilot033_SVR_EEG_block3-4.protocol.csv	step25	3263	323.94	STIMULATE	43.6	43.6	43.6	43.6	43.6	25	1179.949
1167.49	0	583745	CNhz	12	2	0	2	0	11.0	0.0	11.0	0.0						1190.7980378000066	1196.5904644000111	1196.5904644000111	6.0	['6', 'return']	[2.50516260007862, 3.1221245999913663]	5.78	5.88	3.0	controle	high_pain	43.7			sub-033	250	33	41.3	43.7	COM11	COM15	COM3	2024-05-01_14h08.55.599	001-EEG_SVR_Officel	2022.2.5	143.72338423435298		5.779999999999973	1_sub-pilot033_SVR_EEG_block3-4.protocol.csv	step25	3263	323.94	STIMULATE	43.6	43.6	43.6	43.6	43.6	25	1179.949
1174.122	0	587061	CN/Hi	10	2	0	2	0	11.0	0.0	11.0	0.0						1190.7980378000066	1196.5904644000111	1196.5904644000111	6.0	['6', 'return']	[2.50516260007862, 3.1221245999913663]	5.78	5.88	3.0	controle	high_pain	43.7			sub-033	250	33	41.3	43.7	COM11	COM15	COM3	2024-05-01_14h08.55.599	001-EEG_SVR_Officel	2022.2.5	143.72338423435298		5.882000000000062	1_sub-pilot033_SVR_EEG_block3-4.protocol.csv	step25	3263	323.94	STIMULATE	43.6	43.6	43.6	43.6	43.6	25	1179.949
1183.644	0	591822	wait	20	2	0	2	0	12.0	0.0	12.0	0.0						1212.7311936999904	1220.461267500068	1220.461267500068	3.0	['3', 'return']	[2.4903264000313357, 3.139017599984072]	7.72	5.54	0.0	controle	low_pain	41.3			sub-033	250	33	41.3	43.7	COM11	COM15	COM3	2024-05-01_14h08.55.599	001-EEG_SVR_Officel	2022.2.5	143.72338423435298		10.271999999999935	1_sub-pilot033_SVR_EEG_block3-4.protocol.csv	step27	3500	347.457	STIMULATE	41.2	41.1	41.1	41.1	41.2	27	1203.466
1191.362	0	595681	CNhz	12	2	0	2	0	12.0	0.0	12.0	0.0						1212.7311936999904	1220.461267500068	1220.461267500068	3.0	['3', 'return']	[2.4903264000313357, 3.139017599984072]	7.72	5.54	0.0	controle	low_pain	41.3			sub-033	250	33	41.3	43.7	COM11	COM15	COM3	2024-05-01_14h08.55.599	001-EEG_SVR_Officel	2022.2.5	143.72338423435298		7.718000000000075	1_sub-pilot033_SVR_EEG_block3-4.protocol.csv	step27	3500	347.457	STIMULATE	41.2	41.1	41.1	41.1	41.2	27	1203.466
1197.652	0	598826	CN/Lo	11	2	0	2	0	12.0	0.0	12.0	0.0						1212.7311936999904	1220.461267500068	1220.461267500068	3.0	['3', 'return']	[2.4903264000313357, 3.139017599984072]	7.72	5.54	0.0	controle	low_pain	41.3			sub-033	250	33	41.3	43.7	COM11	COM15	COM3	2024-05-01_14h08.55.599	001-EEG_SVR_Officel	2022.2.5	143.72338423435298		5.539999999999964	1_sub-pilot033_SVR_EEG_block3-4.protocol.csv	step27	3500	347.457	STIMULATE	41.2	41.1	41.1	41.1	41.2	27	1203.466
1207.536	0	603768	wait	20	2	0	2	0	13.0	0.0	13.0	0.0						1236.6229456000729	1244.221762000001	1244.221762000001	2.0	['2', 'return']	[2.594284799997695, 3.195225599920377]	7.59	6.44	1.0	10hz	low_pain	41.3			sub-033	250	33	41.3	43.7	COM11	COM15	COM3	2024-05-01_14h08.55.599	001-EEG_SVR_Officel	2022.2.5	143.72338423435298		10.634000000000015	1_sub-pilot033_SVR_EEG_block3-4.protocol.csv	step29	3749	372.164	STIMULATE	41.2	41.1	41.1	41.1	41.2	29	1228.173
1215.12	0	607560	10hz	3	2	0	2	0	13.0	0.0	13.0	0.0						1236.6229456000729	1244.221762000001	1244.221762000001	2.0	['2', 'return']	[2.594284799997695, 3.195225599920377]	7.59	6.44	1.0	10hz	low_pain	41.3			sub-033	250	33	41.3	43.7	COM11	COM15	COM3	2024-05-01_14h08.55.599	001-EEG_SVR_Officel	2022.2.5	143.72338423435298		7.583999999999833	1_sub-pilot033_SVR_EEG_block3-4.protocol.csv	step29	3749	372.164	STIMULATE	41.2	41.1	41.1	41.1	41.2	29	1228.173
1222.314	0	611157	10/Lo	2	2	0	2	0	13.0	0.0	13.0	0.0						1236.6229456000729	1244.221762000001	1244.221762000001	2.0	['2', 'return']	[2.594284799997695, 3.195225599920377]	7.59	6.44	1.0	10hz	low_pain	41.3			sub-033	250	33	41.3	43.7	COM11	COM15	COM3	2024-05-01_14h08.55.599	001-EEG_SVR_Officel	2022.2.5	143.72338423435298		6.444000000000187	1_sub-pilot033_SVR_EEG_block3-4.protocol.csv	step29	3749	372.164	STIMULATE	41.2	41.1	41.1	41.1	41.2	29	1228.173
1231.342	0	615671	wait	20	2	0	2	0	14.0	0.0	14.0	0.0						1260.4307204000652	1266.029368299991	1266.029368299991	4.0	['4', 'return']	[3.618923099944368, 4.362902199965902]	5.59	5.92	2.0	20hz	low_pain	41.3			sub-033	250	33	41.3	43.7	COM11	COM15	COM3	2024-05-01_14h08.55.599	001-EEG_SVR_Officel	2022.2.5	143.72338423435298		9.77800000000002	1_sub-pilot033_SVR_EEG_block3-4.protocol.csv	step31	3963	393.324	STIMULATE	41.2	41.1	41.1	41.1	41.2	31	1249.333
1236.928	0	618464	20hz	6	2	0	2	0	14.0	0.0	14.0	0.0						1260.4307204000652	1266.029368299991	1266.029368299991	4.0	['4', 'return']	[3.618923099944368, 4.362902199965902]	5.59	5.92	2.0	20hz	low_pain	41.3			sub-033	250	33	41.3	43.7	COM11	COM15	COM3	2024-05-01_14h08.55.599	001-EEG_SVR_Officel	2022.2.5	143.72338423435298		5.586000000000013	1_sub-pilot033_SVR_EEG_block3-4.protocol.csv	step31	3963	393.324	STIMULATE	41.2	41.1	41.1	41.1	41.2	31	1249.333
1243.602	0	621801	20/Lo	5	2	0	2	0	14.0	0.0	14.0	0.0						1260.4307204000652	1266.029368299991	1266.029368299991	4.0	['4', 'return']	[3.618923099944368, 4.362902199965902]	5.59	5.92	2.0	20hz	low_pain	41.3			sub-033	250	33	41.3	43.7	COM11	COM15	COM3	2024-05-01_14h08.55.599	001-EEG_SVR_Officel	2022.2.5	143.72338423435298		5.923999999999978	1_sub-pilot033_SVR_EEG_block3-4.protocol.csv	step31	3963	393.324	STIMULATE	41.2	41.1	41.1	41.1	41.2	31	1249.333
1254.324	0	627162	wait	20	2	0	2	0	15.0	0.0	15.0	0.0						1283.413259700057	1289.9905183000956	1289.9905183000956	5.0	['5', 'return']	[2.4251825000392273, 2.921416400000453]	6.57	5.26	3.0	20hz	high_pain	43.7			sub-033	250	33	41.3	43.7	COM11	COM15	COM3	2024-05-01_14h08.55.599	001-EEG_SVR_Officel	2022.2.5	143.72338423435298		11.47199999999998	1_sub-pilot033_SVR_EEG_block3-4.protocol.csv	step33	4199	416.782	STIMULATE	43.6	43.6	43.6	43.6	43.6	33	1272.7910000000002
1260.892	0	630446	20hz	6	2	0	2	0	15.0	0.0	15.0	0.0						1283.413259700057	1289.9905183000956	1289.9905183000956	5.0	['5', 'return']	[2.4251825000392273, 2.921416400000453]	6.57	5.26	3.0	20hz	high_pain	43.7			sub-033	250	33	41.3	43.7	COM11	COM15	COM3	2024-05-01_14h08.55.599	001-EEG_SVR_Officel	2022.2.5	143.72338423435298		6.567999999999984	1_sub-pilot033_SVR_EEG_block3-4.protocol.csv	step33	4199	416.782	STIMULATE	43.6	43.6	43.6	43.6	43.6	33	1272.7910000000002
1266.904	0	633452	20/Hi	4	2	0	2	0	15.0	0.0	15.0	0.0						1283.413259700057	1289.9905183000956	1289.9905183000956	5.0	['5', 'return']	[2.4251825000392273, 2.921416400000453]	6.57	5.26	3.0	20hz	high_pain	43.7			sub-033	250	33	41.3	43.7	COM11	COM15	COM3	2024-05-01_14h08.55.599	001-EEG_SVR_Officel	2022.2.5	143.72338423435298		5.261999999999944	1_sub-pilot033_SVR_EEG_block3-4.protocol.csv	step33	4199	416.782	STIMULATE	43.6	43.6	43.6	43.6	43.6	33	1272.7910000000002
1341.614	0	670807	wait	20	3	0	3	0	0.0	0.0	0.0	0.0				p	0.8697758000344038	1370.701636700076	1377.0288702000398	1377.0288702000398	2.0	['2', 'return']	[1.9857200999977067, 2.4992689999053255]	6.32	6.36	0.0	20hz	low_pain	41.3			sub-033	250	33	41.3	43.7	COM11	COM15	COM3	2024-05-01_14h08.55.599	001-EEG_SVR_Officel	2022.2.5	143.72338423435298		75.46000000000004	1_sub-pilot033_SVR_EEG_block3-4.protocol.csv	step35	5082	504.842	STIMULATE	41.3	41.1	41.1	41.1	41.2	35	1360.9
1347.928	0	673964	20hz	6	3	0	3	0	0.0	0.0	0.0	0.0				p	0.8697758000344038	1370.701636700076	1377.0288702000398	1377.0288702000398	2.0	['2', 'return']	[1.9857200999977067, 2.4992689999053255]	6.32	6.36	0.0	20hz	low_pain	41.3			sub-033	250	33	41.3	43.7	COM11	COM15	COM3	2024-05-01_14h08.55.599	001-EEG_SVR_Officel	2022.2.5	143.72338423435298		6.314000000000078	1_sub-pilot033_SVR_EEG_block3-4.protocol.csv	step35	5082	504.842	STIMULATE	41.3	41.1	41.1	41.1	41.2	35	1360.9
1355.036	0	677518	20/Lo	5	3	0	3	0	0.0	0.0	0.0	0.0				p	0.8697758000344038	1370.701636700076	1377.0288702000398	1377.0288702000398	2.0	['2', 'return']	[1.9857200999977067, 2.4992689999053255]	6.32	6.36	0.0	20hz	low_pain	41.3			sub-033	250	33	41.3	43.7	COM11	COM15	COM3	2024-05-01_14h08.55.599	001-EEG_SVR_Officel	2022.2.5	143.72338423435298		6.357999999999947	1_sub-pilot033_SVR_EEG_block3-4.protocol.csv	step35	5082	504.842	STIMULATE	41.3	41.1	41.1	41.1	41.2	35	1360.9
1363.454	0	681727	wait	20	3	0	3	0	1.0	0.0	1.0	0.0						1392.54473590001	1399.1228367000583	1399.1228367000583	2.0	['2', 'return']	[2.167145299958065, 2.7895164999645203]	6.57	5.32	1.0	40hz	low_pain	41.3			sub-033	250	33	41.3	43.7	COM11	COM15	COM3	2024-05-01_14h08.55.599	001-EEG_SVR_Officel	2022.2.5	143.72338423435298		9.167999999999893	1_sub-pilot033_SVR_EEG_block3-4.protocol.csv	step37	5295	525.954	STIMULATE	41.3	41.1	41.1	41.1	41.1	37	1382.012
1370.022	0	685011	40hz	9	3	0	3	0	1.0	0.0	1.0	0.0						1392.54473590001	1399.1228367000583	1399.1228367000583	2.0	['2', 'return']	[2.167145299958065, 2.7895164999645203]	6.57	5.32	1.0	40hz	low_pain	41.3			sub-033	250	33	41.3	43.7	COM11	COM15	COM3	2024-05-01_14h08.55.599	001-EEG_SVR_Officel	2022.2.5	143.72338423435298		6.567999999999984	1_sub-pilot033_SVR_EEG_block3-4.protocol.csv	step37	5295	525.954	STIMULATE	41.3	41.1	41.1	41.1	41.1	37	1382.012
1376.096	0	688048	40/Lo	8	3	0	3	0	1.0	0.0	1.0	0.0						1392.54473590001	1399.1228367000583	1399.1228367000583	2.0	['2', 'return']	[2.167145299958065, 2.7895164999645203]	6.57	5.32	1.0	40hz	low_pain	41.3			sub-033	250	33	41.3	43.7	COM11	COM15	COM3	2024-05-01_14h08.55.599	001-EEG_SVR_Officel	2022.2.5	143.72338423435298		5.324000000000069	1_sub-pilot033_SVR_EEG_block3-4.protocol.csv	step37	5295	525.954	STIMULATE	41.3	41.1	41.1	41.1	41.1	37	1382.012
1385.84	0	692920	wait	20	3	0	3	0	2.0	0.0	2.0	0.0						1414.9291773000732	1421.7079890000168	1421.7079890000168	5.0	['5', 'return']	[2.604557599988766, 3.205641399952583]	6.77	6.09	2.0	10hz	high_pain	43.7			sub-033	250	33	41.3	43.7	COM11	COM15	COM3	2024-05-01_14h08.55.599	001-EEG_SVR_Officel	2022.2.5	143.72338423435298		10.493999999999915	1_sub-pilot033_SVR_EEG_block3-4.protocol.csv	step39	5530	549.267	STIMULATE	43.7	43.6	43.6	43.6	43.6	39	1405.325
1392.606	0	696303	10hz	3	3	0	3	0	2.0	0.0	2.0	0.0						1414.9291773000732	1421.7079890000168	1421.7079890000168	5.0	['5', 'return']	[2.604557599988766, 3.205641399952583]	6.77	6.09	2.0	10hz	high_pain	43.7			sub-033	250	33	41.3	43.7	COM11	COM15	COM3	2024-05-01_14h08.55.599	001-EEG_SVR_Officel	2022.2.5	143.72338423435298		6.766000000000076	1_sub-pilot033_SVR_EEG_block3-4.protocol.csv	step39	5530	549.267	STIMULATE	43.7	43.6	43.6	43.6	43.6	39	1405.325
1399.444	0	699722	10/Hi	1	3	0	3	0	2.0	0.0	2.0	0.0						1414.9291773000732	1421.7079890000168	1421.7079890000168	5.0	['5', 'return']	[2.604557599988766, 3.205641399952583]	6.77	6.09	2.0	10hz	high_pain	43.7			sub-033	250	33	41.3	43.7	COM11	COM15	COM3	2024-05-01_14h08.55.599	001-EEG_SVR_Officel	2022.2.5	143.72338423435298		6.087999999999965	1_sub-pilot033_SVR_EEG_block3-4.protocol.csv	step39	5530	549.267	STIMULATE	43.7	43.6	43.6	43.6	43.6	39	1405.325
1408.834	0	704417	wait	20	3	0	3	0	3.0	0.0	3.0	0.0						1437.9244731999934	1445.5230611000443	1445.5230611000443	5.5	['5', 'a', '5', 'return']	[2.9807425000471994, 3.300136600038968, 3.484130800003186, 4.078354099998251]	7.59	5.43	3.0	40hz	high_pain	43.7			sub-033	250	33	41.3	43.7	COM11	COM15	COM3	2024-05-01_14h08.55.599	001-EEG_SVR_Officel	2022.2.5	143.72338423435298		10.1400000000001	1_sub-pilot033_SVR_EEG_block3-4.protocol.csv	step41	5764	572.455	STIMULATE	43.7	43.6	43.6	43.6	43.6	41	1428.5130000000001
1416.422	0	708211	40hz	9	3	0	3	0	3.0	0.0	3.0	0.0						1437.9244731999934	1445.5230611000443	1445.5230611000443	5.5	['5', 'a', '5', 'return']	[2.9807425000471994, 3.300136600038968, 3.484130800003186, 4.078354099998251]	7.59	5.43	3.0	40hz	high_pain	43.7			sub-033	250	33	41.3	43.7	COM11	COM15	COM3	2024-05-01_14h08.55.599	001-EEG_SVR_Officel	2022.2.5	143.72338423435298		7.587999999999965	1_sub-pilot033_SVR_EEG_block3-4.protocol.csv	step41	5764	572.455	STIMULATE	43.7	43.6	43.6	43.6	43.6	41	1428.5130000000001
1422.602	0	711301	40/Hi	7	3	0	3	0	3.0	0.0	3.0	0.0						1437.9244731999934	1445.5230611000443	1445.5230611000443	5.5	['5', 'a', '5', 'return']	[2.9807425000471994, 3.300136600038968, 3.484130800003186, 4.078354099998251]	7.59	5.43	3.0	40hz	high_pain	43.7			sub-033	250	33	41.3	43.7	COM11	COM15	COM3	2024-05-01_14h08.55.599	001-EEG_SVR_Officel	2022.2.5	143.72338423435298		5.430000000000064	1_sub-pilot033_SVR_EEG_block3-4.protocol.csv	step41	5764	572.455	STIMULATE	43.7	43.6	43.6	43.6	43.6	41	1428.5130000000001
1433.534	0	716767	wait	20	3	0	3	0	4.0	0.0	4.0	0.0						1462.6223360000877	1468.2409565000562	1468.2409565000562	2.0	['2', 'return']	[2.0384503999957815, 2.567441300023347]	5.61	5.08	0.0	10hz	low_pain	41.3			sub-033	250	33	41.3	43.7	COM11	COM15	COM3	2024-05-01_14h08.55.599	001-EEG_SVR_Officel	2022.2.5	143.72338423435298		11.682000000000016	1_sub-pilot033_SVR_EEG_block3-4.protocol.csv	step43	5990	594.86	STIMULATE	41.2	41.1	41.1	41.1	41.3	43	1450.9180000000001
1439.14	0	719570	10hz	3	3	0	3	0	4.0	0.0	4.0	0.0						1462.6223360000877	1468.2409565000562	1468.2409565000562	2.0	['2', 'return']	[2.0384503999957815, 2.567441300023347]	5.61	5.08	0.0	10hz	low_pain	41.3			sub-033	250	33	41.3	43.7	COM11	COM15	COM3	2024-05-01_14h08.55.599	001-EEG_SVR_Officel	2022.2.5	143.72338423435298		5.6059999999999945	1_sub-pilot033_SVR_EEG_block3-4.protocol.csv	step43	5990	594.86	STIMULATE	41.2	41.1	41.1	41.1	41.3	43	1450.9180000000001
1444.972	0	722486	10/Lo	2	3	0	3	0	4.0	0.0	4.0	0.0						1462.6223360000877	1468.2409565000562	1468.2409565000562	2.0	['2', 'return']	[2.0384503999957815, 2.567441300023347]	5.61	5.08	0.0	10hz	low_pain	41.3			sub-033	250	33	41.3	43.7	COM11	COM15	COM3	2024-05-01_14h08.55.599	001-EEG_SVR_Officel	2022.2.5	143.72338423435298		5.08199999999988	1_sub-pilot033_SVR_EEG_block3-4.protocol.csv	step43	5990	594.86	STIMULATE	41.2	41.1	41.1	41.1	41.3	43	1450.9180000000001
1454.73	0	727365	wait	20	3	0	3	0	5.0	0.0	5.0	0.0						1483.8187257000243	1489.8896027000155	1489.8896027000155	3.0	['3', 'return']	[2.5254058999707922, 3.174530499964021]	6.06	5.84	1.0	20hz	low_pain	41.3			sub-033	250	33	41.3	43.7	COM11	COM15	COM3	2024-05-01_14h08.55.599	001-EEG_SVR_Officel	2022.2.5	143.72338423435298		10.508000000000038	1_sub-pilot033_SVR_EEG_block3-4.protocol.csv	step45	6215	617.187	STIMULATE	41.1	41.1	41.1	41.1	41.2	45	1473.2450000000001
1460.79	0	730395	20hz	6	3	0	3	0	5.0	0.0	5.0	0.0						1483.8187257000243	1489.8896027000155	1489.8896027000155	3.0	['3', 'return']	[2.5254058999707922, 3.174530499964021]	6.06	5.84	1.0	20hz	low_pain	41.3			sub-033	250	33	41.3	43.7	COM11	COM15	COM3	2024-05-01_14h08.55.599	001-EEG_SVR_Officel	2022.2.5	143.72338423435298		6.059999999999945	1_sub-pilot033_SVR_EEG_block3-4.protocol.csv	step45	6215	617.187	STIMULATE	41.1	41.1	41.1	41.1	41.2	45	1473.2450000000001
1467.378	0	733689	20/Lo	5	3	0	3	0	5.0	0.0	5.0	0.0						1483.8187257000243	1489.8896027000155	1489.8896027000155	3.0	['3', 'return']	[2.5254058999707922, 3.174530499964021]	6.06	5.84	1.0	20hz	low_pain	41.3			sub-033	250	33	41.3	43.7	COM11	COM15	COM3	2024-05-01_14h08.55.599	001-EEG_SVR_Officel	2022.2.5	143.72338423435298		5.837999999999965	1_sub-pilot033_SVR_EEG_block3-4.protocol.csv	step45	6215	617.187	STIMULATE	41.1	41.1	41.1	41.1	41.2	45	1473.2450000000001
1476.996	0	738498	wait	20	3	0	3	0	6.0	0.0	6.0	0.0						1506.086162700085	1511.274013300077	1511.274013300077	5.5	['5', 'a', '5', 'return']	[3.0385704999789596, 3.214914800017141, 3.3827715000370517, 3.9663862000452355]	5.18	5.2	2.0	controle	high_pain	43.7			sub-033	250	33	41.3	43.7	COM11	COM15	COM3	2024-05-01_14h08.55.599	001-EEG_SVR_Officel	2022.2.5	143.72338423435298		10.368000000000166	1_sub-pilot033_SVR_EEG_block3-4.protocol.csv	step47	6425	637.931	STIMULATE	43.6	43.6	43.6	43.6	43.6	47	1493.989
1482.174	0	741087	CNhz	12	3	0	3	0	6.0	0.0	6.0	0.0						1506.086162700085	1511.274013300077	1511.274013300077	5.5	['5', 'a', '5', 'return']	[3.0385704999789596, 3.214914800017141, 3.3827715000370517, 3.9663862000452355]	5.18	5.2	2.0	controle	high_pain	43.7			sub-033	250	33	41.3	43.7	COM11	COM15	COM3	2024-05-01_14h08.55.599	001-EEG_SVR_Officel	2022.2.5	143.72338423435298		5.177999999999884	1_sub-pilot033_SVR_EEG_block3-4.protocol.csv	step47	6425	637.931	STIMULATE	43.6	43.6	43.6	43.6	43.6	47	1493.989
1488.124	0	744062	CN/Hi	10	3	0	3	0	6.0	0.0	6.0	0.0						1506.086162700085	1511.274013300077	1511.274013300077	5.5	['5', 'a', '5', 'return']	[3.0385704999789596, 3.214914800017141, 3.3827715000370517, 3.9663862000452355]	5.18	5.2	2.0	controle	high_pain	43.7			sub-033	250	33	41.3	43.7	COM11	COM15	COM3	2024-05-01_14h08.55.599	001-EEG_SVR_Officel	2022.2.5	143.72338423435298		5.2000000000000455	1_sub-pilot033_SVR_EEG_block3-4.protocol.csv	step47	6425	637.931	STIMULATE	43.6	43.6	43.6	43.6	43.6	47	1493.989
1499.166	0	749583	wait	20	3	0	3	0	7.0	0.0	7.0	0.0						1528.2557856000494	1536.2631009999895	1536.2631009999895	1.5	['1', 'a', '5', 'return']	[2.4804016000125557, 2.8326818000059575, 3.031964600086212, 3.608730199979618]	8.0	6.27	3.0	10hz	low_pain	41.3			sub-033	250	33	41.3	43.7	COM11	COM15	COM3	2024-05-01_14h08.55.599	001-EEG_SVR_Officel	2022.2.5	143.72338423435298		11.791999999999916	1_sub-pilot033_SVR_EEG_block3-4.protocol.csv	step49	6688	664.068	STIMULATE	41.2	41.1	41.1	41.1	41.1	49	1520.126
1507.16	0	753580	10hz	3	3	0	3	0	7.0	0.0	7.0	0.0						1528.2557856000494	1536.2631009999895	1536.2631009999895	1.5	['1', 'a', '5', 'return']	[2.4804016000125557, 2.8326818000059575, 3.031964600086212, 3.608730199979618]	8.0	6.27	3.0	10hz	low_pain	41.3			sub-033	250	33	41.3	43.7	COM11	COM15	COM3	2024-05-01_14h08.55.599	001-EEG_SVR_Officel	2022.2.5	143.72338423435298		7.994000000000142	1_sub-pilot033_SVR_EEG_block3-4.protocol.csv	step49	6688	664.068	STIMULATE	41.2	41.1	41.1	41.1	41.1	49	1520.126
1514.18	0	757090	10/Lo	2	3	0	3	0	7.0	0.0	7.0	0.0						1528.2557856000494	1536.2631009999895	1536.2631009999895	1.5	['1', 'a', '5', 'return']	[2.4804016000125557, 2.8326818000059575, 3.031964600086212, 3.608730199979618]	8.0	6.27	3.0	10hz	low_pain	41.3			sub-033	250	33	41.3	43.7	COM11	COM15	COM3	2024-05-01_14h08.55.599	001-EEG_SVR_Officel	2022.2.5	143.72338423435298		6.269999999999982	1_sub-pilot033_SVR_EEG_block3-4.protocol.csv	step49	6688	664.068	STIMULATE	41.2	41.1	41.1	41.1	41.1	49	1520.126
1523.8	0	761900	wait	20	3	0	3	0	8.0	0.0	8.0	0.0						1552.890018200036	1559.3005335000344	1559.3005335000344	6.5	['6', 'a', '5', 'return']	[2.459748600027524, 2.666762000066228, 3.5872581000439823, 4.179944399977103]	6.4	6.35	0.0	40hz	high_pain	43.7			sub-033	250	33	41.3	43.7	COM11	COM15	COM3	2024-05-01_14h08.55.599	001-EEG_SVR_Officel	2022.2.5	143.72338423435298		10.36999999999989	1_sub-pilot033_SVR_EEG_block3-4.protocol.csv	step51	6921	687.169	STIMULATE	43.6	43.6	43.6	43.6	43.8	51	1543.227
1530.2	0	765100	40hz	9	3	0	3	0	8.0	0.0	8.0	0.0						1552.890018200036	1559.3005335000344	1559.3005335000344	6.5	['6', 'a', '5', 'return']	[2.459748600027524, 2.666762000066228, 3.5872581000439823, 4.179944399977103]	6.4	6.35	0.0	40hz	high_pain	43.7			sub-033	250	33	41.3	43.7	COM11	COM15	COM3	2024-05-01_14h08.55.599	001-EEG_SVR_Officel	2022.2.5	143.72338423435298		6.400000000000091	1_sub-pilot033_SVR_EEG_block3-4.protocol.csv	step51	6921	687.169	STIMULATE	43.6	43.6	43.6	43.6	43.8	51	1543.227
1537.302	0	768651	40/Hi	7	3	0	3	0	8.0	0.0	8.0	0.0						1552.890018200036	1559.3005335000344	1559.3005335000344	6.5	['6', 'a', '5', 'return']	[2.459748600027524, 2.666762000066228, 3.5872581000439823, 4.179944399977103]	6.4	6.35	0.0	40hz	high_pain	43.7			sub-033	250	33	41.3	43.7	COM11	COM15	COM3	2024-05-01_14h08.55.599	001-EEG_SVR_Officel	2022.2.5	143.72338423435298		6.351999999999862	1_sub-pilot033_SVR_EEG_block3-4.protocol.csv	step51	6921	687.169	STIMULATE	43.6	43.6	43.6	43.6	43.8	51	1543.227
1547.4	0	773700	wait	20	3	0	3	0	9.0	0.0	9.0	0.0						1576.489521700074	1582.5880753000963	1582.5880753000963	6.0	['6', 'return']	[2.96338009997271, 3.6029721000231802]	6.09	5.52	1.0	10hz	high_pain	43.7			sub-033	250	33	41.3	43.7	COM11	COM15	COM3	2024-05-01_14h08.55.599	001-EEG_SVR_Officel	2022.2.5	143.72338423435298		10.848000000000184	1_sub-pilot033_SVR_EEG_block3-4.protocol.csv	step53	7148	709.629	STIMULATE	43.6	43.6	43.6	43.6	43.8	53	1565.6870000000001
1553.486	0	776743	10hz	3	3	0	3	0	9.0	0.0	9.0	0.0						1576.489521700074	1582.5880753000963	1582.5880753000963	6.0	['6', 'return']	[2.96338009997271, 3.6029721000231802]	6.09	5.52	1.0	10hz	high_pain	43.7			sub-033	250	33	41.3	43.7	COM11	COM15	COM3	2024-05-01_14h08.55.599	001-EEG_SVR_Officel	2022.2.5	143.72338423435298		6.086000000000013	1_sub-pilot033_SVR_EEG_block3-4.protocol.csv	step53	7148	709.629	STIMULATE	43.6	43.6	43.6	43.6	43.8	53	1565.6870000000001
1559.756	0	779878	10/Hi	1	3	0	3	0	9.0	0.0	9.0	0.0						1576.489521700074	1582.5880753000963	1582.5880753000963	6.0	['6', 'return']	[2.96338009997271, 3.6029721000231802]	6.09	5.52	1.0	10hz	high_pain	43.7			sub-033	250	33	41.3	43.7	COM11	COM15	COM3	2024-05-01_14h08.55.599	001-EEG_SVR_Officel	2022.2.5	143.72338423435298		5.519999999999982	1_sub-pilot033_SVR_EEG_block3-4.protocol.csv	step53	7148	709.629	STIMULATE	43.6	43.6	43.6	43.6	43.8	53	1565.6870000000001
1570.118	0	785059	wait	20	3	0	3	0	10.0	0.0	10.0	0.0						1599.2081097000046	1605.9379589000018	1605.9379589000018	6.5	['6', 'a', '5', 'return']	[2.67758140002843, 2.9413341999752447, 3.14898199995514, 3.757772699929774]	6.72	5.29	2.0	40hz	high_pain	43.7			sub-033	250	33	41.3	43.7	COM11	COM15	COM3	2024-05-01_14h08.55.599	001-EEG_SVR_Officel	2022.2.5	143.72338423435298		11.111999999999853	1_sub-pilot033_SVR_EEG_block3-4.protocol.csv	step55	7381	732.783	STIMULATE	43.8	43.6	43.6	43.6	43.6	55	1588.8410000000001
1576.834	0	788417	40hz	9	3	0	3	0	10.0	0.0	10.0	0.0						1599.2081097000046	1605.9379589000018	1605.9379589000018	6.5	['6', 'a', '5', 'return']	[2.67758140002843, 2.9413341999752447, 3.14898199995514, 3.757772699929774]	6.72	5.29	2.0	40hz	high_pain	43.7			sub-033	250	33	41.3	43.7	COM11	COM15	COM3	2024-05-01_14h08.55.599	001-EEG_SVR_Officel	2022.2.5	143.72338423435298		6.716000000000122	1_sub-pilot033_SVR_EEG_block3-4.protocol.csv	step55	7381	732.783	STIMULATE	43.8	43.6	43.6	43.6	43.6	55	1588.8410000000001
1582.876	0	791438	40/Hi	7	3	0	3	0	10.0	0.0	10.0	0.0						1599.2081097000046	1605.9379589000018	1605.9379589000018	6.5	['6', 'a', '5', 'return']	[2.67758140002843, 2.9413341999752447, 3.14898199995514, 3.757772699929774]	6.72	5.29	2.0	40hz	high_pain	43.7			sub-033	250	33	41.3	43.7	COM11	COM15	COM3	2024-05-01_14h08.55.599	001-EEG_SVR_Officel	2022.2.5	143.72338423435298		5.291999999999916	1_sub-pilot033_SVR_EEG_block3-4.protocol.csv	step55	7381	732.783	STIMULATE	43.8	43.6	43.6	43.6	43.6	55	1588.8410000000001
1593.614	0	796807	wait	20	3	0	3	0	11.0	0.0	11.0	0.0						1622.7048212999944	1628.1146110000554	1628.1146110000554	5.0	['5', 'return']	[2.645643900032155, 3.2301451000384986]	5.4	5.24	3.0	controle	low_pain	41.3			sub-033	250	33	41.3	43.7	COM11	COM15	COM3	2024-05-01_14h08.55.599	001-EEG_SVR_Officel	2022.2.5	143.72338423435298		11.488000000000056	1_sub-pilot033_SVR_EEG_block3-4.protocol.csv	step57	7604	754.903	STIMULATE	41.2	41.1	41.1	41.1	41.1	57	1610.961
1599.014	0	799507	CNhz	12	3	0	3	0	11.0	0.0	11.0	0.0						1622.7048212999944	1628.1146110000554	1628.1146110000554	5.0	['5', 'return']	[2.645643900032155, 3.2301451000384986]	5.4	5.24	3.0	controle	low_pain	41.3			sub-033	250	33	41.3	43.7	COM11	COM15	COM3	2024-05-01_14h08.55.599	001-EEG_SVR_Officel	2022.2.5	143.72338423435298		5.399999999999864	1_sub-pilot033_SVR_EEG_block3-4.protocol.csv	step57	7604	754.903	STIMULATE	41.2	41.1	41.1	41.1	41.1	57	1610.961
1605.004	0	802502	CN/Lo	11	3	0	3	0	11.0	0.0	11.0	0.0						1622.7048212999944	1628.1146110000554	1628.1146110000554	5.0	['5', 'return']	[2.645643900032155, 3.2301451000384986]	5.4	5.24	3.0	controle	low_pain	41.3			sub-033	250	33	41.3	43.7	COM11	COM15	COM3	2024-05-01_14h08.55.599	001-EEG_SVR_Officel	2022.2.5	143.72338423435298		5.240000000000009	1_sub-pilot033_SVR_EEG_block3-4.protocol.csv	step57	7604	754.903	STIMULATE	41.2	41.1	41.1	41.1	41.1	57	1610.961
1615.284	0	807642	wait	20	3	0	3	0	12.0	0.0	12.0	0.0						1644.373614600045	1651.5406988000032	1651.5406988000032	5.5	['5', 'a', '5', 'return']	[2.434810100006871, 2.7549159000627697, 2.9383976000826806, 3.530610500019975]	7.16	6.37	0.0	10hz	high_pain	43.7			sub-033	250	33	41.3	43.7	COM11	COM15	COM3	2024-05-01_14h08.55.599	001-EEG_SVR_Officel	2022.2.5	143.72338423435298		11.0300000000002	1_sub-pilot033_SVR_EEG_block3-4.protocol.csv	step59	7849	779.495	STIMULATE	43.7	43.6	43.6	43.6	43.8	59	1635.553
1622.438	0	811219	10hz	3	3	0	3	0	12.0	0.0	12.0	0.0						1644.373614600045	1651.5406988000032	1651.5406988000032	5.5	['5', 'a', '5', 'return']	[2.434810100006871, 2.7549159000627697, 2.9383976000826806, 3.530610500019975]	7.16	6.37	0.0	10hz	high_pain	43.7			sub-033	250	33	41.3	43.7	COM11	COM15	COM3	2024-05-01_14h08.55.599	001-EEG_SVR_Officel	2022.2.5	143.72338423435298		7.153999999999996	1_sub-pilot033_SVR_EEG_block3-4.protocol.csv	step59	7849	779.495	STIMULATE	43.7	43.6	43.6	43.6	43.8	59	1635.553
1629.562	0	814781	10/Hi	1	3	0	3	0	12.0	0.0	12.0	0.0						1644.373614600045	1651.5406988000032	1651.5406988000032	5.5	['5', 'a', '5', 'return']	[2.434810100006871, 2.7549159000627697, 2.9383976000826806, 3.530610500019975]	7.16	6.37	0.0	10hz	high_pain	43.7			sub-033	250	33	41.3	43.7	COM11	COM15	COM3	2024-05-01_14h08.55.599	001-EEG_SVR_Officel	2022.2.5	143.72338423435298		6.373999999999796	1_sub-pilot033_SVR_EEG_block3-4.protocol.csv	step59	7849	779.495	STIMULATE	43.7	43.6	43.6	43.6	43.8	59	1635.553
1639.0	0	819500	wait	20	3	0	3	0	13.0	0.0	13.0	0.0						1668.091281000059	1674.57829580002	1674.57829580002	5.0	['5', 'return']	[2.3711793000111356, 3.003242600010708]	6.48	5.32	1.0	40hz	high_pain	43.7			sub-033	250	33	41.3	43.7	COM11	COM15	COM3	2024-05-01_14h08.55.599	001-EEG_SVR_Officel	2022.2.5	143.72338423435298		10.188000000000102	1_sub-pilot033_SVR_EEG_block3-4.protocol.csv	step61	8062	801.392	STIMULATE	43.6	43.6	43.6	43.6	43.8	61	1657.45
1645.476	0	822738	40hz	9	3	0	3	0	13.0	0.0	13.0	0.0						1668.091281000059	1674.57829580002	1674.57829580002	5.0	['5', 'return']	[2.3711793000111356, 3.003242600010708]	6.48	5.32	1.0	40hz	high_pain	43.7			sub-033	250	33	41.3	43.7	COM11	COM15	COM3	2024-05-01_14h08.55.599	001-EEG_SVR_Officel	2022.2.5	143.72338423435298		6.476000000000113	1_sub-pilot033_SVR_EEG_block3-4.protocol.csv	step61	8062	801.392	STIMULATE	43.6	43.6	43.6	43.6	43.8	61	1657.45
1651.544	0	825772	40/Hi	7	3	0	3	0	13.0	0.0	13.0	0.0						1668.091281000059	1674.57829580002	1674.57829580002	5.0	['5', 'return']	[2.3711793000111356, 3.003242600010708]	6.48	5.32	1.0	40hz	high_pain	43.7			sub-033	250	33	41.3	43.7	COM11	COM15	COM3	2024-05-01_14h08.55.599	001-EEG_SVR_Officel	2022.2.5	143.72338423435298		5.317999999999984	1_sub-pilot033_SVR_EEG_block3-4.protocol.csv	step61	8062	801.392	STIMULATE	43.6	43.6	43.6	43.6	43.8	61	1657.45
1661.504	0	830752	wait	20	3	0	3	0	14.0	0.0	14.0	0.0						1690.5930025000123	1695.8792855000356	1695.8792855000356	2.0	['2', 'return']	[2.3525207999628037, 3.1997657000320032]	5.28	5.36	2.0	10hz	low_pain	41.3			sub-033	250	33	41.3	43.7	COM11	COM15	COM3	2024-05-01_14h08.55.599	001-EEG_SVR_Officel	2022.2.5	143.72338423435298		10.709999999999809	1_sub-pilot033_SVR_EEG_block3-4.protocol.csv	step63	8269	822.813	STIMULATE	41.2	41.1	41.1	41.1	41.2	63	1678.871
1666.776	0	833388	10hz	3	3	0	3	0	14.0	0.0	14.0	0.0						1690.5930025000123	1695.8792855000356	1695.8792855000356	2.0	['2', 'return']	[2.3525207999628037, 3.1997657000320032]	5.28	5.36	2.0	10hz	low_pain	41.3			sub-033	250	33	41.3	43.7	COM11	COM15	COM3	2024-05-01_14h08.55.599	001-EEG_SVR_Officel	2022.2.5	143.72338423435298		5.272000000000162	1_sub-pilot033_SVR_EEG_block3-4.protocol.csv	step63	8269	822.813	STIMULATE	41.2	41.1	41.1	41.1	41.2	63	1678.871
1672.886	0	836443	10/Lo	2	3	0	3	0	14.0	0.0	14.0	0.0						1690.5930025000123	1695.8792855000356	1695.8792855000356	2.0	['2', 'return']	[2.3525207999628037, 3.1997657000320032]	5.28	5.36	2.0	10hz	low_pain	41.3			sub-033	250	33	41.3	43.7	COM11	COM15	COM3	2024-05-01_14h08.55.599	001-EEG_SVR_Officel	2022.2.5	143.72338423435298		5.3599999999999	1_sub-pilot033_SVR_EEG_block3-4.protocol.csv	step63	8269	822.813	STIMULATE	41.2	41.1	41.1	41.1	41.2	63	1678.871
1683.006	0	841503	wait	20	3	0	3	0	15.0	0.0	15.0	0.0						1712.0966039000778	1719.1183282000711	1719.1183282000711	1.5	['1', 'a', '5', 'return']	[4.073788000037894, 4.289232400013134, 4.761112099979073, 5.265616200049408]	7.01	6.13	3.0	40hz	low_pain	41.3			sub-033	250	33	41.3	43.7	COM11	COM15	COM3	2024-05-01_14h08.55.599	001-EEG_SVR_Officel	2022.2.5	143.72338423435298		10.870000000000118	1_sub-pilot033_SVR_EEG_block3-4.protocol.csv	step65	8499	846.812	STIMULATE	41.2	41.1	41.1	41.1	41.2	65	1702.8700000000001
1690.016	0	845008	40hz	9	3	0	3	0	15.0	0.0	15.0	0.0						1712.0966039000778	1719.1183282000711	1719.1183282000711	1.5	['1', 'a', '5', 'return']	[4.073788000037894, 4.289232400013134, 4.761112099979073, 5.265616200049408]	7.01	6.13	3.0	40hz	low_pain	41.3			sub-033	250	33	41.3	43.7	COM11	COM15	COM3	2024-05-01_14h08.55.599	001-EEG_SVR_Officel	2022.2.5	143.72338423435298		7.009999999999991	1_sub-pilot033_SVR_EEG_block3-4.protocol.csv	step65	8499	846.812	STIMULATE	41.2	41.1	41.1	41.1	41.2	65	1702.8700000000001
1696.896	0	848448	40/Lo	8	3	0	3	0	15.0	0.0	15.0	0.0						1712.0966039000778	1719.1183282000711	1719.1183282000711	1.5	['1', 'a', '5', 'return']	[4.073788000037894, 4.289232400013134, 4.761112099979073, 5.265616200049408]	7.01	6.13	3.0	40hz	low_pain	41.3			sub-033	250	33	41.3	43.7	COM11	COM15	COM3	2024-05-01_14h08.55.599	001-EEG_SVR_Officel	2022.2.5	143.72338423435298		6.129999999999882	1_sub-pilot033_SVR_EEG_block3-4.protocol.csv	step65	8499	846.812	STIMULATE	41.2	41.1	41.1	41.1	41.2	65	1702.8700000000001
1793.962	0	896981	wait	20	4	0	4	0	0.0	0.0	0.0	0.0				p	0.3079801000421867	1823.052999900072	1828.4299343000168	1828.4299343000168	4.0	['4', 'return']	[1.5865111999446526, 2.2259839000180364]	5.37	6.39	0.0	controle	high_pain	43.7			sub-033	250	33	41.3	43.7	COM11	COM15	COM3	2024-05-01_14h08.55.599	001-EEG_SVR_Officel	2022.2.5	143.72338423435298		97.81600000000003	2_sub-pilot033_SVR_EEG_block5-6.protocol.csv	step3	941	93.963	STIMULATE	43.8	43.6	43.6	43.6	43.6	3	1812.2939999999999
1799.326	0	899663	CNhz	12	4	0	4	0	0.0	0.0	0.0	0.0				p	0.3079801000421867	1823.052999900072	1828.4299343000168	1828.4299343000168	4.0	['4', 'return']	[1.5865111999446526, 2.2259839000180364]	5.37	6.39	0.0	controle	high_pain	43.7			sub-033	250	33	41.3	43.7	COM11	COM15	COM3	2024-05-01_14h08.55.599	001-EEG_SVR_Officel	2022.2.5	143.72338423435298		5.364000000000033	2_sub-pilot033_SVR_EEG_block5-6.protocol.csv	step3	941	93.963	STIMULATE	43.8	43.6	43.6	43.6	43.6	3	1812.2939999999999
1806.472	0	903236	CN/Hi	10	4	0	4	0	0.0	0.0	0.0	0.0				p	0.3079801000421867	1823.052999900072	1828.4299343000168	1828.4299343000168	4.0	['4', 'return']	[1.5865111999446526, 2.2259839000180364]	5.37	6.39	0.0	controle	high_pain	43.7			sub-033	250	33	41.3	43.7	COM11	COM15	COM3	2024-05-01_14h08.55.599	001-EEG_SVR_Officel	2022.2.5	143.72338423435298		6.395999999999958	2_sub-pilot033_SVR_EEG_block5-6.protocol.csv	step3	941	93.963	STIMULATE	43.8	43.6	43.6	43.6	43.6	3	1812.2939999999999
1814.584	0	907292	wait	20	4	0	4	0	1.0	0.0	1.0	0.0						1843.6747991000304	1849.0852899000747	1849.0852899000747	6.0	['6', 'return']	[2.330807299935259, 2.923331799916923]	5.4	5.14	1.0	controle	high_pain	43.7			sub-033	250	33	41.3	43.7	COM11	COM15	COM3	2024-05-01_14h08.55.599	001-EEG_SVR_Officel	2022.2.5	143.72338423435298		8.86200000000008	2_sub-pilot033_SVR_EEG_block5-6.protocol.csv	step5	1138	113.417	STIMULATE	43.7	43.6	43.6	43.6	43.6	5	1831.748
1819.982	0	909991	CNhz	12	4	0	4	0	1.0	0.0	1.0	0.0						1843.6747991000304	1849.0852899000747	1849.0852899000747	6.0	['6', 'return']	[2.330807299935259, 2.923331799916923]	5.4	5.14	1.0	controle	high_pain	43.7			sub-033	250	33	41.3	43.7	COM11	COM15	COM3	2024-05-01_14h08.55.599	001-EEG_SVR_Officel	2022.2.5	143.72338423435298		5.397999999999911	2_sub-pilot033_SVR_EEG_block5-6.protocol.csv	step5	1138	113.417	STIMULATE	43.7	43.6	43.6	43.6	43.6	5	1831.748
1825.876	0	912938	CN/Hi	10	4	0	4	0	1.0	0.0	1.0	0.0						1843.6747991000304	1849.0852899000747	1849.0852899000747	6.0	['6', 'return']	[2.330807299935259, 2.923331799916923]	5.4	5.14	1.0	controle	high_pain	43.7			sub-033	250	33	41.3	43.7	COM11	COM15	COM3	2024-05-01_14h08.55.599	001-EEG_SVR_Officel	2022.2.5	143.72338423435298		5.1440000000000055	2_sub-pilot033_SVR_EEG_block5-6.protocol.csv	step5	1138	113.417	STIMULATE	43.7	43.6	43.6	43.6	43.6	5	1831.748
1835.934	0	917967	wait	20	4	0	4	0	2.0	0.0	2.0	0.0						1865.0251800999977	1872.4213925000515	1872.4213925000515	5.0	['5', 'return']	[3.9136337999952957, 4.657704300014302]	7.39	5.03	2.0	20hz	high_pain	43.7			sub-033	250	33	41.3	43.7	COM11	COM15	COM3	2024-05-01_14h08.55.599	001-EEG_SVR_Officel	2022.2.5	143.72338423435298		10.807999999999993	2_sub-pilot033_SVR_EEG_block5-6.protocol.csv	step7	1372	136.619	STIMULATE	43.7	43.6	43.6	43.6	43.6	7	1854.95
1843.318	0	921659	20hz	6	4	0	4	0	2.0	0.0	2.0	0.0						1865.0251800999977	1872.4213925000515	1872.4213925000515	5.0	['5', 'return']	[3.9136337999952957, 4.657704300014302]	7.39	5.03	2.0	20hz	high_pain	43.7			sub-033	250	33	41.3	43.7	COM11	COM15	COM3	2024-05-01_14h08.55.599	001-EEG_SVR_Officel	2022.2.5	143.72338423435298		7.3840000000000146	2_sub-pilot033_SVR_EEG_block5-6.protocol.csv	step7	1372	136.619	STIMULATE	43.7	43.6	43.6	43.6	43.6	7	1854.95
1849.102	0	924551	20/Hi	4	4	0	4	0	2.0	0.0	2.0	0.0						1865.0251800999977	1872.4213925000515	1872.4213925000515	5.0	['5', 'return']	[3.9136337999952957, 4.657704300014302]	7.39	5.03	2.0	20hz	high_pain	43.7			sub-033	250	33	41.3	43.7	COM11	COM15	COM3	2024-05-01_14h08.55.599	001-EEG_SVR_Officel	2022.2.5	143.72338423435298		5.0340000000001055	2_sub-pilot033_SVR_EEG_block5-6.protocol.csv	step7	1372	136.619	STIMULATE	43.7	43.6	43.6	43.6	43.6	7	1854.95
1861.006	0	930503	wait	20	4	0	4	0	3.0	0.0	3.0	0.0						1890.0974800999973	1896.0616838000717	1896.0616838000717	4.5	['4', 'a', '5', 'return']	[2.7536866000154987, 3.0329576999647543, 3.233986399951391, 4.034599300008267]	5.96	6.46	3.0	20hz	low_pain	41.3			sub-033	250	33	41.3	43.7	COM11	COM15	COM3	2024-05-01_14h08.55.599	001-EEG_SVR_Officel	2022.2.5	143.72338423435298		12.653999999999996	2_sub-pilot033_SVR_EEG_block5-6.protocol.csv	step9	1624	161.614	STIMULATE	41.1	41.1	41.1	41.1	41.2	9	1879.945
1866.964	0	933482	20hz	6	4	0	4	0	3.0	0.0	3.0	0.0						1890.0974800999973	1896.0616838000717	1896.0616838000717	4.5	['4', 'a', '5', 'return']	[2.7536866000154987, 3.0329576999647543, 3.233986399951391, 4.034599300008267]	5.96	6.46	3.0	20hz	low_pain	41.3			sub-033	250	33	41.3	43.7	COM11	COM15	COM3	2024-05-01_14h08.55.599	001-EEG_SVR_Officel	2022.2.5	143.72338423435298		5.957999999999856	2_sub-pilot033_SVR_EEG_block5-6.protocol.csv	step9	1624	161.614	STIMULATE	41.1	41.1	41.1	41.1	41.2	9	1879.945
1874.174	0	937087	20/Lo	5	4	0	4	0	3.0	0.0	3.0	0.0						1890.0974800999973	1896.0616838000717	1896.0616838000717	4.5	['4', 'a', '5', 'return']	[2.7536866000154987, 3.0329576999647543, 3.233986399951391, 4.034599300008267]	5.96	6.46	3.0	20hz	low_pain	41.3			sub-033	250	33	41.3	43.7	COM11	COM15	COM3	2024-05-01_14h08.55.599	001-EEG_SVR_Officel	2022.2.5	143.72338423435298		6.460000000000036	2_sub-pilot033_SVR_EEG_block5-6.protocol.csv	step9	1624	161.614	STIMULATE	41.1	41.1	41.1	41.1	41.2	9	1879.945
1884.022	0	942011	wait	20	4	0	4	0	4.0	0.0	4.0	0.0						1913.1145997000856	1918.6214304000605	1918.6214304000605	4.0	['4', 'return']	[2.9065385999856517, 3.649628799990751]	5.5	5.23	0.0	20hz	high_pain	43.7			sub-033	250	33	41.3	43.7	COM11	COM15	COM3	2024-05-01_14h08.55.599	001-EEG_SVR_Officel	2022.2.5	143.72338423435298		10.597999999999956	2_sub-pilot033_SVR_EEG_block5-6.protocol.csv	step11	1840	183.057	STIMULATE	43.7	43.6	43.6	43.6	43.7	11	1901.388
1889.518	0	944759	20hz	6	4	0	4	0	4.0	0.0	4.0	0.0						1913.1145997000856	1918.6214304000605	1918.6214304000605	4.0	['4', 'return']	[2.9065385999856517, 3.649628799990751]	5.5	5.23	0.0	20hz	high_pain	43.7			sub-033	250	33	41.3	43.7	COM11	COM15	COM3	2024-05-01_14h08.55.599	001-EEG_SVR_Officel	2022.2.5	143.72338423435298		5.496000000000095	2_sub-pilot033_SVR_EEG_block5-6.protocol.csv	step11	1840	183.057	STIMULATE	43.7	43.6	43.6	43.6	43.7	11	1901.388
1895.502	0	947751	20/Hi	4	4	0	4	0	4.0	0.0	4.0	0.0						1913.1145997000856	1918.6214304000605	1918.6214304000605	4.0	['4', 'return']	[2.9065385999856517, 3.649628799990751]	5.5	5.23	0.0	20hz	high_pain	43.7			sub-033	250	33	41.3	43.7	COM11	COM15	COM3	2024-05-01_14h08.55.599	001-EEG_SVR_Officel	2022.2.5	143.72338423435298		5.233999999999924	2_sub-pilot033_SVR_EEG_block5-6.protocol.csv	step11	1840	183.057	STIMULATE	43.7	43.6	43.6	43.6	43.7	11	1901.388
1906.19	0	953095	wait	20	4	0	4	0	5.0	0.0	5.0	0.0						1935.282652800088	1940.6517109000124	1940.6517109000124	2.0	['2', 'return']	[2.66774229996372, 3.3074756000423804]	5.36	5.14	1.0	10hz	low_pain	41.3			sub-033	250	33	41.3	43.7	COM11	COM15	COM3	2024-05-01_14h08.55.599	001-EEG_SVR_Officel	2022.2.5	143.72338423435298		11.438000000000102	2_sub-pilot033_SVR_EEG_block5-6.protocol.csv	step13	2061	204.972	STIMULATE	41.2	41.1	41.1	41.1	41.2	13	1923.3029999999999
1911.548	0	955774	10hz	3	4	0	4	0	5.0	0.0	5.0	0.0						1935.282652800088	1940.6517109000124	1940.6517109000124	2.0	['2', 'return']	[2.66774229996372, 3.3074756000423804]	5.36	5.14	1.0	10hz	low_pain	41.3			sub-033	250	33	41.3	43.7	COM11	COM15	COM3	2024-05-01_14h08.55.599	001-EEG_SVR_Officel	2022.2.5	143.72338423435298		5.357999999999947	2_sub-pilot033_SVR_EEG_block5-6.protocol.csv	step13	2061	204.972	STIMULATE	41.2	41.1	41.1	41.1	41.2	13	1923.3029999999999
1917.442	0	958721	10/Lo	2	4	0	4	0	5.0	0.0	5.0	0.0						1935.282652800088	1940.6517109000124	1940.6517109000124	2.0	['2', 'return']	[2.66774229996372, 3.3074756000423804]	5.36	5.14	1.0	10hz	low_pain	41.3			sub-033	250	33	41.3	43.7	COM11	COM15	COM3	2024-05-01_14h08.55.599	001-EEG_SVR_Officel	2022.2.5	143.72338423435298		5.1440000000000055	2_sub-pilot033_SVR_EEG_block5-6.protocol.csv	step13	2061	204.972	STIMULATE	41.2	41.1	41.1	41.1	41.2	13	1923.3029999999999
1927.888	0	963944	wait	20	4	0	4	0	6.0	0.0	6.0	0.0						1956.9800436000803	1963.8974987000693	1963.8974987000693	3.5	['3', 'a', '5', 'return']	[2.989305599941872, 3.2216373999835923, 3.4867380999494344, 4.221894699963741]	6.91	6.4	2.0	controle	low_pain	41.3			sub-033	250	33	41.3	43.7	COM11	COM15	COM3	2024-05-01_14h08.55.599	001-EEG_SVR_Officel	2022.2.5	143.72338423435298		11.195999999999913	2_sub-pilot033_SVR_EEG_block5-6.protocol.csv	step15	2309	229.565	STIMULATE	41.3	41.1	41.1	41.1	41.2	15	1947.896
