onset	duration	sample	trial_type	value	block.thisRepN	block.thisTrialN	block.thisN	block.thisIndex	reps.thisRepN	reps.thisTrialN	reps.thisN	reps.thisIndex	afrec_start	rec_start	rec_start_egi	key_resp.keys	key_resp.rt	wait_time_text.started	wait_time_text.stopped	therm_loca_text.started	subResponse	keyResp.keys	keyResp.rt	ITI_wait	wait_trigger	loca_thermode	Hz_condition	temp_condition	temp_valeur	text.started	text.stopped	participant	brightness	num_part	low	high	com_svr	com_thermode	com_eeg	date	expName	psychopyVersion	frameRate	Unnamed: 39	distance_from_previous	file	step	index	time	type	temp1	temp2	temp3	temp4	temp5	step_num	time_sync
5.952	0	2976	wait	21	0	0	0	0	0.0	0.0	0.0	0.0	219.4016148000001	219.00147629999992	1698417061.5104764	p	5.615033500000209	225.04606590000003	231.95521830000047	231.95521830000047	5.0	['5', 'return']	[2.915487799999937, 3.5707456999998612]	6.9	5.83	0.0	20hz	high_pain	45.5			sub-pilot013	250	13	43	45.5	COM11	COM7	COM3	2023-10-27_10h29.06.539	001-EEG_SVR_Officel	2022.2.5	143.80212827063897		5.952	0_sub-pilot013_SVR_EEG_block1-2.protocol.csv	step3	1603	160.164	STIMULATE	45.7	45.4	45.4	45.4	45.5	3	25.199999999999974
12.758	0	6379	20hz	6	0	0	0	0	0.0	0.0	0.0	0.0	219.4016148000001	219.00147629999992	1698417061.5104764	p	5.615033500000209	225.04606590000003	231.95521830000047	231.95521830000047	5.0	['5', 'return']	[2.915487799999937, 3.5707456999998612]	6.9	5.83	0.0	20hz	high_pain	45.5			sub-pilot013	250	13	43	45.5	COM11	COM7	COM3	2023-10-27_10h29.06.539	001-EEG_SVR_Officel	2022.2.5	143.80212827063897		6.805999999999999	0_sub-pilot013_SVR_EEG_block1-2.protocol.csv	step3	1603	160.164	STIMULATE	45.7	45.4	45.4	45.4	45.5	3	25.199999999999974
19.342	0	9671	20/Hi	4	0	0	0	0	0.0	0.0	0.0	0.0	219.4016148000001	219.00147629999992	1698417061.5104764	p	5.615033500000209	225.04606590000003	231.95521830000047	231.95521830000047	5.0	['5', 'return']	[2.915487799999937, 3.5707456999998612]	6.9	5.83	0.0	20hz	high_pain	45.5			sub-pilot013	250	13	43	45.5	COM11	COM7	COM3	2023-10-27_10h29.06.539	001-EEG_SVR_Officel	2022.2.5	143.80212827063897		5.834	0_sub-pilot013_SVR_EEG_block1-2.protocol.csv	step3	1603	160.164	STIMULATE	45.7	45.4	45.4	45.4	45.5	3	25.199999999999974
29.364	0	14682	wait	21	0	0	0	0	1.0	0.0	1.0	0.0						248.54739859999967	254.0341644	254.0341644	2.0	['2', 'return']	[2.5718415000001187, 3.1727977999998984]	5.48	6.0	1.0	controle	low_pain	43.0			sub-pilot013	250	13	43	45.5	COM11	COM7	COM3	2023-10-27_10h29.06.539	001-EEG_SVR_Officel	2022.2.5	143.80212827063897		10.772000000000002	0_sub-pilot013_SVR_EEG_block1-2.protocol.csv	step5	1828	182.43	STIMULATE	42.9	42.9	42.8	42.9	42.9	5	47.465999999999994
34.838	0	17419	CNhz	12	0	0	0	0	1.0	0.0	1.0	0.0						248.54739859999967	254.0341644	254.0341644	2.0	['2', 'return']	[2.5718415000001187, 3.1727977999998984]	5.48	6.0	1.0	controle	low_pain	43.0			sub-pilot013	250	13	43	45.5	COM11	COM7	COM3	2023-10-27_10h29.06.539	001-EEG_SVR_Officel	2022.2.5	143.80212827063897		5.474	0_sub-pilot013_SVR_EEG_block1-2.protocol.csv	step5	1828	182.43	STIMULATE	42.9	42.9	42.8	42.9	42.9	5	47.465999999999994
41.586	0	20793	CN/Lo	11	0	0	0	0	1.0	0.0	1.0	0.0						248.54739859999967	254.0341644	254.0341644	2.0	['2', 'return']	[2.5718415000001187, 3.1727977999998984]	5.48	6.0	1.0	controle	low_pain	43.0			sub-pilot013	250	13	43	45.5	COM11	COM7	COM3	2023-10-27_10h29.06.539	001-EEG_SVR_Officel	2022.2.5	143.80212827063897		5.9979999999999976	0_sub-pilot013_SVR_EEG_block1-2.protocol.csv	step5	1828	182.43	STIMULATE	42.9	42.9	42.8	42.9	42.9	5	47.465999999999994
51.038	0	25519	wait	21	0	0	0	0	2.0	0.0	2.0	0.0						270.22359359999973	276.5646595999997	276.5646595999997	6.0	['6', 'return']	[3.369178400000237, 3.9217241000005743]	6.33	5.35	2.0	controle	high_pain	45.5			sub-pilot013	250	13	43	45.5	COM11	COM7	COM3	2023-10-27_10h29.06.539	001-EEG_SVR_Officel	2022.2.5	143.80212827063897		10.201999999999998	0_sub-pilot013_SVR_EEG_block1-2.protocol.csv	step7	2049	204.346	STIMULATE	45.5	45.4	45.4	45.4	45.5	7	69.38199999999999
57.368	0	28684	CNhz	12	0	0	0	0	2.0	0.0	2.0	0.0						270.22359359999973	276.5646595999997	276.5646595999997	6.0	['6', 'return']	[3.369178400000237, 3.9217241000005743]	6.33	5.35	2.0	controle	high_pain	45.5			sub-pilot013	250	13	43	45.5	COM11	COM7	COM3	2023-10-27_10h29.06.539	001-EEG_SVR_Officel	2022.2.5	143.80212827063897		6.330000000000005	0_sub-pilot013_SVR_EEG_block1-2.protocol.csv	step7	2049	204.346	STIMULATE	45.5	45.4	45.4	45.4	45.5	7	69.38199999999999
63.472	0	31736	CN/Hi	10	0	0	0	0	2.0	0.0	2.0	0.0						270.22359359999973	276.5646595999997	276.5646595999997	6.0	['6', 'return']	[3.369178400000237, 3.9217241000005743]	6.33	5.35	2.0	controle	high_pain	45.5			sub-pilot013	250	13	43	45.5	COM11	COM7	COM3	2023-10-27_10h29.06.539	001-EEG_SVR_Officel	2022.2.5	143.80212827063897		5.353999999999999	0_sub-pilot013_SVR_EEG_block1-2.protocol.csv	step7	2049	204.346	STIMULATE	45.5	45.4	45.4	45.4	45.5	7	69.38199999999999
74.32	0	37160	wait	21	0	0	0	0	3.0	0.0	3.0	0.0						293.50430380000034	300.3321848000005	300.3321848000005	4.0	['4', 'return']	[3.858002199999646, 4.763514899999791]	6.82	5.05	3.0	10hz	low_pain	43.0			sub-pilot013	250	13	43	45.5	COM11	COM7	COM3	2023-10-27_10h29.06.539	001-EEG_SVR_Officel	2022.2.5	143.80212827063897		11.597999999999992	0_sub-pilot013_SVR_EEG_block1-2.protocol.csv	step9	2285	227.768	STIMULATE	42.9	42.8	42.8	42.9	42.9	9	92.80399999999999
81.136	0	40568	10hz	3	0	0	0	0	3.0	0.0	3.0	0.0						293.50430380000034	300.3321848000005	300.3321848000005	4.0	['4', 'return']	[3.858002199999646, 4.763514899999791]	6.82	5.05	3.0	10hz	low_pain	43.0			sub-pilot013	250	13	43	45.5	COM11	COM7	COM3	2023-10-27_10h29.06.539	001-EEG_SVR_Officel	2022.2.5	143.80212827063897		6.8160000000000025	0_sub-pilot013_SVR_EEG_block1-2.protocol.csv	step9	2285	227.768	STIMULATE	42.9	42.8	42.8	42.9	42.9	9	92.80399999999999
86.934	0	43467	10/Lo	2	0	0	0	0	3.0	0.0	3.0	0.0						293.50430380000034	300.3321848000005	300.3321848000005	4.0	['4', 'return']	[3.858002199999646, 4.763514899999791]	6.82	5.05	3.0	10hz	low_pain	43.0			sub-pilot013	250	13	43	45.5	COM11	COM7	COM3	2023-10-27_10h29.06.539	001-EEG_SVR_Officel	2022.2.5	143.80212827063897		5.048000000000002	0_sub-pilot013_SVR_EEG_block1-2.protocol.csv	step9	2285	227.768	STIMULATE	42.9	42.8	42.8	42.9	42.9	9	92.80399999999999
98.928	0	49464	wait	21	0	0	0	0	4.0	0.0	4.0	0.0						318.11205880000034	323.27929959999983	323.27929959999983	7.0	['7', 'return']	[2.9438461999998253, 3.6481600999995862]	5.16	5.73	0.0	40hz	high_pain	45.5			sub-pilot013	250	13	43	45.5	COM11	COM7	COM3	2023-10-27_10h29.06.539	001-EEG_SVR_Officel	2022.2.5	143.80212827063897		12.744	0_sub-pilot013_SVR_EEG_block1-2.protocol.csv	step11	2524	251.451	STIMULATE	45.5	45.4	45.4	45.4	45.6	11	116.48699999999998
104.082	0	52041	40hz	9	0	0	0	0	4.0	0.0	4.0	0.0						318.11205880000034	323.27929959999983	323.27929959999983	7.0	['7', 'return']	[2.9438461999998253, 3.6481600999995862]	5.16	5.73	0.0	40hz	high_pain	45.5			sub-pilot013	250	13	43	45.5	COM11	COM7	COM3	2023-10-27_10h29.06.539	001-EEG_SVR_Officel	2022.2.5	143.80212827063897		5.153999999999996	0_sub-pilot013_SVR_EEG_block1-2.protocol.csv	step11	2524	251.451	STIMULATE	45.5	45.4	45.4	45.4	45.6	11	116.48699999999998
110.568	0	55284	40/Hi	7	0	0	0	0	4.0	0.0	4.0	0.0						318.11205880000034	323.27929959999983	323.27929959999983	7.0	['7', 'return']	[2.9438461999998253, 3.6481600999995862]	5.16	5.73	0.0	40hz	high_pain	45.5			sub-pilot013	250	13	43	45.5	COM11	COM7	COM3	2023-10-27_10h29.06.539	001-EEG_SVR_Officel	2022.2.5	143.80212827063897		5.736000000000004	0_sub-pilot013_SVR_EEG_block1-2.protocol.csv	step11	2524	251.451	STIMULATE	45.5	45.4	45.4	45.4	45.6	11	116.48699999999998
120.762	0	60381	wait	21	0	0	0	0	5.0	0.0	5.0	0.0						339.94730359999994	347.46938370000044	347.46938370000044	5.0	['5', 'return']	[3.5372826000002533, 4.1700384000005215]	7.51	5.03	1.0	10hz	high_pain	45.5			sub-pilot013	250	13	43	45.5	COM11	COM7	COM3	2023-10-27_10h29.06.539	001-EEG_SVR_Officel	2022.2.5	143.80212827063897		10.944000000000003	0_sub-pilot013_SVR_EEG_block1-2.protocol.csv	step13	2761	274.909	STIMULATE	45.5	45.4	45.4	45.4	45.6	13	139.945
128.272	0	64135	10hz	3	0	0	0	0	5.0	0.0	5.0	0.0						339.94730359999994	347.46938370000044	347.46938370000044	5.0	['5', 'return']	[3.5372826000002533, 4.1700384000005215]	7.51	5.03	1.0	10hz	high_pain	45.5			sub-pilot013	250	13	43	45.5	COM11	COM7	COM3	2023-10-27_10h29.06.539	001-EEG_SVR_Officel	2022.2.5	143.80212827063897		7.509999999999991	0_sub-pilot013_SVR_EEG_block1-2.protocol.csv	step13	2761	274.909	STIMULATE	45.5	45.4	45.4	45.4	45.6	13	139.945
134.056	0	67028	10/Hi	1	0	0	0	0	5.0	0.0	5.0	0.0						339.94730359999994	347.46938370000044	347.46938370000044	5.0	['5', 'return']	[3.5372826000002533, 4.1700384000005215]	7.51	5.03	1.0	10hz	high_pain	45.5			sub-pilot013	250	13	43	45.5	COM11	COM7	COM3	2023-10-27_10h29.06.539	001-EEG_SVR_Officel	2022.2.5	143.80212827063897		5.03400000000002	0_sub-pilot013_SVR_EEG_block1-2.protocol.csv	step13	2761	274.909	STIMULATE	45.5	45.4	45.4	45.4	45.6	13	139.945
145.466	0	72733	wait	21	0	0	0	0	6.0	0.0	6.0	0.0						364.6520996999998	372.3193665999997	372.3193665999997	4.0	['4', 'return']	[3.7346726999994644, 4.687955099999272]	7.66	6.24	2.0	10hz	low_pain	43.0			sub-pilot013	250	13	43	45.5	COM11	COM7	COM3	2023-10-27_10h29.06.539	001-EEG_SVR_Officel	2022.2.5	143.80212827063897		12.159999999999997	0_sub-pilot013_SVR_EEG_block1-2.protocol.csv	step15	3023	300.923	STIMULATE	42.9	42.9	42.9	42.9	42.9	15	165.959
153.122	0	76561	10hz	3	0	0	0	0	6.0	0.0	6.0	0.0						364.6520996999998	372.3193665999997	372.3193665999997	4.0	['4', 'return']	[3.7346726999994644, 4.687955099999272]	7.66	6.24	2.0	10hz	low_pain	43.0			sub-pilot013	250	13	43	45.5	COM11	COM7	COM3	2023-10-27_10h29.06.539	001-EEG_SVR_Officel	2022.2.5	143.80212827063897		7.656000000000006	0_sub-pilot013_SVR_EEG_block1-2.protocol.csv	step15	3023	300.923	STIMULATE	42.9	42.9	42.9	42.9	42.9	15	165.959
160.114	0	80057	10/Lo	2	0	0	0	0	6.0	0.0	6.0	0.0						364.6520996999998	372.3193665999997	372.3193665999997	4.0	['4', 'return']	[3.7346726999994644, 4.687955099999272]	7.66	6.24	2.0	10hz	low_pain	43.0			sub-pilot013	250	13	43	45.5	COM11	COM7	COM3	2023-10-27_10h29.06.539	001-EEG_SVR_Officel	2022.2.5	143.80212827063897		6.24199999999999	0_sub-pilot013_SVR_EEG_block1-2.protocol.csv	step15	3023	300.923	STIMULATE	42.9	42.9	42.9	42.9	42.9	15	165.959
170.844	0	85422	wait	21	0	0	0	0	7.0	0.0	7.0	0.0						390.0298339000001	397.7893308000002	397.7893308000002	4.0	['4', 'return']	[2.3953848999999536, 2.954889299999195]	7.75	5.77	3.0	controle	low_pain	43.0			sub-pilot013	250	13	43	45.5	COM11	COM7	COM3	2023-10-27_10h29.06.539	001-EEG_SVR_Officel	2022.2.5	143.80212827063897		11.47999999999999	0_sub-pilot013_SVR_EEG_block1-2.protocol.csv	step17	3275	325.968	STIMULATE	42.9	42.8	42.9	42.9	42.9	17	191.00400000000002
178.59	0	89295	CNhz	12	0	0	0	0	7.0	0.0	7.0	0.0						390.0298339000001	397.7893308000002	397.7893308000002	4.0	['4', 'return']	[2.3953848999999536, 2.954889299999195]	7.75	5.77	3.0	controle	low_pain	43.0			sub-pilot013	250	13	43	45.5	COM11	COM7	COM3	2023-10-27_10h29.06.539	001-EEG_SVR_Officel	2022.2.5	143.80212827063897		7.746000000000009	0_sub-pilot013_SVR_EEG_block1-2.protocol.csv	step17	3275	325.968	STIMULATE	42.9	42.8	42.9	42.9	42.9	17	191.00400000000002
185.112	0	92556	CN/Lo	11	0	0	0	0	7.0	0.0	7.0	0.0						390.0298339000001	397.7893308000002	397.7893308000002	4.0	['4', 'return']	[2.3953848999999536, 2.954889299999195]	7.75	5.77	3.0	controle	low_pain	43.0			sub-pilot013	250	13	43	45.5	COM11	COM7	COM3	2023-10-27_10h29.06.539	001-EEG_SVR_Officel	2022.2.5	143.80212827063897		5.771999999999991	0_sub-pilot013_SVR_EEG_block1-2.protocol.csv	step17	3275	325.968	STIMULATE	42.9	42.8	42.9	42.9	42.9	17	191.00400000000002
194.568	0	97284	wait	21	0	0	0	0	8.0	0.0	8.0	0.0						413.75473729999976	421.3745334000005	421.3745334000005	7.0	['7', 'return']	[2.2472666999992725, 2.6474268000001757]	7.61	6.16	0.0	10hz	high_pain	45.5			sub-pilot013	250	13	43	45.5	COM11	COM7	COM3	2023-10-27_10h29.06.539	001-EEG_SVR_Officel	2022.2.5	143.80212827063897		10.206000000000017	0_sub-pilot013_SVR_EEG_block1-2.protocol.csv	step19	3517	349.944	STIMULATE	45.4	45.4	45.4	45.4	45.6	19	214.98000000000002
202.178	0	101089	10hz	3	0	0	0	0	8.0	0.0	8.0	0.0						413.75473729999976	421.3745334000005	421.3745334000005	7.0	['7', 'return']	[2.2472666999992725, 2.6474268000001757]	7.61	6.16	0.0	10hz	high_pain	45.5			sub-pilot013	250	13	43	45.5	COM11	COM7	COM3	2023-10-27_10h29.06.539	001-EEG_SVR_Officel	2022.2.5	143.80212827063897		7.609999999999985	0_sub-pilot013_SVR_EEG_block1-2.protocol.csv	step19	3517	349.944	STIMULATE	45.4	45.4	45.4	45.4	45.6	19	214.98000000000002
209.092	0	104546	10/Hi	1	0	0	0	0	8.0	0.0	8.0	0.0						413.75473729999976	421.3745334000005	421.3745334000005	7.0	['7', 'return']	[2.2472666999992725, 2.6474268000001757]	7.61	6.16	0.0	10hz	high_pain	45.5			sub-pilot013	250	13	43	45.5	COM11	COM7	COM3	2023-10-27_10h29.06.539	001-EEG_SVR_Officel	2022.2.5	143.80212827063897		6.164000000000016	0_sub-pilot013_SVR_EEG_block1-2.protocol.csv	step19	3517	349.944	STIMULATE	45.4	45.4	45.4	45.4	45.6	19	214.98000000000002
217.858	0	108929	wait	21	0	0	0	0	9.0	0.0	9.0	0.0						437.0430708000004	443.3632583999997	443.3632583999997	2.0	['2', 'return']	[1.8991933999996036, 2.635138300000108]	6.31	5.17	1.0	40hz	low_pain	43.0			sub-pilot013	250	13	43	45.5	COM11	COM7	COM3	2023-10-27_10h29.06.539	001-EEG_SVR_Officel	2022.2.5	143.80212827063897		9.515999999999991	0_sub-pilot013_SVR_EEG_block1-2.protocol.csv	step21	3729	370.951	STIMULATE	42.9	42.9	42.9	42.8	42.9	21	235.98700000000002
224.166	0	112083	40hz	9	0	0	0	0	9.0	0.0	9.0	0.0						437.0430708000004	443.3632583999997	443.3632583999997	2.0	['2', 'return']	[1.8991933999996036, 2.635138300000108]	6.31	5.17	1.0	40hz	low_pain	43.0			sub-pilot013	250	13	43	45.5	COM11	COM7	COM3	2023-10-27_10h29.06.539	001-EEG_SVR_Officel	2022.2.5	143.80212827063897		6.307999999999993	0_sub-pilot013_SVR_EEG_block1-2.protocol.csv	step21	3729	370.951	STIMULATE	42.9	42.9	42.9	42.8	42.9	21	235.98700000000002
230.086	0	115043	40/Lo	8	0	0	0	0	9.0	0.0	9.0	0.0						437.0430708000004	443.3632583999997	443.3632583999997	2.0	['2', 'return']	[1.8991933999996036, 2.635138300000108]	6.31	5.17	1.0	40hz	low_pain	43.0			sub-pilot013	250	13	43	45.5	COM11	COM7	COM3	2023-10-27_10h29.06.539	001-EEG_SVR_Officel	2022.2.5	143.80212827063897		5.170000000000016	0_sub-pilot013_SVR_EEG_block1-2.protocol.csv	step21	3729	370.951	STIMULATE	42.9	42.9	42.9	42.8	42.9	21	235.98700000000002
239.824	0	119912	wait	21	0	0	0	0	10.0	0.0	10.0	0.0						459.0105630999997	465.08738360000007	465.08738360000007	2.0	['2', 'return']	[2.166517399999975, 2.8398857000001954]	6.07	5.01	2.0	20hz	low_pain	43.0			sub-pilot013	250	13	43	45.5	COM11	COM7	COM3	2023-10-27_10h29.06.539	001-EEG_SVR_Officel	2022.2.5	143.80212827063897		10.488	0_sub-pilot013_SVR_EEG_block1-2.protocol.csv	step23	3946	392.424	STIMULATE	42.9	42.8	42.9	42.9	43.1	23	257.46
245.89	0	122945	20hz	6	0	0	0	0	10.0	0.0	10.0	0.0						459.0105630999997	465.08738360000007	465.08738360000007	2.0	['2', 'return']	[2.166517399999975, 2.8398857000001954]	6.07	5.01	2.0	20hz	low_pain	43.0			sub-pilot013	250	13	43	45.5	COM11	COM7	COM3	2023-10-27_10h29.06.539	001-EEG_SVR_Officel	2022.2.5	143.80212827063897		6.065999999999974	0_sub-pilot013_SVR_EEG_block1-2.protocol.csv	step23	3946	392.424	STIMULATE	42.9	42.8	42.9	42.9	43.1	23	257.46
251.652	0	125826	20/Lo	5	0	0	0	0	10.0	0.0	10.0	0.0						459.0105630999997	465.08738360000007	465.08738360000007	2.0	['2', 'return']	[2.166517399999975, 2.8398857000001954]	6.07	5.01	2.0	20hz	low_pain	43.0			sub-pilot013	250	13	43	45.5	COM11	COM7	COM3	2023-10-27_10h29.06.539	001-EEG_SVR_Officel	2022.2.5	143.80212827063897		5.0120000000000005	0_sub-pilot013_SVR_EEG_block1-2.protocol.csv	step23	3946	392.424	STIMULATE	42.9	42.8	42.9	42.9	43.1	23	257.46
261.75	0	130875	wait	21	0	0	0	0	11.0	0.0	11.0	0.0						480.9360698	488.7429745	488.7429745	6.0	['6', 'return']	[2.134790399999474, 2.6872623999997813]	7.8	5.43	3.0	20hz	low_pain	43.0			sub-pilot013	250	13	43	45.5	COM11	COM7	COM3	2023-10-27_10h29.06.539	001-EEG_SVR_Officel	2022.2.5	143.80212827063897		10.848000000000013	0_sub-pilot013_SVR_EEG_block1-2.protocol.csv	step25	4189	416.565	STIMULATE	42.9	42.9	42.9	42.9	42.9	25	281.601
269.546	0	134773	20hz	6	0	0	0	0	11.0	0.0	11.0	0.0						480.9360698	488.7429745	488.7429745	6.0	['6', 'return']	[2.134790399999474, 2.6872623999997813]	7.8	5.43	3.0	20hz	low_pain	43.0			sub-pilot013	250	13	43	45.5	COM11	COM7	COM3	2023-10-27_10h29.06.539	001-EEG_SVR_Officel	2022.2.5	143.80212827063897		7.795999999999992	0_sub-pilot013_SVR_EEG_block1-2.protocol.csv	step25	4189	416.565	STIMULATE	42.9	42.9	42.9	42.9	42.9	25	281.601
275.726	0	137863	20/Lo	5	0	0	0	0	11.0	0.0	11.0	0.0						480.9360698	488.7429745	488.7429745	6.0	['6', 'return']	[2.134790399999474, 2.6872623999997813]	7.8	5.43	3.0	20hz	low_pain	43.0			sub-pilot013	250	13	43	45.5	COM11	COM7	COM3	2023-10-27_10h29.06.539	001-EEG_SVR_Officel	2022.2.5	143.80212827063897		5.430000000000007	0_sub-pilot013_SVR_EEG_block1-2.protocol.csv	step25	4189	416.565	STIMULATE	42.9	42.9	42.9	42.9	42.9	25	281.601
285.254	0	142627	wait	21	0	0	0	0	12.0	0.0	12.0	0.0						504.43845299999975	511.00951030000033	511.00951030000033	7.0	['7', 'return']	[2.2848582999995415, 2.716006099999504]	6.56	6.28	0.0	controle	high_pain	45.5			sub-pilot013	250	13	43	45.5	COM11	COM7	COM3	2023-10-27_10h29.06.539	001-EEG_SVR_Officel	2022.2.5	143.80212827063897		10.27800000000002	0_sub-pilot013_SVR_EEG_block1-2.protocol.csv	step27	4422	439.651	STIMULATE	45.6	45.4	45.4	45.4	45.6	27	304.687
291.812	0	145906	CNhz	12	0	0	0	0	12.0	0.0	12.0	0.0						504.43845299999975	511.00951030000033	511.00951030000033	7.0	['7', 'return']	[2.2848582999995415, 2.716006099999504]	6.56	6.28	0.0	controle	high_pain	45.5			sub-pilot013	250	13	43	45.5	COM11	COM7	COM3	2023-10-27_10h29.06.539	001-EEG_SVR_Officel	2022.2.5	143.80212827063897		6.557999999999993	0_sub-pilot013_SVR_EEG_block1-2.protocol.csv	step27	4422	439.651	STIMULATE	45.6	45.4	45.4	45.4	45.6	27	304.687
298.846	0	149423	CN/Hi	10	0	0	0	0	12.0	0.0	12.0	0.0						504.43845299999975	511.00951030000033	511.00951030000033	7.0	['7', 'return']	[2.2848582999995415, 2.716006099999504]	6.56	6.28	0.0	controle	high_pain	45.5			sub-pilot013	250	13	43	45.5	COM11	COM7	COM3	2023-10-27_10h29.06.539	001-EEG_SVR_Officel	2022.2.5	143.80212827063897		6.283999999999992	0_sub-pilot013_SVR_EEG_block1-2.protocol.csv	step27	4422	439.651	STIMULATE	45.6	45.4	45.4	45.4	45.6	27	304.687
307.554	0	153777	wait	21	0	0	0	0	13.0	0.0	13.0	0.0						526.7405058000004	533.3317010999999	533.3317010999999	5.0	['5', 'return']	[2.1847045000004073, 2.6810574000000997]	6.58	6.0	1.0	20hz	low_pain	43.0			sub-pilot013	250	13	43	45.5	COM11	COM7	COM3	2023-10-27_10h29.06.539	001-EEG_SVR_Officel	2022.2.5	143.80212827063897		9.45799999999997	0_sub-pilot013_SVR_EEG_block1-2.protocol.csv	step29	4645	461.739	STIMULATE	42.9	42.9	42.9	42.9	42.9	29	326.775
314.134	0	157067	20hz	6	0	0	0	0	13.0	0.0	13.0	0.0						526.7405058000004	533.3317010999999	533.3317010999999	5.0	['5', 'return']	[2.1847045000004073, 2.6810574000000997]	6.58	6.0	1.0	20hz	low_pain	43.0			sub-pilot013	250	13	43	45.5	COM11	COM7	COM3	2023-10-27_10h29.06.539	001-EEG_SVR_Officel	2022.2.5	143.80212827063897		6.580000000000041	0_sub-pilot013_SVR_EEG_block1-2.protocol.csv	step29	4645	461.739	STIMULATE	42.9	42.9	42.9	42.9	42.9	29	326.775
320.884	0	160442	20/Lo	5	0	0	0	0	13.0	0.0	13.0	0.0						526.7405058000004	533.3317010999999	533.3317010999999	5.0	['5', 'return']	[2.1847045000004073, 2.6810574000000997]	6.58	6.0	1.0	20hz	low_pain	43.0			sub-pilot013	250	13	43	45.5	COM11	COM7	COM3	2023-10-27_10h29.06.539	001-EEG_SVR_Officel	2022.2.5	143.80212827063897		6.0	0_sub-pilot013_SVR_EEG_block1-2.protocol.csv	step29	4645	461.739	STIMULATE	42.9	42.9	42.9	42.9	42.9	29	326.775
329.85	0	164925	wait	21	0	0	0	0	14.0	0.0	14.0	0.0						549.0355458000004	555.1686086	555.1686086	4.0	['4', 'return']	[2.4304213999994317, 3.237460999999712]	6.12	6.17	2.0	40hz	low_pain	43.0			sub-pilot013	250	13	43	45.5	COM11	COM7	COM3	2023-10-27_10h29.06.539	001-EEG_SVR_Officel	2022.2.5	143.80212827063897		9.716000000000008	0_sub-pilot013_SVR_EEG_block1-2.protocol.csv	step31	4867	483.803	STIMULATE	43.0	42.9	42.9	42.9	42.9	31	348.83899999999994
335.97	0	167985	40hz	9	0	0	0	0	14.0	0.0	14.0	0.0						549.0355458000004	555.1686086	555.1686086	4.0	['4', 'return']	[2.4304213999994317, 3.237460999999712]	6.12	6.17	2.0	40hz	low_pain	43.0			sub-pilot013	250	13	43	45.5	COM11	COM7	COM3	2023-10-27_10h29.06.539	001-EEG_SVR_Officel	2022.2.5	143.80212827063897		6.1200000000000045	0_sub-pilot013_SVR_EEG_block1-2.protocol.csv	step31	4867	483.803	STIMULATE	43.0	42.9	42.9	42.9	42.9	31	348.83899999999994
342.892	0	171446	40/Lo	8	0	0	0	0	14.0	0.0	14.0	0.0						549.0355458000004	555.1686086	555.1686086	4.0	['4', 'return']	[2.4304213999994317, 3.237460999999712]	6.12	6.17	2.0	40hz	low_pain	43.0			sub-pilot013	250	13	43	45.5	COM11	COM7	COM3	2023-10-27_10h29.06.539	001-EEG_SVR_Officel	2022.2.5	143.80212827063897		6.171999999999969	0_sub-pilot013_SVR_EEG_block1-2.protocol.csv	step31	4867	483.803	STIMULATE	43.0	42.9	42.9	42.9	42.9	31	348.83899999999994
352.24	0	176120	wait	21	0	0	0	0	15.0	0.0	15.0	0.0						571.4265162000002	579.1636601999999	579.1636601999999	6.0	['6', 'return']	[2.4179534000004423, 2.858335900000384]	7.73	5.72	3.0	20hz	high_pain	45.5			sub-pilot013	250	13	43	45.5	COM11	COM7	COM3	2023-10-27_10h29.06.539	001-EEG_SVR_Officel	2022.2.5	143.80212827063897		10.098000000000013	0_sub-pilot013_SVR_EEG_block1-2.protocol.csv	step33	5104	507.242	STIMULATE	45.5	45.4	45.4	45.5	45.5	33	372.278
359.964	0	179982	20hz	6	0	0	0	0	15.0	0.0	15.0	0.0						571.4265162000002	579.1636601999999	579.1636601999999	6.0	['6', 'return']	[2.4179534000004423, 2.858335900000384]	7.73	5.72	3.0	20hz	high_pain	45.5			sub-pilot013	250	13	43	45.5	COM11	COM7	COM3	2023-10-27_10h29.06.539	001-EEG_SVR_Officel	2022.2.5	143.80212827063897		7.7239999999999895	0_sub-pilot013_SVR_EEG_block1-2.protocol.csv	step33	5104	507.242	STIMULATE	45.5	45.4	45.4	45.5	45.5	33	372.278
366.436	0	183218	20/Hi	4	0	0	0	0	15.0	0.0	15.0	0.0						571.4265162000002	579.1636601999999	579.1636601999999	6.0	['6', 'return']	[2.4179534000004423, 2.858335900000384]	7.73	5.72	3.0	20hz	high_pain	45.5			sub-pilot013	250	13	43	45.5	COM11	COM7	COM3	2023-10-27_10h29.06.539	001-EEG_SVR_Officel	2022.2.5	143.80212827063897		5.72199999999998	0_sub-pilot013_SVR_EEG_block1-2.protocol.csv	step33	5104	507.242	STIMULATE	45.5	45.4	45.4	45.5	45.5	33	372.278
413.44	0	206720	wait	21	1	0	1	0	0.0	0.0	0.0	0.0				p	0.4755060999996203	632.6274816000005	638.6083767999999	638.6083767999999	2.0	['2', 'return']	[1.9249135000000024, 2.7823796000002403]	5.97	5.27	0.0	controle	low_pain	43.0			sub-pilot013	250	13	43	45.5	COM11	COM7	COM3	2023-10-27_10h29.06.539	001-EEG_SVR_Officel	2022.2.5	143.80212827063897		47.75400000000002	0_sub-pilot013_SVR_EEG_block1-2.protocol.csv	step35	5697	566.341	STIMULATE	43.0	42.9	42.8	42.9	43.0	35	431.33099999999996
419.41	0	209705	CNhz	12	1	0	1	0	0.0	0.0	0.0	0.0				p	0.4755060999996203	632.6274816000005	638.6083767999999	638.6083767999999	2.0	['2', 'return']	[1.9249135000000024, 2.7823796000002403]	5.97	5.27	0.0	controle	low_pain	43.0			sub-pilot013	250	13	43	45.5	COM11	COM7	COM3	2023-10-27_10h29.06.539	001-EEG_SVR_Officel	2022.2.5	143.80212827063897		5.970000000000027	0_sub-pilot013_SVR_EEG_block1-2.protocol.csv	step35	5697	566.341	STIMULATE	43.0	42.9	42.8	42.9	43.0	35	431.33099999999996
425.43	0	212715	CN/Lo	11	1	0	1	0	0.0	0.0	0.0	0.0				p	0.4755060999996203	632.6274816000005	638.6083767999999	638.6083767999999	2.0	['2', 'return']	[1.9249135000000024, 2.7823796000002403]	5.97	5.27	0.0	controle	low_pain	43.0			sub-pilot013	250	13	43	45.5	COM11	COM7	COM3	2023-10-27_10h29.06.539	001-EEG_SVR_Officel	2022.2.5	143.80212827063897		5.269999999999982	0_sub-pilot013_SVR_EEG_block1-2.protocol.csv	step35	5697	566.341	STIMULATE	43.0	42.9	42.8	42.9	43.0	35	431.33099999999996
435.222	0	217611	wait	21	1	0	1	0	1.0	0.0	1.0	0.0						654.4087759000004	662.2990895000003	662.2990895000003	3.0	['3', 'return']	[2.9549663999996483, 3.811160899999777]	7.88	5.25	1.0	10hz	low_pain	43.0			sub-pilot013	250	13	43	45.5	COM11	COM7	COM3	2023-10-27_10h29.06.539	001-EEG_SVR_Officel	2022.2.5	143.80212827063897		10.541999999999973	0_sub-pilot013_SVR_EEG_block1-2.protocol.csv	step37	5935	589.97	STIMULATE	43.0	42.8	42.8	42.9	42.9	37	454.96
443.1	0	221550	10hz	3	1	0	1	0	1.0	0.0	1.0	0.0						654.4087759000004	662.2990895000003	662.2990895000003	3.0	['3', 'return']	[2.9549663999996483, 3.811160899999777]	7.88	5.25	1.0	10hz	low_pain	43.0			sub-pilot013	250	13	43	45.5	COM11	COM7	COM3	2023-10-27_10h29.06.539	001-EEG_SVR_Officel	2022.2.5	143.80212827063897		7.878000000000043	0_sub-pilot013_SVR_EEG_block1-2.protocol.csv	step37	5935	589.97	STIMULATE	43.0	42.8	42.8	42.9	42.9	37	454.96
449.1	0	224550	10/Lo	2	1	0	1	0	1.0	0.0	1.0	0.0						654.4087759000004	662.2990895000003	662.2990895000003	3.0	['3', 'return']	[2.9549663999996483, 3.811160899999777]	7.88	5.25	1.0	10hz	low_pain	43.0			sub-pilot013	250	13	43	45.5	COM11	COM7	COM3	2023-10-27_10h29.06.539	001-EEG_SVR_Officel	2022.2.5	143.80212827063897		5.25	0_sub-pilot013_SVR_EEG_block1-2.protocol.csv	step37	5935	589.97	STIMULATE	43.0	42.8	42.8	42.9	42.9	37	454.96
459.94	0	229970	wait	21	1	0	1	0	2.0	0.0	2.0	0.0						679.1276568000003	685.6142144000005	685.6142144000005	6.0	['6', 'return']	[2.0637547000005725, 2.7281866000002992]	6.48	5.56	2.0	40hz	high_pain	45.5			sub-pilot013	250	13	43	45.5	COM11	COM7	COM3	2023-10-27_10h29.06.539	001-EEG_SVR_Officel	2022.2.5	143.80212827063897		11.589999999999975	0_sub-pilot013_SVR_EEG_block1-2.protocol.csv	step39	6174	613.693	STIMULATE	45.6	45.4	45.4	45.4	45.5	39	478.68299999999994
466.416	0	233208	40hz	9	1	0	1	0	2.0	0.0	2.0	0.0						679.1276568000003	685.6142144000005	685.6142144000005	6.0	['6', 'return']	[2.0637547000005725, 2.7281866000002992]	6.48	5.56	2.0	40hz	high_pain	45.5			sub-pilot013	250	13	43	45.5	COM11	COM7	COM3	2023-10-27_10h29.06.539	001-EEG_SVR_Officel	2022.2.5	143.80212827063897		6.475999999999999	0_sub-pilot013_SVR_EEG_block1-2.protocol.csv	step39	6174	613.693	STIMULATE	45.6	45.4	45.4	45.4	45.5	39	478.68299999999994
472.726	0	236363	40/Hi	7	1	0	1	0	2.0	0.0	2.0	0.0						679.1276568000003	685.6142144000005	685.6142144000005	6.0	['6', 'return']	[2.0637547000005725, 2.7281866000002992]	6.48	5.56	2.0	40hz	high_pain	45.5			sub-pilot013	250	13	43	45.5	COM11	COM7	COM3	2023-10-27_10h29.06.539	001-EEG_SVR_Officel	2022.2.5	143.80212827063897		5.560000000000002	0_sub-pilot013_SVR_EEG_block1-2.protocol.csv	step39	6174	613.693	STIMULATE	45.6	45.4	45.4	45.4	45.5	39	478.68299999999994
482.166	0	241083	wait	21	1	0	1	0	3.0	0.0	3.0	0.0						701.3517873999999	707.9290701999998	707.9290701999998	7.0	['7', 'return']	[2.4527846999999383, 2.941495400000349]	6.57	5.03	3.0	10hz	high_pain	45.5			sub-pilot013	250	13	43	45.5	COM11	COM7	COM3	2023-10-27_10h29.06.539	001-EEG_SVR_Officel	2022.2.5	143.80212827063897		10.189999999999998	0_sub-pilot013_SVR_EEG_block1-2.protocol.csv	step41	6394	635.462	STIMULATE	45.5	45.4	45.4	45.4	45.4	41	500.45199999999994
488.73	0	244365	10hz	3	1	0	1	0	3.0	0.0	3.0	0.0						701.3517873999999	707.9290701999998	707.9290701999998	7.0	['7', 'return']	[2.4527846999999383, 2.941495400000349]	6.57	5.03	3.0	10hz	high_pain	45.5			sub-pilot013	250	13	43	45.5	COM11	COM7	COM3	2023-10-27_10h29.06.539	001-EEG_SVR_Officel	2022.2.5	143.80212827063897		6.564000000000021	0_sub-pilot013_SVR_EEG_block1-2.protocol.csv	step41	6394	635.462	STIMULATE	45.5	45.4	45.4	45.4	45.4	41	500.45199999999994
494.514	0	247257	10/Hi	1	1	0	1	0	3.0	0.0	3.0	0.0						701.3517873999999	707.9290701999998	707.9290701999998	7.0	['7', 'return']	[2.4527846999999383, 2.941495400000349]	6.57	5.03	3.0	10hz	high_pain	45.5			sub-pilot013	250	13	43	45.5	COM11	COM7	COM3	2023-10-27_10h29.06.539	001-EEG_SVR_Officel	2022.2.5	143.80212827063897		5.033999999999992	0_sub-pilot013_SVR_EEG_block1-2.protocol.csv	step41	6394	635.462	STIMULATE	45.5	45.4	45.4	45.4	45.4	41	500.45199999999994
504.694	0	252347	wait	21	1	0	1	0	4.0	0.0	4.0	0.0						723.8818005000003	728.9940204000004	728.9940204000004	3.0	['3', 'return']	[2.6441611000000194, 3.396520000000237]	5.1	5.68	0.0	20hz	low_pain	43.0			sub-pilot013	250	13	43	45.5	COM11	COM7	COM3	2023-10-27_10h29.06.539	001-EEG_SVR_Officel	2022.2.5	143.80212827063897		10.930000000000007	0_sub-pilot013_SVR_EEG_block1-2.protocol.csv	step43	6612	657.086	STIMULATE	43.0	42.9	42.8	42.8	43.0	43	522.076
509.796	0	254898	20hz	6	1	0	1	0	4.0	0.0	4.0	0.0						723.8818005000003	728.9940204000004	728.9940204000004	3.0	['3', 'return']	[2.6441611000000194, 3.396520000000237]	5.1	5.68	0.0	20hz	low_pain	43.0			sub-pilot013	250	13	43	45.5	COM11	COM7	COM3	2023-10-27_10h29.06.539	001-EEG_SVR_Officel	2022.2.5	143.80212827063897		5.101999999999975	0_sub-pilot013_SVR_EEG_block1-2.protocol.csv	step43	6612	657.086	STIMULATE	43.0	42.9	42.8	42.8	43.0	43	522.076
516.224	0	258112	20/Lo	5	1	0	1	0	4.0	0.0	4.0	0.0						723.8818005000003	728.9940204000004	728.9940204000004	3.0	['3', 'return']	[2.6441611000000194, 3.396520000000237]	5.1	5.68	0.0	20hz	low_pain	43.0			sub-pilot013	250	13	43	45.5	COM11	COM7	COM3	2023-10-27_10h29.06.539	001-EEG_SVR_Officel	2022.2.5	143.80212827063897		5.678000000000054	0_sub-pilot013_SVR_EEG_block1-2.protocol.csv	step43	6612	657.086	STIMULATE	43.0	42.9	42.8	42.8	43.0	43	522.076
526.226	0	263113	wait	21	1	0	1	0	5.0	0.0	5.0	0.0						745.4126403	751.6495137000002	751.6495137000002	7.0	['7', 'return']	[2.2365355000001728, 2.636876499999744]	6.23	6.42	1.0	controle	high_pain	45.5			sub-pilot013	250	13	43	45.5	COM11	COM7	COM3	2023-10-27_10h29.06.539	001-EEG_SVR_Officel	2022.2.5	143.80212827063897		10.751999999999953	0_sub-pilot013_SVR_EEG_block1-2.protocol.csv	step45	6849	680.548	STIMULATE	45.6	45.4	45.4	45.4	45.5	45	545.538
532.45	0	266225	CNhz	12	1	0	1	0	5.0	0.0	5.0	0.0						745.4126403	751.6495137000002	751.6495137000002	7.0	['7', 'return']	[2.2365355000001728, 2.636876499999744]	6.23	6.42	1.0	controle	high_pain	45.5			sub-pilot013	250	13	43	45.5	COM11	COM7	COM3	2023-10-27_10h29.06.539	001-EEG_SVR_Officel	2022.2.5	143.80212827063897		6.224000000000046	0_sub-pilot013_SVR_EEG_block1-2.protocol.csv	step45	6849	680.548	STIMULATE	45.6	45.4	45.4	45.4	45.5	45	545.538
539.622	0	269811	CN/Hi	10	1	0	1	0	5.0	0.0	5.0	0.0						745.4126403	751.6495137000002	751.6495137000002	7.0	['7', 'return']	[2.2365355000001728, 2.636876499999744]	6.23	6.42	1.0	controle	high_pain	45.5			sub-pilot013	250	13	43	45.5	COM11	COM7	COM3	2023-10-27_10h29.06.539	001-EEG_SVR_Officel	2022.2.5	143.80212827063897		6.421999999999912	0_sub-pilot013_SVR_EEG_block1-2.protocol.csv	step45	6849	680.548	STIMULATE	45.6	45.4	45.4	45.4	45.5	45	545.538
548.116	0	274058	wait	21	1	0	1	0	6.0	0.0	6.0	0.0						767.3041437000002	774.5543845000002	774.5543845000002	3.0	['3', 'return']	[2.2665169000001697, 2.8583418999996866]	7.24	6.47	2.0	controle	low_pain	43.0			sub-pilot013	250	13	43	45.5	COM11	COM7	COM3	2023-10-27_10h29.06.539	001-EEG_SVR_Officel	2022.2.5	143.80212827063897		9.244000000000028	0_sub-pilot013_SVR_EEG_block1-2.protocol.csv	step47	7081	703.559	STIMULATE	43.0	42.9	42.9	42.9	43.0	47	568.549
555.354	0	277677	CNhz	12	1	0	1	0	6.0	0.0	6.0	0.0						767.3041437000002	774.5543845000002	774.5543845000002	3.0	['3', 'return']	[2.2665169000001697, 2.8583418999996866]	7.24	6.47	2.0	controle	low_pain	43.0			sub-pilot013	250	13	43	45.5	COM11	COM7	COM3	2023-10-27_10h29.06.539	001-EEG_SVR_Officel	2022.2.5	143.80212827063897		7.238000000000056	0_sub-pilot013_SVR_EEG_block1-2.protocol.csv	step47	7081	703.559	STIMULATE	43.0	42.9	42.9	42.9	43.0	47	568.549
562.578	0	281289	CN/Lo	11	1	0	1	0	6.0	0.0	6.0	0.0						767.3041437000002	774.5543845000002	774.5543845000002	3.0	['3', 'return']	[2.2665169000001697, 2.8583418999996866]	7.24	6.47	2.0	controle	low_pain	43.0			sub-pilot013	250	13	43	45.5	COM11	COM7	COM3	2023-10-27_10h29.06.539	001-EEG_SVR_Officel	2022.2.5	143.80212827063897		6.473999999999933	0_sub-pilot013_SVR_EEG_block1-2.protocol.csv	step47	7081	703.559	STIMULATE	43.0	42.9	42.9	42.9	43.0	47	568.549
571.244	0	285622	wait	21	1	0	1	0	7.0	0.0	7.0	0.0						790.4325824999996	797.7737247000005	797.7737247000005	4.0	['4', 'return']	[3.1846791000007215, 4.008824700000332]	7.33	5.83	3.0	controle	high_pain	45.5			sub-pilot013	250	13	43	45.5	COM11	COM7	COM3	2023-10-27_10h29.06.539	001-EEG_SVR_Officel	2022.2.5	143.80212827063897		9.416000000000054	0_sub-pilot013_SVR_EEG_block1-2.protocol.csv	step49	7308	726.083	STIMULATE	45.5	45.4	45.4	45.4	45.5	49	591.0729999999999
578.574	0	289287	CNhz	12	1	0	1	0	7.0	0.0	7.0	0.0						790.4325824999996	797.7737247000005	797.7737247000005	4.0	['4', 'return']	[3.1846791000007215, 4.008824700000332]	7.33	5.83	3.0	controle	high_pain	45.5			sub-pilot013	250	13	43	45.5	COM11	COM7	COM3	2023-10-27_10h29.06.539	001-EEG_SVR_Officel	2022.2.5	143.80212827063897		7.329999999999927	0_sub-pilot013_SVR_EEG_block1-2.protocol.csv	step49	7308	726.083	STIMULATE	45.5	45.4	45.4	45.4	45.5	49	591.0729999999999
585.156	0	292578	CN/Hi	10	1	0	1	0	7.0	0.0	7.0	0.0						790.4325824999996	797.7737247000005	797.7737247000005	4.0	['4', 'return']	[3.1846791000007215, 4.008824700000332]	7.33	5.83	3.0	controle	high_pain	45.5			sub-pilot013	250	13	43	45.5	COM11	COM7	COM3	2023-10-27_10h29.06.539	001-EEG_SVR_Officel	2022.2.5	143.80212827063897		5.831999999999994	0_sub-pilot013_SVR_EEG_block1-2.protocol.csv	step49	7308	726.083	STIMULATE	45.5	45.4	45.4	45.4	45.5	49	591.0729999999999
595.606	0	297803	wait	21	1	0	1	0	8.0	0.0	8.0	0.0						814.7952092000005	821.1230821999998	821.1230821999998	4.0	['4', 'return']	[2.155054000000746, 2.706956699999864]	6.32	6.5	0.0	10hz	low_pain	43.0			sub-pilot013	250	13	43	45.5	COM11	COM7	COM3	2023-10-27_10h29.06.539	001-EEG_SVR_Officel	2022.2.5	143.80212827063897		11.200000000000045	0_sub-pilot013_SVR_EEG_block1-2.protocol.csv	step51	7550	750.043	STIMULATE	43.0	42.9	42.9	42.9	43.0	51	615.0329999999999
601.924	0	300962	10hz	3	1	0	1	0	8.0	0.0	8.0	0.0						814.7952092000005	821.1230821999998	821.1230821999998	4.0	['4', 'return']	[2.155054000000746, 2.706956699999864]	6.32	6.5	0.0	10hz	low_pain	43.0			sub-pilot013	250	13	43	45.5	COM11	COM7	COM3	2023-10-27_10h29.06.539	001-EEG_SVR_Officel	2022.2.5	143.80212827063897		6.317999999999984	0_sub-pilot013_SVR_EEG_block1-2.protocol.csv	step51	7550	750.043	STIMULATE	43.0	42.9	42.9	42.9	43.0	51	615.0329999999999
609.172	0	304586	10/Lo	2	1	0	1	0	8.0	0.0	8.0	0.0						814.7952092000005	821.1230821999998	821.1230821999998	4.0	['4', 'return']	[2.155054000000746, 2.706956699999864]	6.32	6.5	0.0	10hz	low_pain	43.0			sub-pilot013	250	13	43	45.5	COM11	COM7	COM3	2023-10-27_10h29.06.539	001-EEG_SVR_Officel	2022.2.5	143.80212827063897		6.498000000000047	0_sub-pilot013_SVR_EEG_block1-2.protocol.csv	step51	7550	750.043	STIMULATE	43.0	42.9	42.9	42.9	43.0	51	615.0329999999999
617.66	0	308830	wait	21	1	0	1	0	9.0	0.0	9.0	0.0						836.8474808000001	843.3966083000005	843.3966083000005	7.0	['7', 'return']	[2.0809674000001905, 2.5297676000000138]	6.54	5.77	1.0	40hz	high_pain	45.5			sub-pilot013	250	13	43	45.5	COM11	COM7	COM3	2023-10-27_10h29.06.539	001-EEG_SVR_Officel	2022.2.5	143.80212827063897		9.237999999999943	0_sub-pilot013_SVR_EEG_block1-2.protocol.csv	step53	7767	771.611	STIMULATE	45.6	45.4	45.4	45.4	45.5	53	636.6009999999999
624.196	0	312098	40hz	9	1	0	1	0	9.0	0.0	9.0	0.0						836.8474808000001	843.3966083000005	843.3966083000005	7.0	['7', 'return']	[2.0809674000001905, 2.5297676000000138]	6.54	5.77	1.0	40hz	high_pain	45.5			sub-pilot013	250	13	43	45.5	COM11	COM7	COM3	2023-10-27_10h29.06.539	001-EEG_SVR_Officel	2022.2.5	143.80212827063897		6.536000000000058	0_sub-pilot013_SVR_EEG_block1-2.protocol.csv	step53	7767	771.611	STIMULATE	45.6	45.4	45.4	45.4	45.5	53	636.6009999999999
630.716	0	315358	40/Hi	7	1	0	1	0	9.0	0.0	9.0	0.0						836.8474808000001	843.3966083000005	843.3966083000005	7.0	['7', 'return']	[2.0809674000001905, 2.5297676000000138]	6.54	5.77	1.0	40hz	high_pain	45.5			sub-pilot013	250	13	43	45.5	COM11	COM7	COM3	2023-10-27_10h29.06.539	001-EEG_SVR_Officel	2022.2.5	143.80212827063897		5.769999999999982	0_sub-pilot013_SVR_EEG_block1-2.protocol.csv	step53	7767	771.611	STIMULATE	45.6	45.4	45.4	45.4	45.5	53	636.6009999999999
639.758	0	319879	wait	21	1	0	1	0	10.0	0.0	10.0	0.0						858.9471978000001	864.5582359	864.5582359	6.0	['6', 'return']	[2.7270353000003524, 3.3511890999998286]	5.6	5.69	2.0	10hz	high_pain	45.5			sub-pilot013	250	13	43	45.5	COM11	COM7	COM3	2023-10-27_10h29.06.539	001-EEG_SVR_Officel	2022.2.5	143.80212827063897		9.79200000000003	0_sub-pilot013_SVR_EEG_block1-2.protocol.csv	step55	7980	792.749	STIMULATE	45.5	45.4	45.4	45.4	45.5	55	657.739
645.358	0	322679	10hz	3	1	0	1	0	10.0	0.0	10.0	0.0						858.9471978000001	864.5582359	864.5582359	6.0	['6', 'return']	[2.7270353000003524, 3.3511890999998286]	5.6	5.69	2.0	10hz	high_pain	45.5			sub-pilot013	250	13	43	45.5	COM11	COM7	COM3	2023-10-27_10h29.06.539	001-EEG_SVR_Officel	2022.2.5	143.80212827063897		5.599999999999909	0_sub-pilot013_SVR_EEG_block1-2.protocol.csv	step55	7980	792.749	STIMULATE	45.5	45.4	45.4	45.4	45.5	55	657.739
651.802	0	325901	10/Hi	1	1	0	1	0	10.0	0.0	10.0	0.0						858.9471978000001	864.5582359	864.5582359	6.0	['6', 'return']	[2.7270353000003524, 3.3511890999998286]	5.6	5.69	2.0	10hz	high_pain	45.5			sub-pilot013	250	13	43	45.5	COM11	COM7	COM3	2023-10-27_10h29.06.539	001-EEG_SVR_Officel	2022.2.5	143.80212827063897		5.694000000000074	0_sub-pilot013_SVR_EEG_block1-2.protocol.csv	step55	7980	792.749	STIMULATE	45.5	45.4	45.4	45.4	45.5	55	657.739
661.74	0	330870	wait	21	1	0	1	0	11.0	0.0	11.0	0.0						880.9288968000001	887.6882001000004	887.6882001000004	7.0	['7', 'return']	[2.8395800999996936, 3.912188700000115]	6.75	5.02	3.0	40hz	high_pain	45.5			sub-pilot013	250	13	43	45.5	COM11	COM7	COM3	2023-10-27_10h29.06.539	001-EEG_SVR_Officel	2022.2.5	143.80212827063897		10.687999999999988	0_sub-pilot013_SVR_EEG_block1-2.protocol.csv	step57	8203	815.173	STIMULATE	45.5	45.4	45.4	45.4	45.5	57	680.163
668.486	0	334243	40hz	9	1	0	1	0	11.0	0.0	11.0	0.0						880.9288968000001	887.6882001000004	887.6882001000004	7.0	['7', 'return']	[2.8395800999996936, 3.912188700000115]	6.75	5.02	3.0	40hz	high_pain	45.5			sub-pilot013	250	13	43	45.5	COM11	COM7	COM3	2023-10-27_10h29.06.539	001-EEG_SVR_Officel	2022.2.5	143.80212827063897		6.745999999999981	0_sub-pilot013_SVR_EEG_block1-2.protocol.csv	step57	8203	815.173	STIMULATE	45.5	45.4	45.4	45.4	45.5	57	680.163
674.256	0	337128	40/Hi	7	1	0	1	0	11.0	0.0	11.0	0.0						880.9288968000001	887.6882001000004	887.6882001000004	7.0	['7', 'return']	[2.8395800999996936, 3.912188700000115]	6.75	5.02	3.0	40hz	high_pain	45.5			sub-pilot013	250	13	43	45.5	COM11	COM7	COM3	2023-10-27_10h29.06.539	001-EEG_SVR_Officel	2022.2.5	143.80212827063897		5.019999999999982	0_sub-pilot013_SVR_EEG_block1-2.protocol.csv	step57	8203	815.173	STIMULATE	45.5	45.4	45.4	45.4	45.5	57	680.163
685.432	0	342716	wait	21	1	0	1	0	12.0	0.0	12.0	0.0						904.6196571	910.0999186999998	910.0999186999998	3.0	['3', 'return']	[2.570136299999831, 3.1942393999997876]	5.47	6.14	0.0	40hz	low_pain	43.0			sub-pilot013	250	13	43	45.5	COM11	COM7	COM3	2023-10-27_10h29.06.539	001-EEG_SVR_Officel	2022.2.5	143.80212827063897		11.926000000000045	0_sub-pilot013_SVR_EEG_block1-2.protocol.csv	step59	8431	838.712	STIMULATE	43.0	42.8	42.8	42.9	43.0	59	703.702
690.898	0	345449	40hz	9	1	0	1	0	12.0	0.0	12.0	0.0						904.6196571	910.0999186999998	910.0999186999998	3.0	['3', 'return']	[2.570136299999831, 3.1942393999997876]	5.47	6.14	0.0	40hz	low_pain	43.0			sub-pilot013	250	13	43	45.5	COM11	COM7	COM3	2023-10-27_10h29.06.539	001-EEG_SVR_Officel	2022.2.5	143.80212827063897		5.466000000000008	0_sub-pilot013_SVR_EEG_block1-2.protocol.csv	step59	8431	838.712	STIMULATE	43.0	42.8	42.8	42.9	43.0	59	703.702
697.788	0	348894	40/Lo	8	1	0	1	0	12.0	0.0	12.0	0.0						904.6196571	910.0999186999998	910.0999186999998	3.0	['3', 'return']	[2.570136299999831, 3.1942393999997876]	5.47	6.14	0.0	40hz	low_pain	43.0			sub-pilot013	250	13	43	45.5	COM11	COM7	COM3	2023-10-27_10h29.06.539	001-EEG_SVR_Officel	2022.2.5	143.80212827063897		6.139999999999986	0_sub-pilot013_SVR_EEG_block1-2.protocol.csv	step59	8431	838.712	STIMULATE	43.0	42.8	42.8	42.9	43.0	59	703.702
707.122	0	353561	wait	21	1	0	1	0	13.0	0.0	13.0	0.0						926.3097625	932.3381073	932.3381073	6.0	['6', 'return']	[2.1481434999996054, 2.8925571999998283]	6.02	5.43	1.0	20hz	high_pain	45.5			sub-pilot013	250	13	43	45.5	COM11	COM7	COM3	2023-10-27_10h29.06.539	001-EEG_SVR_Officel	2022.2.5	143.80212827063897		10.083999999999946	0_sub-pilot013_SVR_EEG_block1-2.protocol.csv	step61	8638	860.251	STIMULATE	45.6	45.4	45.4	45.4	45.5	61	725.241
713.138	0	356569	20hz	6	1	0	1	0	13.0	0.0	13.0	0.0						926.3097625	932.3381073	932.3381073	6.0	['6', 'return']	[2.1481434999996054, 2.8925571999998283]	6.02	5.43	1.0	20hz	high_pain	45.5			sub-pilot013	250	13	43	45.5	COM11	COM7	COM3	2023-10-27_10h29.06.539	001-EEG_SVR_Officel	2022.2.5	143.80212827063897		6.016000000000076	0_sub-pilot013_SVR_EEG_block1-2.protocol.csv	step61	8638	860.251	STIMULATE	45.6	45.4	45.4	45.4	45.5	61	725.241
719.316	0	359658	20/Hi	4	1	0	1	0	13.0	0.0	13.0	0.0						926.3097625	932.3381073	932.3381073	6.0	['6', 'return']	[2.1481434999996054, 2.8925571999998283]	6.02	5.43	1.0	20hz	high_pain	45.5			sub-pilot013	250	13	43	45.5	COM11	COM7	COM3	2023-10-27_10h29.06.539	001-EEG_SVR_Officel	2022.2.5	143.80212827063897		5.427999999999997	0_sub-pilot013_SVR_EEG_block1-2.protocol.csv	step61	8638	860.251	STIMULATE	45.6	45.4	45.4	45.4	45.5	61	725.241
729.06	0	364530	wait	21	1	0	1	0	14.0	0.0	14.0	0.0						948.2494287	953.2986602	953.2986602	6.0	['6', 'return']	[2.443482099999528, 3.0682435999997324]	5.04	5.83	2.0	20hz	high_pain	45.5			sub-pilot013	250	13	43	45.5	COM11	COM7	COM3	2023-10-27_10h29.06.539	001-EEG_SVR_Officel	2022.2.5	143.80212827063897		10.493999999999915	0_sub-pilot013_SVR_EEG_block1-2.protocol.csv	step63	8841	881.644	STIMULATE	45.5	45.4	45.4	45.4	45.5	63	746.634
734.098	0	367049	20hz	6	1	0	1	0	14.0	0.0	14.0	0.0						948.2494287	953.2986602	953.2986602	6.0	['6', 'return']	[2.443482099999528, 3.0682435999997324]	5.04	5.83	2.0	20hz	high_pain	45.5			sub-pilot013	250	13	43	45.5	COM11	COM7	COM3	2023-10-27_10h29.06.539	001-EEG_SVR_Officel	2022.2.5	143.80212827063897		5.038000000000011	0_sub-pilot013_SVR_EEG_block1-2.protocol.csv	step63	8841	881.644	STIMULATE	45.5	45.4	45.4	45.4	45.5	63	746.634
740.682	0	370341	20/Hi	4	1	0	1	0	14.0	0.0	14.0	0.0						948.2494287	953.2986602	953.2986602	6.0	['6', 'return']	[2.443482099999528, 3.0682435999997324]	5.04	5.83	2.0	20hz	high_pain	45.5			sub-pilot013	250	13	43	45.5	COM11	COM7	COM3	2023-10-27_10h29.06.539	001-EEG_SVR_Officel	2022.2.5	143.80212827063897		5.83400000000006	0_sub-pilot013_SVR_EEG_block1-2.protocol.csv	step63	8841	881.644	STIMULATE	45.5	45.4	45.4	45.4	45.5	63	746.634
750.188	0	375094	wait	21	1	0	1	0	15.0	0.0	15.0	0.0						969.3765966	976.2945092	976.2945092	3.0	['3', 'return']	[2.663945899999817, 3.2957329999999274]	6.91	5.86	3.0	40hz	low_pain	43.0			sub-pilot013	250	13	43	45.5	COM11	COM7	COM3	2023-10-27_10h29.06.539	001-EEG_SVR_Officel	2022.2.5	143.80212827063897		10.255999999999972	0_sub-pilot013_SVR_EEG_block1-2.protocol.csv	step65	9058	904.564	STIMULATE	42.9	42.8	42.9	42.9	42.9	65	769.5539999999999
757.094	0	378547	40hz	9	1	0	1	0	15.0	0.0	15.0	0.0						969.3765966	976.2945092	976.2945092	3.0	['3', 'return']	[2.663945899999817, 3.2957329999999274]	6.91	5.86	3.0	40hz	low_pain	43.0			sub-pilot013	250	13	43	45.5	COM11	COM7	COM3	2023-10-27_10h29.06.539	001-EEG_SVR_Officel	2022.2.5	143.80212827063897		6.906000000000063	0_sub-pilot013_SVR_EEG_block1-2.protocol.csv	step65	9058	904.564	STIMULATE	42.9	42.8	42.9	42.9	42.9	65	769.5539999999999
763.704	0	381852	40/Lo	8	1	0	1	0	15.0	0.0	15.0	0.0						969.3765966	976.2945092	976.2945092	3.0	['3', 'return']	[2.663945899999817, 3.2957329999999274]	6.91	5.86	3.0	40hz	low_pain	43.0			sub-pilot013	250	13	43	45.5	COM11	COM7	COM3	2023-10-27_10h29.06.539	001-EEG_SVR_Officel	2022.2.5	143.80212827063897		5.8599999999999	0_sub-pilot013_SVR_EEG_block1-2.protocol.csv	step65	9058	904.564	STIMULATE	42.9	42.8	42.9	42.9	42.9	65	769.5539999999999
805.646	0	402823	wait	21	2	0	2	0	0.0	0.0	0.0	0.0				p	0.8716309999999794	1024.8350732	1032.5512787999996	1032.5512787999996	6.0	['6', 'return']	[2.126300399999309, 2.66292329999942]	7.71	6.04	0.0	20hz	high_pain	45.5			sub-pilot013	250	13	43	45.5	COM11	COM7	COM3	2023-10-27_10h29.06.539	001-EEG_SVR_Officel	2022.2.5	143.80212827063897		42.69200000000001	1_sub-pilot013_SVR_EEG_block3-4.protocol.csv	step3	409	40.742	STIMULATE	45.6	45.4	45.4	45.4	45.5	3	825.951
813.352	0	406676	20hz	6	2	0	2	0	0.0	0.0	0.0	0.0				p	0.8716309999999794	1024.8350732	1032.5512787999996	1032.5512787999996	6.0	['6', 'return']	[2.126300399999309, 2.66292329999942]	7.71	6.04	0.0	20hz	high_pain	45.5			sub-pilot013	250	13	43	45.5	COM11	COM7	COM3	2023-10-27_10h29.06.539	001-EEG_SVR_Officel	2022.2.5	143.80212827063897		7.706000000000017	1_sub-pilot013_SVR_EEG_block3-4.protocol.csv	step3	409	40.742	STIMULATE	45.6	45.4	45.4	45.4	45.5	3	825.951
820.142	0	410071	20/Hi	4	2	0	2	0	0.0	0.0	0.0	0.0				p	0.8716309999999794	1024.8350732	1032.5512787999996	1032.5512787999996	6.0	['6', 'return']	[2.126300399999309, 2.66292329999942]	7.71	6.04	0.0	20hz	high_pain	45.5			sub-pilot013	250	13	43	45.5	COM11	COM7	COM3	2023-10-27_10h29.06.539	001-EEG_SVR_Officel	2022.2.5	143.80212827063897		6.040000000000077	1_sub-pilot013_SVR_EEG_block3-4.protocol.csv	step3	409	40.742	STIMULATE	45.6	45.4	45.4	45.4	45.5	3	825.951
829.038	0	414519	wait	21	2	0	2	0	1.0	0.0	1.0	0.0						1048.2263659	1055.5805891	1055.5805891	6.0	['6', 'return']	[2.7219661999997697, 3.2505105999998705]	7.35	6.17	1.0	10hz	high_pain	45.5			sub-pilot013	250	13	43	45.5	COM11	COM7	COM3	2023-10-27_10h29.06.539	001-EEG_SVR_Officel	2022.2.5	143.80212827063897		9.645999999999958	1_sub-pilot013_SVR_EEG_block3-4.protocol.csv	step5	644	64.018	STIMULATE	45.6	45.4	45.4	45.4	45.6	5	849.2270000000001
836.386	0	418193	10hz	3	2	0	2	0	1.0	0.0	1.0	0.0						1048.2263659	1055.5805891	1055.5805891	6.0	['6', 'return']	[2.7219661999997697, 3.2505105999998705]	7.35	6.17	1.0	10hz	high_pain	45.5			sub-pilot013	250	13	43	45.5	COM11	COM7	COM3	2023-10-27_10h29.06.539	001-EEG_SVR_Officel	2022.2.5	143.80212827063897		7.347999999999956	1_sub-pilot013_SVR_EEG_block3-4.protocol.csv	step5	644	64.018	STIMULATE	45.6	45.4	45.4	45.4	45.6	5	849.2270000000001
843.31	0	421655	10/Hi	1	2	0	2	0	1.0	0.0	1.0	0.0						1048.2263659	1055.5805891	1055.5805891	6.0	['6', 'return']	[2.7219661999997697, 3.2505105999998705]	7.35	6.17	1.0	10hz	high_pain	45.5			sub-pilot013	250	13	43	45.5	COM11	COM7	COM3	2023-10-27_10h29.06.539	001-EEG_SVR_Officel	2022.2.5	143.80212827063897		6.173999999999978	1_sub-pilot013_SVR_EEG_block3-4.protocol.csv	step5	644	64.018	STIMULATE	45.6	45.4	45.4	45.4	45.6	5	849.2270000000001
852.666	0	426333	wait	21	2	0	2	0	2.0	0.0	2.0	0.0						1071.8545544999995	1079.4807131999996	1079.4807131999996	3.0	['3', 'return']	[2.0618634000002203, 3.452683999999863]	7.62	5.63	2.0	40hz	low_pain	43.0			sub-pilot013	250	13	43	45.5	COM11	COM7	COM3	2023-10-27_10h29.06.539	001-EEG_SVR_Officel	2022.2.5	143.80212827063897		10.106000000000108	1_sub-pilot013_SVR_EEG_block3-4.protocol.csv	step7	878	87.228	STIMULATE	42.9	42.9	42.9	42.9	43.1	7	872.437
860.28	0	430140	40hz	9	2	0	2	0	2.0	0.0	2.0	0.0						1071.8545544999995	1079.4807131999996	1079.4807131999996	3.0	['3', 'return']	[2.0618634000002203, 3.452683999999863]	7.62	5.63	2.0	40hz	low_pain	43.0			sub-pilot013	250	13	43	45.5	COM11	COM7	COM3	2023-10-27_10h29.06.539	001-EEG_SVR_Officel	2022.2.5	143.80212827063897		7.613999999999919	1_sub-pilot013_SVR_EEG_block3-4.protocol.csv	step7	878	87.228	STIMULATE	42.9	42.9	42.9	42.9	43.1	7	872.437
866.66	0	433330	40/Lo	8	2	0	2	0	2.0	0.0	2.0	0.0						1071.8545544999995	1079.4807131999996	1079.4807131999996	3.0	['3', 'return']	[2.0618634000002203, 3.452683999999863]	7.62	5.63	2.0	40hz	low_pain	43.0			sub-pilot013	250	13	43	45.5	COM11	COM7	COM3	2023-10-27_10h29.06.539	001-EEG_SVR_Officel	2022.2.5	143.80212827063897		5.6299999999999955	1_sub-pilot013_SVR_EEG_block3-4.protocol.csv	step7	878	87.228	STIMULATE	42.9	42.9	42.9	42.9	43.1	7	872.437
876.758	0	438379	wait	21	2	0	2	0	3.0	0.0	3.0	0.0						1095.9476942	1102.8854597999998	1102.8854597999998	5.0	['5', 'return']	[2.599734699999317, 3.2166998999991847]	6.93	6.45	3.0	40hz	low_pain	43.0			sub-pilot013	250	13	43	45.5	COM11	COM7	COM3	2023-10-27_10h29.06.539	001-EEG_SVR_Officel	2022.2.5	143.80212827063897		10.84800000000007	1_sub-pilot013_SVR_EEG_block3-4.protocol.csv	step9	1123	111.525	STIMULATE	42.9	42.9	42.9	42.9	42.9	9	896.734
883.684	0	441842	40hz	9	2	0	2	0	3.0	0.0	3.0	0.0						1095.9476942	1102.8854597999998	1102.8854597999998	5.0	['5', 'return']	[2.599734699999317, 3.2166998999991847]	6.93	6.45	3.0	40hz	low_pain	43.0			sub-pilot013	250	13	43	45.5	COM11	COM7	COM3	2023-10-27_10h29.06.539	001-EEG_SVR_Officel	2022.2.5	143.80212827063897		6.925999999999931	1_sub-pilot013_SVR_EEG_block3-4.protocol.csv	step9	1123	111.525	STIMULATE	42.9	42.9	42.9	42.9	42.9	9	896.734
890.884	0	445442	40/Lo	8	2	0	2	0	3.0	0.0	3.0	0.0						1095.9476942	1102.8854597999998	1102.8854597999998	5.0	['5', 'return']	[2.599734699999317, 3.2166998999991847]	6.93	6.45	3.0	40hz	low_pain	43.0			sub-pilot013	250	13	43	45.5	COM11	COM7	COM3	2023-10-27_10h29.06.539	001-EEG_SVR_Officel	2022.2.5	143.80212827063897		6.4500000000000455	1_sub-pilot013_SVR_EEG_block3-4.protocol.csv	step9	1123	111.525	STIMULATE	42.9	42.9	42.9	42.9	42.9	9	896.734
899.934	0	449967	wait	21	2	0	2	0	4.0	0.0	4.0	0.0						1119.1240968000002	1124.4442116	1124.4442116	2.0	['2', 'return']	[2.2898212000000058, 2.9463492000004408]	5.31	6.49	0.0	20hz	low_pain	43.0			sub-pilot013	250	13	43	45.5	COM11	COM7	COM3	2023-10-27_10h29.06.539	001-EEG_SVR_Officel	2022.2.5	143.80212827063897		9.799999999999955	1_sub-pilot013_SVR_EEG_block3-4.protocol.csv	step11	1341	133.133	STIMULATE	43.0	42.9	42.8	42.9	43.1	11	918.3420000000001
905.242	0	452621	20hz	6	2	0	2	0	4.0	0.0	4.0	0.0						1119.1240968000002	1124.4442116	1124.4442116	2.0	['2', 'return']	[2.2898212000000058, 2.9463492000004408]	5.31	6.49	0.0	20hz	low_pain	43.0			sub-pilot013	250	13	43	45.5	COM11	COM7	COM3	2023-10-27_10h29.06.539	001-EEG_SVR_Officel	2022.2.5	143.80212827063897		5.307999999999993	1_sub-pilot013_SVR_EEG_block3-4.protocol.csv	step11	1341	133.133	STIMULATE	43.0	42.9	42.8	42.9	43.1	11	918.3420000000001
912.484	0	456242	20/Lo	5	2	0	2	0	4.0	0.0	4.0	0.0						1119.1240968000002	1124.4442116	1124.4442116	2.0	['2', 'return']	[2.2898212000000058, 2.9463492000004408]	5.31	6.49	0.0	20hz	low_pain	43.0			sub-pilot013	250	13	43	45.5	COM11	COM7	COM3	2023-10-27_10h29.06.539	001-EEG_SVR_Officel	2022.2.5	143.80212827063897		6.4920000000000755	1_sub-pilot013_SVR_EEG_block3-4.protocol.csv	step11	1341	133.133	STIMULATE	43.0	42.9	42.8	42.9	43.1	11	918.3420000000001
921.222	0	460611	wait	21	2	0	2	0	5.0	0.0	5.0	0.0						1140.4120991	1147.6492438000005	1147.6492438000005	5.0	['5', 'return']	[2.1901685000002544, 2.8545709999998508]	7.23	6.12	1.0	40hz	high_pain	45.5			sub-pilot013	250	13	43	45.5	COM11	COM7	COM3	2023-10-27_10h29.06.539	001-EEG_SVR_Officel	2022.2.5	143.80212827063897		9.487999999999943	1_sub-pilot013_SVR_EEG_block3-4.protocol.csv	step13	1572	156.016	STIMULATE	45.5	45.4	45.4	45.4	45.6	13	941.225
928.448	0	464224	40hz	9	2	0	2	0	5.0	0.0	5.0	0.0						1140.4120991	1147.6492438000005	1147.6492438000005	5.0	['5', 'return']	[2.1901685000002544, 2.8545709999998508]	7.23	6.12	1.0	40hz	high_pain	45.5			sub-pilot013	250	13	43	45.5	COM11	COM7	COM3	2023-10-27_10h29.06.539	001-EEG_SVR_Officel	2022.2.5	143.80212827063897		7.225999999999999	1_sub-pilot013_SVR_EEG_block3-4.protocol.csv	step13	1572	156.016	STIMULATE	45.5	45.4	45.4	45.4	45.6	13	941.225
935.322	0	467661	40/Hi	7	2	0	2	0	5.0	0.0	5.0	0.0						1140.4120991	1147.6492438000005	1147.6492438000005	5.0	['5', 'return']	[2.1901685000002544, 2.8545709999998508]	7.23	6.12	1.0	40hz	high_pain	45.5			sub-pilot013	250	13	43	45.5	COM11	COM7	COM3	2023-10-27_10h29.06.539	001-EEG_SVR_Officel	2022.2.5	143.80212827063897		6.124000000000024	1_sub-pilot013_SVR_EEG_block3-4.protocol.csv	step13	1572	156.016	STIMULATE	45.5	45.4	45.4	45.4	45.6	13	941.225
944.328	0	472164	wait	21	2	0	2	0	6.0	0.0	6.0	0.0						1163.5188532000002	1170.6650369999998	1170.6650369999998	7.0	['7', 'return']	[2.5726979999999458, 3.1738501999998334]	7.14	5.8	2.0	40hz	high_pain	45.5			sub-pilot013	250	13	43	45.5	COM11	COM7	COM3	2023-10-27_10h29.06.539	001-EEG_SVR_Officel	2022.2.5	143.80212827063897		9.755999999999972	1_sub-pilot013_SVR_EEG_block3-4.protocol.csv	step15	1801	178.746	STIMULATE	45.6	45.4	45.4	45.4	45.5	15	963.955
951.464	0	475732	40hz	9	2	0	2	0	6.0	0.0	6.0	0.0						1163.5188532000002	1170.6650369999998	1170.6650369999998	7.0	['7', 'return']	[2.5726979999999458, 3.1738501999998334]	7.14	5.8	2.0	40hz	high_pain	45.5			sub-pilot013	250	13	43	45.5	COM11	COM7	COM3	2023-10-27_10h29.06.539	001-EEG_SVR_Officel	2022.2.5	143.80212827063897		7.136000000000081	1_sub-pilot013_SVR_EEG_block3-4.protocol.csv	step15	1801	178.746	STIMULATE	45.6	45.4	45.4	45.4	45.5	15	963.955
958.018	0	479009	40/Hi	7	2	0	2	0	6.0	0.0	6.0	0.0						1163.5188532000002	1170.6650369999998	1170.6650369999998	7.0	['7', 'return']	[2.5726979999999458, 3.1738501999998334]	7.14	5.8	2.0	40hz	high_pain	45.5			sub-pilot013	250	13	43	45.5	COM11	COM7	COM3	2023-10-27_10h29.06.539	001-EEG_SVR_Officel	2022.2.5	143.80212827063897		5.803999999999974	1_sub-pilot013_SVR_EEG_block3-4.protocol.csv	step15	1801	178.746	STIMULATE	45.6	45.4	45.4	45.4	45.5	15	963.955
967.664	0	483832	wait	21	2	0	2	0	7.0	0.0	7.0	0.0						1186.8545802999995	1193.6053958000002	1193.6053958000002	3.0	['3', 'return']	[2.7209788000000117, 3.34472629999982]	6.74	5.2	3.0	10hz	low_pain	43.0			sub-pilot013	250	13	43	45.5	COM11	COM7	COM3	2023-10-27_10h29.06.539	001-EEG_SVR_Officel	2022.2.5	143.80212827063897		10.395999999999958	1_sub-pilot013_SVR_EEG_block3-4.protocol.csv	step17	2026	201.004	STIMULATE	42.9	42.9	42.9	42.8	42.9	17	986.2130000000001
974.404	0	487202	10hz	3	2	0	2	0	7.0	0.0	7.0	0.0						1186.8545802999995	1193.6053958000002	1193.6053958000002	3.0	['3', 'return']	[2.7209788000000117, 3.34472629999982]	6.74	5.2	3.0	10hz	low_pain	43.0			sub-pilot013	250	13	43	45.5	COM11	COM7	COM3	2023-10-27_10h29.06.539	001-EEG_SVR_Officel	2022.2.5	143.80212827063897		6.740000000000009	1_sub-pilot013_SVR_EEG_block3-4.protocol.csv	step17	2026	201.004	STIMULATE	42.9	42.9	42.9	42.8	42.9	17	986.2130000000001
980.354	0	490177	10/Lo	2	2	0	2	0	7.0	0.0	7.0	0.0						1186.8545802999995	1193.6053958000002	1193.6053958000002	3.0	['3', 'return']	[2.7209788000000117, 3.34472629999982]	6.74	5.2	3.0	10hz	low_pain	43.0			sub-pilot013	250	13	43	45.5	COM11	COM7	COM3	2023-10-27_10h29.06.539	001-EEG_SVR_Officel	2022.2.5	143.80212827063897		5.2000000000000455	1_sub-pilot013_SVR_EEG_block3-4.protocol.csv	step17	2026	201.004	STIMULATE	42.9	42.9	42.9	42.8	42.9	17	986.2130000000001
990.778	0	495389	wait	21	2	0	2	0	8.0	0.0	8.0	0.0						1209.9684669999997	1215.4551063	1215.4551063	7.0	['7', 'return']	[2.495252900000196, 3.0400456999996095]	5.48	6.22	0.0	controle	high_pain	45.5			sub-pilot013	250	13	43	45.5	COM11	COM7	COM3	2023-10-27_10h29.06.539	001-EEG_SVR_Officel	2022.2.5	143.80212827063897		11.173999999999978	1_sub-pilot013_SVR_EEG_block3-4.protocol.csv	step19	2257	223.913	STIMULATE	45.6	45.4	45.4	45.4	45.6	19	1009.1220000000001
996.254	0	498127	CNhz	12	2	0	2	0	8.0	0.0	8.0	0.0						1209.9684669999997	1215.4551063	1215.4551063	7.0	['7', 'return']	[2.495252900000196, 3.0400456999996095]	5.48	6.22	0.0	controle	high_pain	45.5			sub-pilot013	250	13	43	45.5	COM11	COM7	COM3	2023-10-27_10h29.06.539	001-EEG_SVR_Officel	2022.2.5	143.80212827063897		5.475999999999999	1_sub-pilot013_SVR_EEG_block3-4.protocol.csv	step19	2257	223.913	STIMULATE	45.6	45.4	45.4	45.4	45.6	19	1009.1220000000001
1003.224	0	501612	CN/Hi	10	2	0	2	0	8.0	0.0	8.0	0.0						1209.9684669999997	1215.4551063	1215.4551063	7.0	['7', 'return']	[2.495252900000196, 3.0400456999996095]	5.48	6.22	0.0	controle	high_pain	45.5			sub-pilot013	250	13	43	45.5	COM11	COM7	COM3	2023-10-27_10h29.06.539	001-EEG_SVR_Officel	2022.2.5	143.80212827063897		6.220000000000027	1_sub-pilot013_SVR_EEG_block3-4.protocol.csv	step19	2257	223.913	STIMULATE	45.6	45.4	45.4	45.4	45.6	19	1009.1220000000001
1012.322	0	506161	wait	21	2	0	2	0	9.0	0.0	9.0	0.0						1231.5126538000004	1238.3818112999998	1238.3818112999998	6.0	['6', 'return']	[3.135712300000705, 3.7440682000005836]	6.86	6.1	1.0	controle	high_pain	45.5			sub-pilot013	250	13	43	45.5	COM11	COM7	COM3	2023-10-27_10h29.06.539	001-EEG_SVR_Officel	2022.2.5	143.80212827063897		9.847999999999956	1_sub-pilot013_SVR_EEG_block3-4.protocol.csv	step21	2486	246.664	STIMULATE	45.6	45.4	45.4	45.4	45.4	21	1031.873
1019.18	0	509590	CNhz	12	2	0	2	0	9.0	0.0	9.0	0.0						1231.5126538000004	1238.3818112999998	1238.3818112999998	6.0	['6', 'return']	[3.135712300000705, 3.7440682000005836]	6.86	6.1	1.0	controle	high_pain	45.5			sub-pilot013	250	13	43	45.5	COM11	COM7	COM3	2023-10-27_10h29.06.539	001-EEG_SVR_Officel	2022.2.5	143.80212827063897		6.857999999999947	1_sub-pilot013_SVR_EEG_block3-4.protocol.csv	step21	2486	246.664	STIMULATE	45.6	45.4	45.4	45.4	45.4	21	1031.873
1026.032	0	513015	CN/Hi	10	2	0	2	0	9.0	0.0	9.0	0.0						1231.5126538000004	1238.3818112999998	1238.3818112999998	6.0	['6', 'return']	[3.135712300000705, 3.7440682000005836]	6.86	6.1	1.0	controle	high_pain	45.5			sub-pilot013	250	13	43	45.5	COM11	COM7	COM3	2023-10-27_10h29.06.539	001-EEG_SVR_Officel	2022.2.5	143.80212827063897		6.101999999999975	1_sub-pilot013_SVR_EEG_block3-4.protocol.csv	step21	2486	246.664	STIMULATE	45.6	45.4	45.4	45.4	45.4	21	1031.873
1035.958	0	517979	wait	21	2	0	2	0	10.0	0.0	10.0	0.0						1255.1474014000005	1261.2737703000005	1261.2737703000005	5.0	['5', 'return']	[2.2036404000000402, 2.66847400000006]	6.12	6.41	2.0	20hz	low_pain	43.0			sub-pilot013	250	13	43	45.5	COM11	COM7	COM3	2023-10-27_10h29.06.539	001-EEG_SVR_Officel	2022.2.5	143.80212827063897		10.676000000000158	1_sub-pilot013_SVR_EEG_block3-4.protocol.csv	step23	2721	269.926	STIMULATE	43.0	42.9	42.9	42.9	42.9	23	1055.135
1042.072	0	521035	20hz	6	2	0	2	0	10.0	0.0	10.0	0.0						1255.1474014000005	1261.2737703000005	1261.2737703000005	5.0	['5', 'return']	[2.2036404000000402, 2.66847400000006]	6.12	6.41	2.0	20hz	low_pain	43.0			sub-pilot013	250	13	43	45.5	COM11	COM7	COM3	2023-10-27_10h29.06.539	001-EEG_SVR_Officel	2022.2.5	143.80212827063897		6.113999999999805	1_sub-pilot013_SVR_EEG_block3-4.protocol.csv	step23	2721	269.926	STIMULATE	43.0	42.9	42.9	42.9	42.9	23	1055.135
1049.23	0	524615	20/Lo	5	2	0	2	0	10.0	0.0	10.0	0.0						1255.1474014000005	1261.2737703000005	1261.2737703000005	5.0	['5', 'return']	[2.2036404000000402, 2.66847400000006]	6.12	6.41	2.0	20hz	low_pain	43.0			sub-pilot013	250	13	43	45.5	COM11	COM7	COM3	2023-10-27_10h29.06.539	001-EEG_SVR_Officel	2022.2.5	143.80212827063897		6.408000000000129	1_sub-pilot013_SVR_EEG_block3-4.protocol.csv	step23	2721	269.926	STIMULATE	43.0	42.9	42.9	42.9	42.9	23	1055.135
1057.772	0	528886	wait	21	2	0	2	0	11.0	0.0	11.0	0.0						1276.9628866000005	1282.9294983999998	1282.9294983999998	6.0	['6', 'return']	[2.597005700000409, 3.238382300000012]	5.96	5.23	3.0	40hz	high_pain	45.5			sub-pilot013	250	13	43	45.5	COM11	COM7	COM3	2023-10-27_10h29.06.539	001-EEG_SVR_Officel	2022.2.5	143.80212827063897		9.291999999999916	1_sub-pilot013_SVR_EEG_block3-4.protocol.csv	step25	2927	290.367	STIMULATE	45.5	45.4	45.4	45.4	45.5	25	1075.576
1063.726	0	531863	40hz	9	2	0	2	0	11.0	0.0	11.0	0.0						1276.9628866000005	1282.9294983999998	1282.9294983999998	6.0	['6', 'return']	[2.597005700000409, 3.238382300000012]	5.96	5.23	3.0	40hz	high_pain	45.5			sub-pilot013	250	13	43	45.5	COM11	COM7	COM3	2023-10-27_10h29.06.539	001-EEG_SVR_Officel	2022.2.5	143.80212827063897		5.954000000000178	1_sub-pilot013_SVR_EEG_block3-4.protocol.csv	step25	2927	290.367	STIMULATE	45.5	45.4	45.4	45.4	45.5	25	1075.576
1069.712	0	534856	40/Hi	7	2	0	2	0	11.0	0.0	11.0	0.0						1276.9628866000005	1282.9294983999998	1282.9294983999998	6.0	['6', 'return']	[2.597005700000409, 3.238382300000012]	5.96	5.23	3.0	40hz	high_pain	45.5			sub-pilot013	250	13	43	45.5	COM11	COM7	COM3	2023-10-27_10h29.06.539	001-EEG_SVR_Officel	2022.2.5	143.80212827063897		5.235999999999876	1_sub-pilot013_SVR_EEG_block3-4.protocol.csv	step25	2927	290.367	STIMULATE	45.5	45.4	45.4	45.4	45.5	25	1075.576
1079.99	0	539995	wait	21	2	0	2	0	12.0	0.0	12.0	0.0						1299.1801092000003	1306.3618374999996	1306.3618374999996	3.0	['3', 'return']	[2.3800037999999404, 3.0680158000004667]	7.17	5.31	0.0	40hz	low_pain	43.0			sub-pilot013	250	13	43	45.5	COM11	COM7	COM3	2023-10-27_10h29.06.539	001-EEG_SVR_Officel	2022.2.5	143.80212827063897		11.02800000000002	1_sub-pilot013_SVR_EEG_block3-4.protocol.csv	step27	3165	313.942	STIMULATE	43.0	42.9	42.9	42.9	43.0	27	1099.151
1087.16	0	543580	40hz	9	2	0	2	0	12.0	0.0	12.0	0.0						1299.1801092000003	1306.3618374999996	1306.3618374999996	3.0	['3', 'return']	[2.3800037999999404, 3.0680158000004667]	7.17	5.31	0.0	40hz	low_pain	43.0			sub-pilot013	250	13	43	45.5	COM11	COM7	COM3	2023-10-27_10h29.06.539	001-EEG_SVR_Officel	2022.2.5	143.80212827063897		7.170000000000073	1_sub-pilot013_SVR_EEG_block3-4.protocol.csv	step27	3165	313.942	STIMULATE	43.0	42.9	42.9	42.9	43.0	27	1099.151
1093.22	0	546610	40/Lo	8	2	0	2	0	12.0	0.0	12.0	0.0						1299.1801092000003	1306.3618374999996	1306.3618374999996	3.0	['3', 'return']	[2.3800037999999404, 3.0680158000004667]	7.17	5.31	0.0	40hz	low_pain	43.0			sub-pilot013	250	13	43	45.5	COM11	COM7	COM3	2023-10-27_10h29.06.539	001-EEG_SVR_Officel	2022.2.5	143.80212827063897		5.309999999999945	1_sub-pilot013_SVR_EEG_block3-4.protocol.csv	step27	3165	313.942	STIMULATE	43.0	42.9	42.9	42.9	43.0	27	1099.151
1103.248	0	551624	wait	21	2	0	2	0	13.0	0.0	13.0	0.0						1322.4394116000003	1328.3297574999997	1328.3297574999997	2.0	['2', 'return']	[2.2764501000001474, 2.9408675999993648]	5.88	5.68	1.0	20hz	low_pain	43.0			sub-pilot013	250	13	43	45.5	COM11	COM7	COM3	2023-10-27_10h29.06.539	001-EEG_SVR_Officel	2022.2.5	143.80212827063897		10.77800000000002	1_sub-pilot013_SVR_EEG_block3-4.protocol.csv	step29	3390	336.273	STIMULATE	43.1	42.9	42.9	42.9	42.9	29	1121.482
1109.126	0	554563	20hz	6	2	0	2	0	13.0	0.0	13.0	0.0						1322.4394116000003	1328.3297574999997	1328.3297574999997	2.0	['2', 'return']	[2.2764501000001474, 2.9408675999993648]	5.88	5.68	1.0	20hz	low_pain	43.0			sub-pilot013	250	13	43	45.5	COM11	COM7	COM3	2023-10-27_10h29.06.539	001-EEG_SVR_Officel	2022.2.5	143.80212827063897		5.877999999999929	1_sub-pilot013_SVR_EEG_block3-4.protocol.csv	step29	3390	336.273	STIMULATE	43.1	42.9	42.9	42.9	42.9	29	1121.482
1115.556	0	557778	20/Lo	5	2	0	2	0	13.0	0.0	13.0	0.0						1322.4394116000003	1328.3297574999997	1328.3297574999997	2.0	['2', 'return']	[2.2764501000001474, 2.9408675999993648]	5.88	5.68	1.0	20hz	low_pain	43.0			sub-pilot013	250	13	43	45.5	COM11	COM7	COM3	2023-10-27_10h29.06.539	001-EEG_SVR_Officel	2022.2.5	143.80212827063897		5.680000000000064	1_sub-pilot013_SVR_EEG_block3-4.protocol.csv	step29	3390	336.273	STIMULATE	43.1	42.9	42.9	42.9	42.9	29	1121.482
1125.098	0	562549	wait	21	2	0	2	0	14.0	0.0	14.0	0.0						1344.2900029000002	1351.7909529999995	1351.7909529999995	3.0	['3', 'return']	[2.3276348999997936, 3.158255000000281]	7.49	6.33	2.0	10hz	low_pain	43.0			sub-pilot013	250	13	43	45.5	COM11	COM7	COM3	2023-10-27_10h29.06.539	001-EEG_SVR_Officel	2022.2.5	143.80212827063897		10.291999999999916	1_sub-pilot013_SVR_EEG_block3-4.protocol.csv	step31	3633	360.389	STIMULATE	43.1	42.8	42.9	42.9	42.9	31	1145.598
1132.588	0	566294	10hz	3	2	0	2	0	14.0	0.0	14.0	0.0						1344.2900029000002	1351.7909529999995	1351.7909529999995	3.0	['3', 'return']	[2.3276348999997936, 3.158255000000281]	7.49	6.33	2.0	10hz	low_pain	43.0			sub-pilot013	250	13	43	45.5	COM11	COM7	COM3	2023-10-27_10h29.06.539	001-EEG_SVR_Officel	2022.2.5	143.80212827063897		7.490000000000009	1_sub-pilot013_SVR_EEG_block3-4.protocol.csv	step31	3633	360.389	STIMULATE	43.1	42.8	42.9	42.9	42.9	31	1145.598
1139.67	0	569835	10/Lo	2	2	0	2	0	14.0	0.0	14.0	0.0						1344.2900029000002	1351.7909529999995	1351.7909529999995	3.0	['3', 'return']	[2.3276348999997936, 3.158255000000281]	7.49	6.33	2.0	10hz	low_pain	43.0			sub-pilot013	250	13	43	45.5	COM11	COM7	COM3	2023-10-27_10h29.06.539	001-EEG_SVR_Officel	2022.2.5	143.80212827063897		6.332000000000107	1_sub-pilot013_SVR_EEG_block3-4.protocol.csv	step31	3633	360.389	STIMULATE	43.1	42.8	42.9	42.9	42.9	31	1145.598
1148.776	0	574388	wait	21	2	0	2	0	15.0	0.0	15.0	0.0						1367.9665936	1373.8560731999996	1373.8560731999996	7.0	['7', 'return']	[2.2057740999998714, 3.0369348999993235]	5.88	5.12	3.0	10hz	high_pain	45.5			sub-pilot013	250	13	43	45.5	COM11	COM7	COM3	2023-10-27_10h29.06.539	001-EEG_SVR_Officel	2022.2.5	143.80212827063897		9.855999999999995	1_sub-pilot013_SVR_EEG_block3-4.protocol.csv	step33	3844	381.238	STIMULATE	45.5	45.4	45.4	45.4	45.5	33	1166.4470000000001
1154.652	0	577326	10hz	3	2	0	2	0	15.0	0.0	15.0	0.0						1367.9665936	1373.8560731999996	1373.8560731999996	7.0	['7', 'return']	[2.2057740999998714, 3.0369348999993235]	5.88	5.12	3.0	10hz	high_pain	45.5			sub-pilot013	250	13	43	45.5	COM11	COM7	COM3	2023-10-27_10h29.06.539	001-EEG_SVR_Officel	2022.2.5	143.80212827063897		5.875999999999976	1_sub-pilot013_SVR_EEG_block3-4.protocol.csv	step33	3844	381.238	STIMULATE	45.5	45.4	45.4	45.4	45.5	33	1166.4470000000001
1160.526	0	580263	10/Hi	1	2	0	2	0	15.0	0.0	15.0	0.0						1367.9665936	1373.8560731999996	1373.8560731999996	7.0	['7', 'return']	[2.2057740999998714, 3.0369348999993235]	5.88	5.12	3.0	10hz	high_pain	45.5			sub-pilot013	250	13	43	45.5	COM11	COM7	COM3	2023-10-27_10h29.06.539	001-EEG_SVR_Officel	2022.2.5	143.80212827063897		5.124000000000024	1_sub-pilot013_SVR_EEG_block3-4.protocol.csv	step33	3844	381.238	STIMULATE	45.5	45.4	45.4	45.4	45.5	33	1166.4470000000001
1200.92	0	600460	wait	21	3	0	3	0	0.0	0.0	0.0	0.0				p	0.4437809000000925	1420.1122272000002	1425.2095803000002	1425.2095803000002	2.0	['2', 'return']	[2.148383699999613, 2.7243577999997797]	5.09	6.2	0.0	controle	low_pain	43.0			sub-pilot013	250	13	43	45.5	COM11	COM7	COM3	2023-10-27_10h29.06.539	001-EEG_SVR_Officel	2022.2.5	143.80212827063897		41.144000000000005	1_sub-pilot013_SVR_EEG_block3-4.protocol.csv	step35	4371	433.727	STIMULATE	43.0	42.8	42.9	42.9	43.1	35	1218.858
1206.006	0	603003	CNhz	12	3	0	3	0	0.0	0.0	0.0	0.0				p	0.4437809000000925	1420.1122272000002	1425.2095803000002	1425.2095803000002	2.0	['2', 'return']	[2.148383699999613, 2.7243577999997797]	5.09	6.2	0.0	controle	low_pain	43.0			sub-pilot013	250	13	43	45.5	COM11	COM7	COM3	2023-10-27_10h29.06.539	001-EEG_SVR_Officel	2022.2.5	143.80212827063897		5.086000000000013	1_sub-pilot013_SVR_EEG_block3-4.protocol.csv	step35	4371	433.727	STIMULATE	43.0	42.8	42.9	42.9	43.1	35	1218.858
1212.956	0	606478	CN/Lo	11	3	0	3	0	0.0	0.0	0.0	0.0				p	0.4437809000000925	1420.1122272000002	1425.2095803000002	1425.2095803000002	2.0	['2', 'return']	[2.148383699999613, 2.7243577999997797]	5.09	6.2	0.0	controle	low_pain	43.0			sub-pilot013	250	13	43	45.5	COM11	COM7	COM3	2023-10-27_10h29.06.539	001-EEG_SVR_Officel	2022.2.5	143.80212827063897		6.199999999999818	1_sub-pilot013_SVR_EEG_block3-4.protocol.csv	step35	4371	433.727	STIMULATE	43.0	42.8	42.9	42.9	43.1	35	1218.858
1221.756	0	610878	wait	21	3	0	3	0	1.0	0.0	1.0	0.0						1440.9474289999998	1447.4069836999995	1447.4069836999995	2.0	['2', 'return']	[2.59180809999998, 3.2162201999999525]	6.45	6.17	1.0	controle	low_pain	43.0			sub-pilot013	250	13	43	45.5	COM11	COM7	COM3	2023-10-27_10h29.06.539	001-EEG_SVR_Officel	2022.2.5	143.80212827063897		9.550000000000182	1_sub-pilot013_SVR_EEG_block3-4.protocol.csv	step37	4594	455.853	STIMULATE	43.1	42.9	42.9	42.9	42.9	37	1240.984
1228.202	0	614101	CNhz	12	3	0	3	0	1.0	0.0	1.0	0.0						1440.9474289999998	1447.4069836999995	1447.4069836999995	2.0	['2', 'return']	[2.59180809999998, 3.2162201999999525]	6.45	6.17	1.0	controle	low_pain	43.0			sub-pilot013	250	13	43	45.5	COM11	COM7	COM3	2023-10-27_10h29.06.539	001-EEG_SVR_Officel	2022.2.5	143.80212827063897		6.445999999999913	1_sub-pilot013_SVR_EEG_block3-4.protocol.csv	step37	4594	455.853	STIMULATE	43.1	42.9	42.9	42.9	42.9	37	1240.984
1235.126	0	617563	CN/Lo	11	3	0	3	0	1.0	0.0	1.0	0.0						1440.9474289999998	1447.4069836999995	1447.4069836999995	2.0	['2', 'return']	[2.59180809999998, 3.2162201999999525]	6.45	6.17	1.0	controle	low_pain	43.0			sub-pilot013	250	13	43	45.5	COM11	COM7	COM3	2023-10-27_10h29.06.539	001-EEG_SVR_Officel	2022.2.5	143.80212827063897		6.173999999999978	1_sub-pilot013_SVR_EEG_block3-4.protocol.csv	step37	4594	455.853	STIMULATE	43.1	42.9	42.9	42.9	42.9	37	1240.984
1244.446	0	622223	wait	21	3	0	3	0	2.0	0.0	2.0	0.0						1463.6377078000005	1469.5968589000004	1469.5968589000004	6.0	['6', 'return']	[2.904191499999797, 3.305233899999621]	5.95	6.32	2.0	10hz	high_pain	45.5			sub-pilot013	250	13	43	45.5	COM11	COM7	COM3	2023-10-27_10h29.06.539	001-EEG_SVR_Officel	2022.2.5	143.80212827063897		10.069999999999936	1_sub-pilot013_SVR_EEG_block3-4.protocol.csv	step39	4819	478.175	STIMULATE	45.6	45.4	45.4	45.4	45.5	39	1263.306
1250.394	0	625197	10hz	3	3	0	3	0	2.0	0.0	2.0	0.0						1463.6377078000005	1469.5968589000004	1469.5968589000004	6.0	['6', 'return']	[2.904191499999797, 3.305233899999621]	5.95	6.32	2.0	10hz	high_pain	45.5			sub-pilot013	250	13	43	45.5	COM11	COM7	COM3	2023-10-27_10h29.06.539	001-EEG_SVR_Officel	2022.2.5	143.80212827063897		5.948000000000093	1_sub-pilot013_SVR_EEG_block3-4.protocol.csv	step39	4819	478.175	STIMULATE	45.6	45.4	45.4	45.4	45.5	39	1263.306
1257.462	0	628731	10/Hi	1	3	0	3	0	2.0	0.0	2.0	0.0						1463.6377078000005	1469.5968589000004	1469.5968589000004	6.0	['6', 'return']	[2.904191499999797, 3.305233899999621]	5.95	6.32	2.0	10hz	high_pain	45.5			sub-pilot013	250	13	43	45.5	COM11	COM7	COM3	2023-10-27_10h29.06.539	001-EEG_SVR_Officel	2022.2.5	143.80212827063897		6.317999999999984	1_sub-pilot013_SVR_EEG_block3-4.protocol.csv	step39	4819	478.175	STIMULATE	45.6	45.4	45.4	45.4	45.5	39	1263.306
1266.72	0	633360	wait	21	3	0	3	0	3.0	0.0	3.0	0.0						1485.9107415999997	1492.1474335000005	1492.1474335000005	7.0	['7', 'return']	[2.6255780999999843, 3.168935099999544]	6.23	5.34	3.0	controle	high_pain	45.5			sub-pilot013	250	13	43	45.5	COM11	COM7	COM3	2023-10-27_10h29.06.539	001-EEG_SVR_Officel	2022.2.5	143.80212827063897		10.008000000000038	1_sub-pilot013_SVR_EEG_block3-4.protocol.csv	step41	5037	499.758	STIMULATE	45.5	45.4	45.4	45.4	45.5	41	1284.889
1272.944	0	636472	CNhz	12	3	0	3	0	3.0	0.0	3.0	0.0						1485.9107415999997	1492.1474335000005	1492.1474335000005	7.0	['7', 'return']	[2.6255780999999843, 3.168935099999544]	6.23	5.34	3.0	controle	high_pain	45.5			sub-pilot013	250	13	43	45.5	COM11	COM7	COM3	2023-10-27_10h29.06.539	001-EEG_SVR_Officel	2022.2.5	143.80212827063897		6.223999999999933	1_sub-pilot013_SVR_EEG_block3-4.protocol.csv	step41	5037	499.758	STIMULATE	45.5	45.4	45.4	45.4	45.5	41	1284.889
1279.032	0	639516	CN/Hi	10	3	0	3	0	3.0	0.0	3.0	0.0						1485.9107415999997	1492.1474335000005	1492.1474335000005	7.0	['7', 'return']	[2.6255780999999843, 3.168935099999544]	6.23	5.34	3.0	controle	high_pain	45.5			sub-pilot013	250	13	43	45.5	COM11	COM7	COM3	2023-10-27_10h29.06.539	001-EEG_SVR_Officel	2022.2.5	143.80212827063897		5.337999999999965	1_sub-pilot013_SVR_EEG_block3-4.protocol.csv	step41	5037	499.758	STIMULATE	45.5	45.4	45.4	45.4	45.5	41	1284.889
1289.146	0	644573	wait	21	3	0	3	0	4.0	0.0	4.0	0.0						1508.3381961000005	1515.2766051999995	1515.2766051999995	7.0	['7', 'return']	[2.9940262000000075, 3.434535099999266]	6.93	5.54	0.0	40hz	high_pain	45.5			sub-pilot013	250	13	43	45.5	COM11	COM7	COM3	2023-10-27_10h29.06.539	001-EEG_SVR_Officel	2022.2.5	143.80212827063897		10.864000000000033	1_sub-pilot013_SVR_EEG_block3-4.protocol.csv	step43	5272	523.089	STIMULATE	45.6	45.4	45.4	45.4	45.5	43	1308.22
1296.072	0	648036	40hz	9	3	0	3	0	4.0	0.0	4.0	0.0						1508.3381961000005	1515.2766051999995	1515.2766051999995	7.0	['7', 'return']	[2.9940262000000075, 3.434535099999266]	6.93	5.54	0.0	40hz	high_pain	45.5			sub-pilot013	250	13	43	45.5	COM11	COM7	COM3	2023-10-27_10h29.06.539	001-EEG_SVR_Officel	2022.2.5	143.80212827063897		6.925999999999931	1_sub-pilot013_SVR_EEG_block3-4.protocol.csv	step43	5272	523.089	STIMULATE	45.6	45.4	45.4	45.4	45.5	43	1308.22
1302.364	0	651182	40/Hi	7	3	0	3	0	4.0	0.0	4.0	0.0						1508.3381961000005	1515.2766051999995	1515.2766051999995	7.0	['7', 'return']	[2.9940262000000075, 3.434535099999266]	6.93	5.54	0.0	40hz	high_pain	45.5			sub-pilot013	250	13	43	45.5	COM11	COM7	COM3	2023-10-27_10h29.06.539	001-EEG_SVR_Officel	2022.2.5	143.80212827063897		5.542000000000144	1_sub-pilot013_SVR_EEG_block3-4.protocol.csv	step43	5272	523.089	STIMULATE	45.6	45.4	45.4	45.4	45.5	43	1308.22
1312.538	0	656269	wait	21	3	0	3	0	5.0	0.0	5.0	0.0						1531.7293376999996	1537.4660181	1537.4660181	2.0	['2', 'return']	[2.9648032000004605, 3.8999201000005996]	5.73	5.74	1.0	40hz	low_pain	43.0			sub-pilot013	250	13	43	45.5	COM11	COM7	COM3	2023-10-27_10h29.06.539	001-EEG_SVR_Officel	2022.2.5	143.80212827063897		10.923999999999978	1_sub-pilot013_SVR_EEG_block3-4.protocol.csv	step45	5498	545.461	STIMULATE	42.9	42.9	42.9	42.9	43.0	45	1330.5919999999999
1318.262	0	659131	40hz	9	3	0	3	0	5.0	0.0	5.0	0.0						1531.7293376999996	1537.4660181	1537.4660181	2.0	['2', 'return']	[2.9648032000004605, 3.8999201000005996]	5.73	5.74	1.0	40hz	low_pain	43.0			sub-pilot013	250	13	43	45.5	COM11	COM7	COM3	2023-10-27_10h29.06.539	001-EEG_SVR_Officel	2022.2.5	143.80212827063897		5.723999999999933	1_sub-pilot013_SVR_EEG_block3-4.protocol.csv	step45	5498	545.461	STIMULATE	42.9	42.9	42.9	42.9	43.0	45	1330.5919999999999
1324.754	0	662377	40/Lo	8	3	0	3	0	5.0	0.0	5.0	0.0						1531.7293376999996	1537.4660181	1537.4660181	2.0	['2', 'return']	[2.9648032000004605, 3.8999201000005996]	5.73	5.74	1.0	40hz	low_pain	43.0			sub-pilot013	250	13	43	45.5	COM11	COM7	COM3	2023-10-27_10h29.06.539	001-EEG_SVR_Officel	2022.2.5	143.80212827063897		5.741999999999962	1_sub-pilot013_SVR_EEG_block3-4.protocol.csv	step45	5498	545.461	STIMULATE	42.9	42.9	42.9	42.9	43.0	45	1330.5919999999999
1335.192	0	667596	wait	21	3	0	3	0	6.0	0.0	6.0	0.0						1554.3848224000003	1560.7661134999998	1560.7661134999998	6.0	['6', 'return']	[3.806798399999934, 4.487186800000018]	6.38	5.32	2.0	20hz	high_pain	45.5			sub-pilot013	250	13	43	45.5	COM11	COM7	COM3	2023-10-27_10h29.06.539	001-EEG_SVR_Officel	2022.2.5	143.80212827063897		11.188000000000102	1_sub-pilot013_SVR_EEG_block3-4.protocol.csv	step47	5729	568.379	STIMULATE	45.6	45.4	45.4	45.4	45.5	47	1353.51
1341.57	0	670785	20hz	6	3	0	3	0	6.0	0.0	6.0	0.0						1554.3848224000003	1560.7661134999998	1560.7661134999998	6.0	['6', 'return']	[3.806798399999934, 4.487186800000018]	6.38	5.32	2.0	20hz	high_pain	45.5			sub-pilot013	250	13	43	45.5	COM11	COM7	COM3	2023-10-27_10h29.06.539	001-EEG_SVR_Officel	2022.2.5	143.80212827063897		6.377999999999929	1_sub-pilot013_SVR_EEG_block3-4.protocol.csv	step47	5729	568.379	STIMULATE	45.6	45.4	45.4	45.4	45.5	47	1353.51
1347.638	0	673819	20/Hi	4	3	0	3	0	6.0	0.0	6.0	0.0						1554.3848224000003	1560.7661134999998	1560.7661134999998	6.0	['6', 'return']	[3.806798399999934, 4.487186800000018]	6.38	5.32	2.0	20hz	high_pain	45.5			sub-pilot013	250	13	43	45.5	COM11	COM7	COM3	2023-10-27_10h29.06.539	001-EEG_SVR_Officel	2022.2.5	143.80212827063897		5.317999999999984	1_sub-pilot013_SVR_EEG_block3-4.protocol.csv	step47	5729	568.379	STIMULATE	45.6	45.4	45.4	45.4	45.5	47	1353.51
1359.092	0	679546	wait	21	3	0	3	0	7.0	0.0	7.0	0.0						1578.2834082	1585.2008910000004	1585.2008910000004	6.0	['6', 'return']	[3.077582999999322, 3.6367847000001348]	6.91	5.12	3.0	20hz	high_pain	45.5			sub-pilot013	250	13	43	45.5	COM11	COM7	COM3	2023-10-27_10h29.06.539	001-EEG_SVR_Officel	2022.2.5	143.80212827063897		12.204000000000178	1_sub-pilot013_SVR_EEG_block3-4.protocol.csv	step49	5974	592.662	STIMULATE	45.5	45.4	45.4	45.5	45.5	49	1377.793
1365.996	0	682998	20hz	6	3	0	3	0	7.0	0.0	7.0	0.0						1578.2834082	1585.2008910000004	1585.2008910000004	6.0	['6', 'return']	[3.077582999999322, 3.6367847000001348]	6.91	5.12	3.0	20hz	high_pain	45.5			sub-pilot013	250	13	43	45.5	COM11	COM7	COM3	2023-10-27_10h29.06.539	001-EEG_SVR_Officel	2022.2.5	143.80212827063897		6.903999999999996	1_sub-pilot013_SVR_EEG_block3-4.protocol.csv	step49	5974	592.662	STIMULATE	45.5	45.4	45.4	45.5	45.5	49	1377.793
1371.87	0	685935	20/Hi	4	3	0	3	0	7.0	0.0	7.0	0.0						1578.2834082	1585.2008910000004	1585.2008910000004	6.0	['6', 'return']	[3.077582999999322, 3.6367847000001348]	6.91	5.12	3.0	20hz	high_pain	45.5			sub-pilot013	250	13	43	45.5	COM11	COM7	COM3	2023-10-27_10h29.06.539	001-EEG_SVR_Officel	2022.2.5	143.80212827063897		5.123999999999796	1_sub-pilot013_SVR_EEG_block3-4.protocol.csv	step49	5974	592.662	STIMULATE	45.5	45.4	45.4	45.5	45.5	49	1377.793
1382.662	0	691331	wait	21	3	0	3	0	8.0	0.0	8.0	0.0						1601.8556676999997	1607.6543149	1607.6543149	5.0	['5', 'return']	[2.270238399999471, 2.854719699999805]	5.79	6.37	0.0	10hz	low_pain	43.0			sub-pilot013	250	13	43	45.5	COM11	COM7	COM3	2023-10-27_10h29.06.539	001-EEG_SVR_Officel	2022.2.5	143.80212827063897		11.542000000000144	1_sub-pilot013_SVR_EEG_block3-4.protocol.csv	step51	6212	616.284	STIMULATE	43.1	42.9	42.9	42.8	43.0	51	1401.415
1388.45	0	694225	10hz	3	3	0	3	0	8.0	0.0	8.0	0.0						1601.8556676999997	1607.6543149	1607.6543149	5.0	['5', 'return']	[2.270238399999471, 2.854719699999805]	5.79	6.37	0.0	10hz	low_pain	43.0			sub-pilot013	250	13	43	45.5	COM11	COM7	COM3	2023-10-27_10h29.06.539	001-EEG_SVR_Officel	2022.2.5	143.80212827063897		5.788000000000011	1_sub-pilot013_SVR_EEG_block3-4.protocol.csv	step51	6212	616.284	STIMULATE	43.1	42.9	42.9	42.8	43.0	51	1401.415
1395.574	0	697787	10/Lo	2	3	0	3	0	8.0	0.0	8.0	0.0						1601.8556676999997	1607.6543149	1607.6543149	5.0	['5', 'return']	[2.270238399999471, 2.854719699999805]	5.79	6.37	0.0	10hz	low_pain	43.0			sub-pilot013	250	13	43	45.5	COM11	COM7	COM3	2023-10-27_10h29.06.539	001-EEG_SVR_Officel	2022.2.5	143.80212827063897		6.374000000000024	1_sub-pilot013_SVR_EEG_block3-4.protocol.csv	step51	6212	616.284	STIMULATE	43.1	42.9	42.9	42.8	43.0	51	1401.415
1404.34	0	702170	wait	21	3	0	3	0	9.0	0.0	9.0	0.0						1623.5318954000004	1629.7276505	1629.7276505	3.0	['3', 'return']	[3.766532200000256, 4.437536500000533]	6.19	6.26	1.0	10hz	low_pain	43.0			sub-pilot013	250	13	43	45.5	COM11	COM7	COM3	2023-10-27_10h29.06.539	001-EEG_SVR_Officel	2022.2.5	143.80212827063897		9.515999999999849	1_sub-pilot013_SVR_EEG_block3-4.protocol.csv	step53	6434	638.287	STIMULATE	42.9	42.9	42.9	42.9	42.9	53	1423.418
1410.524	0	705262	10hz	3	3	0	3	0	9.0	0.0	9.0	0.0						1623.5318954000004	1629.7276505	1629.7276505	3.0	['3', 'return']	[3.766532200000256, 4.437536500000533]	6.19	6.26	1.0	10hz	low_pain	43.0			sub-pilot013	250	13	43	45.5	COM11	COM7	COM3	2023-10-27_10h29.06.539	001-EEG_SVR_Officel	2022.2.5	143.80212827063897		6.183999999999969	1_sub-pilot013_SVR_EEG_block3-4.protocol.csv	step53	6434	638.287	STIMULATE	42.9	42.9	42.9	42.9	42.9	53	1423.418
1417.536	0	708768	10/Lo	2	3	0	3	0	9.0	0.0	9.0	0.0						1623.5318954000004	1629.7276505	1629.7276505	3.0	['3', 'return']	[3.766532200000256, 4.437536500000533]	6.19	6.26	1.0	10hz	low_pain	43.0			sub-pilot013	250	13	43	45.5	COM11	COM7	COM3	2023-10-27_10h29.06.539	001-EEG_SVR_Officel	2022.2.5	143.80212827063897		6.262000000000171	1_sub-pilot013_SVR_EEG_block3-4.protocol.csv	step53	6434	638.287	STIMULATE	42.9	42.9	42.9	42.9	42.9	53	1423.418
1427.988	0	713994	wait	21	3	0	3	0	10.0	0.0	10.0	0.0						1647.1810275999997	1652.5909578	1652.5909578	4.0	['4', 'return']	[2.4551659999997355, 3.06302979999964]	5.4	5.08	2.0	controle	high_pain	45.5			sub-pilot013	250	13	43	45.5	COM11	COM7	COM3	2023-10-27_10h29.06.539	001-EEG_SVR_Officel	2022.2.5	143.80212827063897		11.201999999999998	1_sub-pilot013_SVR_EEG_block3-4.protocol.csv	step55	6653	659.992	STIMULATE	45.5	45.4	45.4	45.4	45.5	55	1445.1229999999998
1433.386	0	716693	CNhz	12	3	0	3	0	10.0	0.0	10.0	0.0						1647.1810275999997	1652.5909578	1652.5909578	4.0	['4', 'return']	[2.4551659999997355, 3.06302979999964]	5.4	5.08	2.0	controle	high_pain	45.5			sub-pilot013	250	13	43	45.5	COM11	COM7	COM3	2023-10-27_10h29.06.539	001-EEG_SVR_Officel	2022.2.5	143.80212827063897		5.397999999999911	1_sub-pilot013_SVR_EEG_block3-4.protocol.csv	step55	6653	659.992	STIMULATE	45.5	45.4	45.4	45.4	45.5	55	1445.1229999999998
1439.218	0	719609	CN/Hi	10	3	0	3	0	10.0	0.0	10.0	0.0						1647.1810275999997	1652.5909578	1652.5909578	4.0	['4', 'return']	[2.4551659999997355, 3.06302979999964]	5.4	5.08	2.0	controle	high_pain	45.5			sub-pilot013	250	13	43	45.5	COM11	COM7	COM3	2023-10-27_10h29.06.539	001-EEG_SVR_Officel	2022.2.5	143.80212827063897		5.082000000000107	1_sub-pilot013_SVR_EEG_block3-4.protocol.csv	step55	6653	659.992	STIMULATE	45.5	45.4	45.4	45.4	45.5	55	1445.1229999999998
1449.484	0	724742	wait	21	3	0	3	0	11.0	0.0	11.0	0.0						1668.6762131000005	1676.642503	1676.642503	3.0	['3', 'return']	[3.508167500000127, 4.275652199999968]	7.96	6.37	3.0	controle	low_pain	43.0			sub-pilot013	250	13	43	45.5	COM11	COM7	COM3	2023-10-27_10h29.06.539	001-EEG_SVR_Officel	2022.2.5	143.80212827063897		11.015999999999849	1_sub-pilot013_SVR_EEG_block3-4.protocol.csv	step57	6908	685.256	STIMULATE	42.9	42.9	42.9	42.9	42.9	57	1470.387
1457.438	0	728719	CNhz	12	3	0	3	0	11.0	0.0	11.0	0.0						1668.6762131000005	1676.642503	1676.642503	3.0	['3', 'return']	[3.508167500000127, 4.275652199999968]	7.96	6.37	3.0	controle	low_pain	43.0			sub-pilot013	250	13	43	45.5	COM11	COM7	COM3	2023-10-27_10h29.06.539	001-EEG_SVR_Officel	2022.2.5	143.80212827063897		7.954000000000178	1_sub-pilot013_SVR_EEG_block3-4.protocol.csv	step57	6908	685.256	STIMULATE	42.9	42.9	42.9	42.9	42.9	57	1470.387
1464.562	0	732281	CN/Lo	11	3	0	3	0	11.0	0.0	11.0	0.0						1668.6762131000005	1676.642503	1676.642503	3.0	['3', 'return']	[3.508167500000127, 4.275652199999968]	7.96	6.37	3.0	controle	low_pain	43.0			sub-pilot013	250	13	43	45.5	COM11	COM7	COM3	2023-10-27_10h29.06.539	001-EEG_SVR_Officel	2022.2.5	143.80212827063897		6.373999999999796	1_sub-pilot013_SVR_EEG_block3-4.protocol.csv	step57	6908	685.256	STIMULATE	42.9	42.9	42.9	42.9	42.9	57	1470.387
1474.738	0	737369	wait	21	3	0	3	0	12.0	0.0	12.0	0.0						1693.9292035	1700.7915103000005	1700.7915103000005	6.0	['6', 'return']	[2.742881899999702, 3.343753299999662]	6.85	5.49	0.0	10hz	high_pain	45.5			sub-pilot013	250	13	43	45.5	COM11	COM7	COM3	2023-10-27_10h29.06.539	001-EEG_SVR_Officel	2022.2.5	143.80212827063897		10.926000000000158	1_sub-pilot013_SVR_EEG_block3-4.protocol.csv	step59	7143	708.541	STIMULATE	45.7	45.4	45.4	45.4	45.6	59	1493.672
1481.586	0	740793	10hz	3	3	0	3	0	12.0	0.0	12.0	0.0						1693.9292035	1700.7915103000005	1700.7915103000005	6.0	['6', 'return']	[2.742881899999702, 3.343753299999662]	6.85	5.49	0.0	10hz	high_pain	45.5			sub-pilot013	250	13	43	45.5	COM11	COM7	COM3	2023-10-27_10h29.06.539	001-EEG_SVR_Officel	2022.2.5	143.80212827063897		6.847999999999956	1_sub-pilot013_SVR_EEG_block3-4.protocol.csv	step59	7143	708.541	STIMULATE	45.7	45.4	45.4	45.4	45.6	59	1493.672
1487.828	0	743914	10/Hi	1	3	0	3	0	12.0	0.0	12.0	0.0						1693.9292035	1700.7915103000005	1700.7915103000005	6.0	['6', 'return']	[2.742881899999702, 3.343753299999662]	6.85	5.49	0.0	10hz	high_pain	45.5			sub-pilot013	250	13	43	45.5	COM11	COM7	COM3	2023-10-27_10h29.06.539	001-EEG_SVR_Officel	2022.2.5	143.80212827063897		5.491999999999962	1_sub-pilot013_SVR_EEG_block3-4.protocol.csv	step59	7143	708.541	STIMULATE	45.7	45.4	45.4	45.4	45.6	59	1493.672
1497.96	0	748980	wait	21	3	0	3	0	13.0	0.0	13.0	0.0						1717.1542553999998	1724.7177675000005	1724.7177675000005	7.0	['7', 'return']	[2.3511148999996294, 2.952758399999766]	7.55	6.32	1.0	20hz	high_pain	45.5			sub-pilot013	250	13	43	45.5	COM11	COM7	COM3	2023-10-27_10h29.06.539	001-EEG_SVR_Officel	2022.2.5	143.80212827063897		10.882000000000062	1_sub-pilot013_SVR_EEG_block3-4.protocol.csv	step61	7393	733.321	STIMULATE	45.6	45.4	45.4	45.4	45.5	61	1518.452
1505.512	0	752756	20hz	6	3	0	3	0	13.0	0.0	13.0	0.0						1717.1542553999998	1724.7177675000005	1724.7177675000005	7.0	['7', 'return']	[2.3511148999996294, 2.952758399999766]	7.55	6.32	1.0	20hz	high_pain	45.5			sub-pilot013	250	13	43	45.5	COM11	COM7	COM3	2023-10-27_10h29.06.539	001-EEG_SVR_Officel	2022.2.5	143.80212827063897		7.551999999999907	1_sub-pilot013_SVR_EEG_block3-4.protocol.csv	step61	7393	733.321	STIMULATE	45.6	45.4	45.4	45.4	45.5	61	1518.452
1512.58	0	756290	20/Hi	4	3	0	3	0	13.0	0.0	13.0	0.0						1717.1542553999998	1724.7177675000005	1724.7177675000005	7.0	['7', 'return']	[2.3511148999996294, 2.952758399999766]	7.55	6.32	1.0	20hz	high_pain	45.5			sub-pilot013	250	13	43	45.5	COM11	COM7	COM3	2023-10-27_10h29.06.539	001-EEG_SVR_Officel	2022.2.5	143.80212827063897		6.317999999999984	1_sub-pilot013_SVR_EEG_block3-4.protocol.csv	step61	7393	733.321	STIMULATE	45.6	45.4	45.4	45.4	45.5	61	1518.452
1521.498	0	760749	wait	21	3	0	3	0	14.0	0.0	14.0	0.0						1740.6921314	1748.6796193	1748.6796193	4.0	['4', 'return']	[3.1827141000003394, 4.183513599999969]	7.98	5.23	2.0	controle	low_pain	43.0			sub-pilot013	250	13	43	45.5	COM11	COM7	COM3	2023-10-27_10h29.06.539	001-EEG_SVR_Officel	2022.2.5	143.80212827063897		9.66800000000012	1_sub-pilot013_SVR_EEG_block3-4.protocol.csv	step63	7624	756.273	STIMULATE	42.9	42.8	42.9	42.9	42.9	63	1541.404
1529.474	0	764737	CNhz	12	3	0	3	0	14.0	0.0	14.0	0.0						1740.6921314	1748.6796193	1748.6796193	4.0	['4', 'return']	[3.1827141000003394, 4.183513599999969]	7.98	5.23	2.0	controle	low_pain	43.0			sub-pilot013	250	13	43	45.5	COM11	COM7	COM3	2023-10-27_10h29.06.539	001-EEG_SVR_Officel	2022.2.5	143.80212827063897		7.975999999999885	1_sub-pilot013_SVR_EEG_block3-4.protocol.csv	step63	7624	756.273	STIMULATE	42.9	42.8	42.9	42.9	42.9	63	1541.404
1535.46	0	767730	CN/Lo	11	3	0	3	0	14.0	0.0	14.0	0.0						1740.6921314	1748.6796193	1748.6796193	4.0	['4', 'return']	[3.1827141000003394, 4.183513599999969]	7.98	5.23	2.0	controle	low_pain	43.0			sub-pilot013	250	13	43	45.5	COM11	COM7	COM3	2023-10-27_10h29.06.539	001-EEG_SVR_Officel	2022.2.5	143.80212827063897		5.236000000000104	1_sub-pilot013_SVR_EEG_block3-4.protocol.csv	step63	7624	756.273	STIMULATE	42.9	42.8	42.9	42.9	42.9	63	1541.404
1546.69	0	773345	wait	21	3	0	3	0	15.0	0.0	15.0	0.0						1765.8830737999997	1770.9941776000005	1770.9941776000005	2.0	['2', 'return']	[3.484034399999473, 4.219914499999504]	5.1	5.19	3.0	20hz	low_pain	43.0			sub-pilot013	250	13	43	45.5	COM11	COM7	COM3	2023-10-27_10h29.06.539	001-EEG_SVR_Officel	2022.2.5	143.80212827063897		11.980000000000018	1_sub-pilot013_SVR_EEG_block3-4.protocol.csv	step65	7848	778.509	STIMULATE	42.9	42.9	42.9	42.9	42.9	65	1563.6399999999999
1551.788	0	775894	20hz	6	3	0	3	0	15.0	0.0	15.0	0.0						1765.8830737999997	1770.9941776000005	1770.9941776000005	2.0	['2', 'return']	[3.484034399999473, 4.219914499999504]	5.1	5.19	3.0	20hz	low_pain	43.0			sub-pilot013	250	13	43	45.5	COM11	COM7	COM3	2023-10-27_10h29.06.539	001-EEG_SVR_Officel	2022.2.5	143.80212827063897		5.097999999999956	1_sub-pilot013_SVR_EEG_block3-4.protocol.csv	step65	7848	778.509	STIMULATE	42.9	42.9	42.9	42.9	42.9	65	1563.6399999999999
1557.732	0	778866	20/Lo	5	3	0	3	0	15.0	0.0	15.0	0.0						1765.8830737999997	1770.9941776000005	1770.9941776000005	2.0	['2', 'return']	[3.484034399999473, 4.219914499999504]	5.1	5.19	3.0	20hz	low_pain	43.0			sub-pilot013	250	13	43	45.5	COM11	COM7	COM3	2023-10-27_10h29.06.539	001-EEG_SVR_Officel	2022.2.5	143.80212827063897		5.19399999999996	1_sub-pilot013_SVR_EEG_block3-4.protocol.csv	step65	7848	778.509	STIMULATE	42.9	42.9	42.9	42.9	42.9	65	1563.6399999999999
1599.424	0	799712	wait	21	4	0	4	0	0.0	0.0	0.0	0.0				p	0.4822675999994317	1818.6182148	1824.5496775	1824.5496775	2.0	['2', 'return']	[2.51336689999971, 3.3205951999998433]	5.92	5.64	0.0	controle	low_pain	43.0			sub-pilot013	250	13	43	45.5	COM11	COM7	COM3	2023-10-27_10h29.06.539	001-EEG_SVR_Officel	2022.2.5	143.80212827063897		42.44200000000001	2_sub-pilot013_SVR_EEG_block5-6.protocol.csv	step3	358	35.61	STIMULATE	43.0	42.9	42.9	42.8	42.9	3	1617.477
1605.344	0	802672	CNhz	12	4	0	4	0	0.0	0.0	0.0	0.0				p	0.4822675999994317	1818.6182148	1824.5496775	1824.5496775	2.0	['2', 'return']	[2.51336689999971, 3.3205951999998433]	5.92	5.64	0.0	controle	low_pain	43.0			sub-pilot013	250	13	43	45.5	COM11	COM7	COM3	2023-10-27_10h29.06.539	001-EEG_SVR_Officel	2022.2.5	143.80212827063897		5.920000000000073	2_sub-pilot013_SVR_EEG_block5-6.protocol.csv	step3	358	35.61	STIMULATE	43.0	42.9	42.9	42.8	42.9	3	1617.477
1611.738	0	805869	CN/Lo	11	4	0	4	0	0.0	0.0	0.0	0.0				p	0.4822675999994317	1818.6182148	1824.5496775	1824.5496775	2.0	['2', 'return']	[2.51336689999971, 3.3205951999998433]	5.92	5.64	0.0	controle	low_pain	43.0			sub-pilot013	250	13	43	45.5	COM11	COM7	COM3	2023-10-27_10h29.06.539	001-EEG_SVR_Officel	2022.2.5	143.80212827063897		5.6440000000000055	2_sub-pilot013_SVR_EEG_block5-6.protocol.csv	step3	358	35.61	STIMULATE	43.0	42.9	42.9	42.8	42.9	3	1617.477
1621.698	0	810849	wait	21	4	0	4	0	1.0	0.0	1.0	0.0						1840.8913064	1846.5378212000005	1846.5378212000005	2.0	['2', 'return']	[2.243991399999686, 4.699442699999963]	5.64	5.3	1.0	10hz	low_pain	43.0			sub-pilot013	250	13	43	45.5	COM11	COM7	COM3	2023-10-27_10h29.06.539	001-EEG_SVR_Officel	2022.2.5	143.80212827063897		10.710000000000036	2_sub-pilot013_SVR_EEG_block5-6.protocol.csv	step5	578	57.403	STIMULATE	43.0	42.9	42.9	42.9	42.9	5	1639.27
1627.332	0	813666	10hz	3	4	0	4	0	1.0	0.0	1.0	0.0						1840.8913064	1846.5378212000005	1846.5378212000005	2.0	['2', 'return']	[2.243991399999686, 4.699442699999963]	5.64	5.3	1.0	10hz	low_pain	43.0			sub-pilot013	250	13	43	45.5	COM11	COM7	COM3	2023-10-27_10h29.06.539	001-EEG_SVR_Officel	2022.2.5	143.80212827063897		5.6340000000000146	2_sub-pilot013_SVR_EEG_block5-6.protocol.csv	step5	578	57.403	STIMULATE	43.0	42.9	42.9	42.9	42.9	5	1639.27
1633.386	0	816693	10/Lo	2	4	0	4	0	1.0	0.0	1.0	0.0						1840.8913064	1846.5378212000005	1846.5378212000005	2.0	['2', 'return']	[2.243991399999686, 4.699442699999963]	5.64	5.3	1.0	10hz	low_pain	43.0			sub-pilot013	250	13	43	45.5	COM11	COM7	COM3	2023-10-27_10h29.06.539	001-EEG_SVR_Officel	2022.2.5	143.80212827063897		5.30399999999986	2_sub-pilot013_SVR_EEG_block5-6.protocol.csv	step5	578	57.403	STIMULATE	43.0	42.9	42.9	42.9	42.9	5	1639.27
1645.06	0	822530	wait	21	4	0	4	0	2.0	0.0	2.0	0.0						1864.2552632	1870.2142926	1870.2142926	5.0	['5', 'return']	[2.894859500000166, 3.3667733000002045]	5.95	6.08	2.0	controle	high_pain	45.5			sub-pilot013	250	13	43	45.5	COM11	COM7	COM3	2023-10-27_10h29.06.539	001-EEG_SVR_Officel	2022.2.5	143.80212827063897		12.423999999999978	2_sub-pilot013_SVR_EEG_block5-6.protocol.csv	step7	824	81.863	STIMULATE	45.5	45.4	45.4	45.4	45.5	7	1663.73
1651.008	0	825504	CNhz	12	4	0	4	0	2.0	0.0	2.0	0.0						1864.2552632	1870.2142926	1870.2142926	5.0	['5', 'return']	[2.894859500000166, 3.3667733000002045]	5.95	6.08	2.0	controle	high_pain	45.5			sub-pilot013	250	13	43	45.5	COM11	COM7	COM3	2023-10-27_10h29.06.539	001-EEG_SVR_Officel	2022.2.5	143.80212827063897		5.948000000000093	2_sub-pilot013_SVR_EEG_block5-6.protocol.csv	step7	824	81.863	STIMULATE	45.5	45.4	45.4	45.4	45.5	7	1663.73
1657.84	0	828920	CN/Hi	10	4	0	4	0	2.0	0.0	2.0	0.0						1864.2552632	1870.2142926	1870.2142926	5.0	['5', 'return']	[2.894859500000166, 3.3667733000002045]	5.95	6.08	2.0	controle	high_pain	45.5			sub-pilot013	250	13	43	45.5	COM11	COM7	COM3	2023-10-27_10h29.06.539	001-EEG_SVR_Officel	2022.2.5	143.80212827063897		6.08199999999988	2_sub-pilot013_SVR_EEG_block5-6.protocol.csv	step7	824	81.863	STIMULATE	45.5	45.4	45.4	45.4	45.5	7	1663.73
1667.398	0	833699	wait	21	4	0	4	0	3.0	0.0	3.0	0.0						1886.5920325	1892.5294781	1892.5294781	5.0	['5', 'return']	[2.693281500000012, 3.1415586000002804]	5.93	6.5	3.0	40hz	low_pain	43.0			sub-pilot013	250	13	43	45.5	COM11	COM7	COM3	2023-10-27_10h29.06.539	001-EEG_SVR_Officel	2022.2.5	143.80212827063897		10.307999999999993	2_sub-pilot013_SVR_EEG_block5-6.protocol.csv	step9	1053	104.514	STIMULATE	42.9	42.9	42.9	42.9	42.9	9	1686.381
1673.324	0	836662	40hz	9	4	0	4	0	3.0	0.0	3.0	0.0						1886.5920325	1892.5294781	1892.5294781	5.0	['5', 'return']	[2.693281500000012, 3.1415586000002804]	5.93	6.5	3.0	40hz	low_pain	43.0			sub-pilot013	250	13	43	45.5	COM11	COM7	COM3	2023-10-27_10h29.06.539	001-EEG_SVR_Officel	2022.2.5	143.80212827063897		5.926000000000158	2_sub-pilot013_SVR_EEG_block5-6.protocol.csv	step9	1053	104.514	STIMULATE	42.9	42.9	42.9	42.9	42.9	9	1686.381
1680.572	0	840286	40/Lo	8	4	0	4	0	3.0	0.0	3.0	0.0						1886.5920325	1892.5294781	1892.5294781	5.0	['5', 'return']	[2.693281500000012, 3.1415586000002804]	5.93	6.5	3.0	40hz	low_pain	43.0			sub-pilot013	250	13	43	45.5	COM11	COM7	COM3	2023-10-27_10h29.06.539	001-EEG_SVR_Officel	2022.2.5	143.80212827063897		6.49799999999982	2_sub-pilot013_SVR_EEG_block5-6.protocol.csv	step9	1053	104.514	STIMULATE	42.9	42.9	42.9	42.9	42.9	9	1686.381
1689.49	0	844745	wait	21	4	0	4	0	4.0	0.0	4.0	0.0						1908.6837042	1914.8030436	1914.8030436	6.0	['6', 'return']	[2.923033299999588, 3.6584162999997716]	6.11	6.41	0.0	10hz	high_pain	45.5			sub-pilot013	250	13	43	45.5	COM11	COM7	COM3	2023-10-27_10h29.06.539	001-EEG_SVR_Officel	2022.2.5	143.80212827063897		9.66800000000012	2_sub-pilot013_SVR_EEG_block5-6.protocol.csv	step11	1278	126.81	STIMULATE	45.6	45.4	45.4	45.4	45.4	11	1708.6770000000001
1695.598	0	847799	10hz	3	4	0	4	0	4.0	0.0	4.0	0.0						1908.6837042	1914.8030436	1914.8030436	6.0	['6', 'return']	[2.923033299999588, 3.6584162999997716]	6.11	6.41	0.0	10hz	high_pain	45.5			sub-pilot013	250	13	43	45.5	COM11	COM7	COM3	2023-10-27_10h29.06.539	001-EEG_SVR_Officel	2022.2.5	143.80212827063897		6.107999999999947	2_sub-pilot013_SVR_EEG_block5-6.protocol.csv	step11	1278	126.81	STIMULATE	45.6	45.4	45.4	45.4	45.4	11	1708.6770000000001
1702.756	0	851378	10/Hi	1	4	0	4	0	4.0	0.0	4.0	0.0						1908.6837042	1914.8030436	1914.8030436	6.0	['6', 'return']	[2.923033299999588, 3.6584162999997716]	6.11	6.41	0.0	10hz	high_pain	45.5			sub-pilot013	250	13	43	45.5	COM11	COM7	COM3	2023-10-27_10h29.06.539	001-EEG_SVR_Officel	2022.2.5	143.80212827063897		6.408000000000129	2_sub-pilot013_SVR_EEG_block5-6.protocol.csv	step11	1278	126.81	STIMULATE	45.6	45.4	45.4	45.4	45.4	11	1708.6770000000001
1712.284	0	856142	wait	21	4	0	4	0	5.0	0.0	5.0	0.0						1931.4785769	1938.5700036	1938.5700036	7.0	['7', 'return']	[2.596770299999662, 3.155877899999723]	7.08	5.4	1.0	controle	high_pain	45.5			sub-pilot013	250	13	43	45.5	COM11	COM7	COM3	2023-10-27_10h29.06.539	001-EEG_SVR_Officel	2022.2.5	143.80212827063897		10.27800000000002	2_sub-pilot013_SVR_EEG_block5-6.protocol.csv	step13	1506	149.469	STIMULATE	45.7	45.4	45.4	45.4	45.5	13	1731.336
1719.364	0	859682	CNhz	12	4	0	4	0	5.0	0.0	5.0	0.0						1931.4785769	1938.5700036	1938.5700036	7.0	['7', 'return']	[2.596770299999662, 3.155877899999723]	7.08	5.4	1.0	controle	high_pain	45.5			sub-pilot013	250	13	43	45.5	COM11	COM7	COM3	2023-10-27_10h29.06.539	001-EEG_SVR_Officel	2022.2.5	143.80212827063897		7.079999999999927	2_sub-pilot013_SVR_EEG_block5-6.protocol.csv	step13	1506	149.469	STIMULATE	45.7	45.4	45.4	45.4	45.5	13	1731.336
1725.516	0	862758	CN/Hi	10	4	0	4	0	5.0	0.0	5.0	0.0						1931.4785769	1938.5700036	1938.5700036	7.0	['7', 'return']	[2.596770299999662, 3.155877899999723]	7.08	5.4	1.0	controle	high_pain	45.5			sub-pilot013	250	13	43	45.5	COM11	COM7	COM3	2023-10-27_10h29.06.539	001-EEG_SVR_Officel	2022.2.5	143.80212827063897		5.402000000000044	2_sub-pilot013_SVR_EEG_block5-6.protocol.csv	step13	1506	149.469	STIMULATE	45.7	45.4	45.4	45.4	45.5	13	1731.336
1735.544	0	867772	wait	21	4	0	4	0	6.0	0.0	6.0	0.0						1954.7384084000005	1961.7670778	1961.7670778	2.0	['2', 'return']	[4.318718700000318, 5.318414000000303]	7.02	5.41	2.0	40hz	low_pain	43.0			sub-pilot013	250	13	43	45.5	COM11	COM7	COM3	2023-10-27_10h29.06.539	001-EEG_SVR_Officel	2022.2.5	143.80212827063897		10.77800000000002	2_sub-pilot013_SVR_EEG_block5-6.protocol.csv	step15	1741	172.736	STIMULATE	43.0	42.9	42.9	42.9	42.9	15	1754.603
1742.56	0	871280	40hz	9	4	0	4	0	6.0	0.0	6.0	0.0						1954.7384084000005	1961.7670778	1961.7670778	2.0	['2', 'return']	[4.318718700000318, 5.318414000000303]	7.02	5.41	2.0	40hz	low_pain	43.0			sub-pilot013	250	13	43	45.5	COM11	COM7	COM3	2023-10-27_10h29.06.539	001-EEG_SVR_Officel	2022.2.5	143.80212827063897		7.015999999999849	2_sub-pilot013_SVR_EEG_block5-6.protocol.csv	step15	1741	172.736	STIMULATE	43.0	42.9	42.9	42.9	42.9	15	1754.603
1748.72	0	874360	40/Lo	8	4	0	4	0	6.0	0.0	6.0	0.0						1954.7384084000005	1961.7670778	1961.7670778	2.0	['2', 'return']	[4.318718700000318, 5.318414000000303]	7.02	5.41	2.0	40hz	low_pain	43.0			sub-pilot013	250	13	43	45.5	COM11	COM7	COM3	2023-10-27_10h29.06.539	001-EEG_SVR_Officel	2022.2.5	143.80212827063897		5.410000000000082	2_sub-pilot013_SVR_EEG_block5-6.protocol.csv	step15	1741	172.736	STIMULATE	43.0	42.9	42.9	42.9	42.9	15	1754.603
1760.908	0	880454	wait	21	4	0	4	0	7.0	0.0	7.0	0.0						1980.1031645000005	1987.5208167	1987.5208167	6.0	['6', 'return']	[2.2688844000003883, 2.5884495000000243]	7.41	5.18	3.0	10hz	high_pain	45.5			sub-pilot013	250	13	43	45.5	COM11	COM7	COM3	2023-10-27_10h29.06.539	001-EEG_SVR_Officel	2022.2.5	143.80212827063897		12.937999999999874	2_sub-pilot013_SVR_EEG_block5-6.protocol.csv	step17	1998	198.268	STIMULATE	45.5	45.4	45.4	45.4	45.5	17	1780.135
1768.314	0	884157	10hz	3	4	0	4	0	7.0	0.0	7.0	0.0						1980.1031645000005	1987.5208167	1987.5208167	6.0	['6', 'return']	[2.2688844000003883, 2.5884495000000243]	7.41	5.18	3.0	10hz	high_pain	45.5			sub-pilot013	250	13	43	45.5	COM11	COM7	COM3	2023-10-27_10h29.06.539	001-EEG_SVR_Officel	2022.2.5	143.80212827063897		7.406000000000176	2_sub-pilot013_SVR_EEG_block5-6.protocol.csv	step17	1998	198.268	STIMULATE	45.5	45.4	45.4	45.4	45.5	17	1780.135
1774.242	0	887121	10/Hi	1	4	0	4	0	7.0	0.0	7.0	0.0						1980.1031645000005	1987.5208167	1987.5208167	6.0	['6', 'return']	[2.2688844000003883, 2.5884495000000243]	7.41	5.18	3.0	10hz	high_pain	45.5			sub-pilot013	250	13	43	45.5	COM11	COM7	COM3	2023-10-27_10h29.06.539	001-EEG_SVR_Officel	2022.2.5	143.80212827063897		5.177999999999884	2_sub-pilot013_SVR_EEG_block5-6.protocol.csv	step17	1998	198.268	STIMULATE	45.5	45.4	45.4	45.4	45.5	17	1780.135
1783.932	0	891966	wait	21	4	0	4	0	8.0	0.0	8.0	0.0						2003.1265116000004	2008.8630312000005	2008.8630312000005	2.0	['2', 'return']	[2.918486099999427, 3.5427845999993224]	5.73	5.14	0.0	20hz	low_pain	43.0			sub-pilot013	250	13	43	45.5	COM11	COM7	COM3	2023-10-27_10h29.06.539	001-EEG_SVR_Officel	2022.2.5	143.80212827063897		10.440000000000055	2_sub-pilot013_SVR_EEG_block5-6.protocol.csv	step19	2213	219.534	STIMULATE	43.0	42.9	42.8	42.9	42.9	19	1801.401
1789.656	0	894828	20hz	6	4	0	4	0	8.0	0.0	8.0	0.0						2003.1265116000004	2008.8630312000005	2008.8630312000005	2.0	['2', 'return']	[2.918486099999427, 3.5427845999993224]	5.73	5.14	0.0	20hz	low_pain	43.0			sub-pilot013	250	13	43	45.5	COM11	COM7	COM3	2023-10-27_10h29.06.539	001-EEG_SVR_Officel	2022.2.5	143.80212827063897		5.723999999999933	2_sub-pilot013_SVR_EEG_block5-6.protocol.csv	step19	2213	219.534	STIMULATE	43.0	42.9	42.8	42.9	42.9	19	1801.401
1795.552	0	897776	20/Lo	5	4	0	4	0	8.0	0.0	8.0	0.0						2003.1265116000004	2008.8630312000005	2008.8630312000005	2.0	['2', 'return']	[2.918486099999427, 3.5427845999993224]	5.73	5.14	0.0	20hz	low_pain	43.0			sub-pilot013	250	13	43	45.5	COM11	COM7	COM3	2023-10-27_10h29.06.539	001-EEG_SVR_Officel	2022.2.5	143.80212827063897		5.145999999999958	2_sub-pilot013_SVR_EEG_block5-6.protocol.csv	step19	2213	219.534	STIMULATE	43.0	42.9	42.8	42.9	42.9	19	1801.401
