onset	duration	sample	trial_type	value	block.thisRepN	block.thisTrialN	block.thisN	block.thisIndex	reps.thisRepN	reps.thisTrialN	reps.thisN	reps.thisIndex	afrec_start	rec_start	rec_start_egi	key_resp.keys	key_resp.rt	wait_time_text.started	wait_time_text.stopped	therm_loca_text.started	subResponse	keyResp.keys	keyResp.rt	ITI_wait	wait_trigger	loca_thermode	Hz_condition	temp_condition	temp_valeur	text.started	text.stopped	participant	brightness	num_part	low	high	com_svr	com_thermode	com_eeg	date	expName	psychopyVersion	frameRate	Unnamed: 39	distance_from_previous	file	step	index	time	type	temp1	temp2	temp3	temp4	temp5	step_num	time_sync
5.57	0	2785	wait	20	0	0	0	0	0.0	0.0	0.0	0.0	108.22354959999213	108.03597779991104	1713894317.7792046	p	5.353712399955839	113.6069831000641	120.87822020007296	120.87822020007296	9.5	['9', 'a', '5', 'return']	[2.894371399888769, 3.3011268998961896, 3.6059276000596583, 4.917578099993989]	7.26	6.27	0.0	controle	high_pain	47.3			sub-032	250	32	44	47.3	COM11	COM15	COM3	2024-04-23_13h43.52.043	001-EEG_SVR_Officel	2022.2.5	144.29910322783223		5.57	0_sub-pilot032_SVR_EEG_block1-2.protocol.csv	step3	651	64.941	STIMULATE	47.4	47.3	47.2	47.2	47.3	3	25.682000000000002
12.828	0	6414	CNhz	12	0	0	0	0	0.0	0.0	0.0	0.0	108.22354959999213	108.03597779991104	1713894317.7792046	p	5.353712399955839	113.6069831000641	120.87822020007296	120.87822020007296	9.5	['9', 'a', '5', 'return']	[2.894371399888769, 3.3011268998961896, 3.6059276000596583, 4.917578099993989]	7.26	6.27	0.0	controle	high_pain	47.3			sub-032	250	32	44	47.3	COM11	COM15	COM3	2024-04-23_13h43.52.043	001-EEG_SVR_Officel	2022.2.5	144.29910322783223		7.257999999999999	0_sub-pilot032_SVR_EEG_block1-2.protocol.csv	step3	651	64.941	STIMULATE	47.4	47.3	47.2	47.2	47.3	3	25.682000000000002
19.848	0	9924	CN/Hi	10	0	0	0	0	0.0	0.0	0.0	0.0	108.22354959999213	108.03597779991104	1713894317.7792046	p	5.353712399955839	113.6069831000641	120.87822020007296	120.87822020007296	9.5	['9', 'a', '5', 'return']	[2.894371399888769, 3.3011268998961896, 3.6059276000596583, 4.917578099993989]	7.26	6.27	0.0	controle	high_pain	47.3			sub-032	250	32	44	47.3	COM11	COM15	COM3	2024-04-23_13h43.52.043	001-EEG_SVR_Officel	2022.2.5	144.29910322783223		6.27	0_sub-pilot032_SVR_EEG_block1-2.protocol.csv	step3	651	64.941	STIMULATE	47.4	47.3	47.2	47.2	47.3	3	25.682000000000002
30.786	0	15393	wait	20	0	0	0	0	1.0	0.0	1.0	0.0						138.82465009996668	145.59628969989717	145.59628969989717	1.5	['1', 'a', '5', 'return']	[2.9998400998301804, 3.4644033999647945, 3.78425160003826, 4.600251500029117]	6.76	6.28	1.0	40hz	low_pain	44.0			sub-032	250	32	44	47.3	COM11	COM15	COM3	2024-04-23_13h43.52.043	001-EEG_SVR_Officel	2022.2.5	144.29910322783223		11.688000000000002	0_sub-pilot032_SVR_EEG_block1-2.protocol.csv	step5	900	89.605	STIMULATE	44.0	43.9	43.9	43.9	44.1	5	50.346000000000004
37.546	0	18773	40hz	9	0	0	0	0	1.0	0.0	1.0	0.0						138.82465009996668	145.59628969989717	145.59628969989717	1.5	['1', 'a', '5', 'return']	[2.9998400998301804, 3.4644033999647945, 3.78425160003826, 4.600251500029117]	6.76	6.28	1.0	40hz	low_pain	44.0			sub-032	250	32	44	47.3	COM11	COM15	COM3	2024-04-23_13h43.52.043	001-EEG_SVR_Officel	2022.2.5	144.29910322783223		6.759999999999998	0_sub-pilot032_SVR_EEG_block1-2.protocol.csv	step5	900	89.605	STIMULATE	44.0	43.9	43.9	43.9	44.1	5	50.346000000000004
44.58	0	22290	40/Lo	8	0	0	0	0	1.0	0.0	1.0	0.0						138.82465009996668	145.59628969989717	145.59628969989717	1.5	['1', 'a', '5', 'return']	[2.9998400998301804, 3.4644033999647945, 3.78425160003826, 4.600251500029117]	6.76	6.28	1.0	40hz	low_pain	44.0			sub-032	250	32	44	47.3	COM11	COM15	COM3	2024-04-23_13h43.52.043	001-EEG_SVR_Officel	2022.2.5	144.29910322783223		6.283999999999999	0_sub-pilot032_SVR_EEG_block1-2.protocol.csv	step5	900	89.605	STIMULATE	44.0	43.9	43.9	43.9	44.1	5	50.346000000000004
55.172	0	27586	wait	20	0	0	0	0	2.0	0.0	2.0	0.0						163.208652399946	168.78615399985574	168.78615399985574	2.5	['2', 'a', '5', 'return']	[2.2508137999102473, 2.5617309999652207, 2.7542097000405192, 3.4665610999800265]	5.57	5.56	2.0	10hz	low_pain	44.0			sub-032	250	32	44	47.3	COM11	COM15	COM3	2024-04-23_13h43.52.043	001-EEG_SVR_Officel	2022.2.5	144.29910322783223		11.341999999999999	0_sub-pilot032_SVR_EEG_block1-2.protocol.csv	step7	1127	112.113	STIMULATE	43.9	43.9	43.9	43.9	43.9	7	72.854
60.736	0	30368	10hz	3	0	0	0	0	2.0	0.0	2.0	0.0						163.208652399946	168.78615399985574	168.78615399985574	2.5	['2', 'a', '5', 'return']	[2.2508137999102473, 2.5617309999652207, 2.7542097000405192, 3.4665610999800265]	5.57	5.56	2.0	10hz	low_pain	44.0			sub-032	250	32	44	47.3	COM11	COM15	COM3	2024-04-23_13h43.52.043	001-EEG_SVR_Officel	2022.2.5	144.29910322783223		5.564	0_sub-pilot032_SVR_EEG_block1-2.protocol.csv	step7	1127	112.113	STIMULATE	43.9	43.9	43.9	43.9	43.9	7	72.854
67.048	0	33524	10/Lo	2	0	0	0	0	2.0	0.0	2.0	0.0						163.208652399946	168.78615399985574	168.78615399985574	2.5	['2', 'a', '5', 'return']	[2.2508137999102473, 2.5617309999652207, 2.7542097000405192, 3.4665610999800265]	5.57	5.56	2.0	10hz	low_pain	44.0			sub-032	250	32	44	47.3	COM11	COM15	COM3	2024-04-23_13h43.52.043	001-EEG_SVR_Officel	2022.2.5	144.29910322783223		5.562000000000005	0_sub-pilot032_SVR_EEG_block1-2.protocol.csv	step7	1127	112.113	STIMULATE	43.9	43.9	43.9	43.9	43.9	7	72.854
77.236	0	38618	wait	20	0	0	0	0	3.0	0.0	3.0	0.0						185.27431229990907	192.71281869988889	192.71281869988889	9.0	['9', 'return']	[2.713834699941799, 3.2743921000510454]	7.43	6.29	3.0	20hz	high_pain	47.3			sub-032	250	32	44	47.3	COM11	COM15	COM3	2024-04-23_13h43.52.043	001-EEG_SVR_Officel	2022.2.5	144.29910322783223		10.938000000000002	0_sub-pilot032_SVR_EEG_block1-2.protocol.csv	step9	1376	136.8	STIMULATE	47.4	47.2	47.3	47.3	47.3	9	97.54100000000001
84.664	0	42332	20hz	6	0	0	0	0	3.0	0.0	3.0	0.0						185.27431229990907	192.71281869988889	192.71281869988889	9.0	['9', 'return']	[2.713834699941799, 3.2743921000510454]	7.43	6.29	3.0	20hz	high_pain	47.3			sub-032	250	32	44	47.3	COM11	COM15	COM3	2024-04-23_13h43.52.043	001-EEG_SVR_Officel	2022.2.5	144.29910322783223		7.427999999999997	0_sub-pilot032_SVR_EEG_block1-2.protocol.csv	step9	1376	136.8	STIMULATE	47.4	47.2	47.3	47.3	47.3	9	97.54100000000001
91.702	0	45851	20/Hi	4	0	0	0	0	3.0	0.0	3.0	0.0						185.27431229990907	192.71281869988889	192.71281869988889	9.0	['9', 'return']	[2.713834699941799, 3.2743921000510454]	7.43	6.29	3.0	20hz	high_pain	47.3			sub-032	250	32	44	47.3	COM11	COM15	COM3	2024-04-23_13h43.52.043	001-EEG_SVR_Officel	2022.2.5	144.29910322783223		6.287999999999997	0_sub-pilot032_SVR_EEG_block1-2.protocol.csv	step9	1376	136.8	STIMULATE	47.4	47.2	47.3	47.3	47.3	9	97.54100000000001
100.976	0	50488	wait	20	0	0	0	0	4.0	0.0	4.0	0.0						209.01330300001428	216.53489140002057	216.53489140002057	2.0	['2', 'return']	[3.973600400146097, 6.1273118001408875]	7.51	6.32	0.0	40hz	high_pain	47.3			sub-032	250	32	44	47.3	COM11	COM15	COM3	2024-04-23_13h43.52.043	001-EEG_SVR_Officel	2022.2.5	144.29910322783223		10.024000000000001	0_sub-pilot032_SVR_EEG_block1-2.protocol.csv	step11	1617	160.728	STIMULATE	47.5	47.4	47.3	47.3	47.4	11	121.46900000000001
108.484	0	54242	40hz	9	0	0	0	0	4.0	0.0	4.0	0.0						209.01330300001428	216.53489140002057	216.53489140002057	2.0	['2', 'return']	[3.973600400146097, 6.1273118001408875]	7.51	6.32	0.0	40hz	high_pain	47.3			sub-032	250	32	44	47.3	COM11	COM15	COM3	2024-04-23_13h43.52.043	001-EEG_SVR_Officel	2022.2.5	144.29910322783223		7.507999999999996	0_sub-pilot032_SVR_EEG_block1-2.protocol.csv	step11	1617	160.728	STIMULATE	47.5	47.4	47.3	47.3	47.4	11	121.46900000000001
115.56	0	57780	40/Hi	7	0	0	0	0	4.0	0.0	4.0	0.0						209.01330300001428	216.53489140002057	216.53489140002057	2.0	['2', 'return']	[3.973600400146097, 6.1273118001408875]	7.51	6.32	0.0	40hz	high_pain	47.3			sub-032	250	32	44	47.3	COM11	COM15	COM3	2024-04-23_13h43.52.043	001-EEG_SVR_Officel	2022.2.5	144.29910322783223		6.326000000000008	0_sub-pilot032_SVR_EEG_block1-2.protocol.csv	step11	1617	160.728	STIMULATE	47.5	47.4	47.3	47.3	47.4	11	121.46900000000001
127.638	0	63819	wait	20	0	0	0	0	5.0	0.0	5.0	0.0						235.67564429994675	242.05245870002545	242.05245870002545	2.5	['2', 'a', '5', 'return']	[2.0479877998586744, 2.3921674999874085, 2.5922482998576015, 3.3757158999796957]	6.37	6.13	1.0	20hz	low_pain	44.0			sub-032	250	32	44	47.3	COM11	COM15	COM3	2024-04-23_13h43.52.043	001-EEG_SVR_Officel	2022.2.5	144.29910322783223		12.828000000000003	0_sub-pilot032_SVR_EEG_block1-2.protocol.csv	step13	1871	185.923	STIMULATE	44.0	43.9	43.9	43.9	44.1	13	146.664
134.002	0	67001	20hz	6	0	0	0	0	5.0	0.0	5.0	0.0						235.67564429994675	242.05245870002545	242.05245870002545	2.5	['2', 'a', '5', 'return']	[2.0479877998586744, 2.3921674999874085, 2.5922482998576015, 3.3757158999796957]	6.37	6.13	1.0	20hz	low_pain	44.0			sub-032	250	32	44	47.3	COM11	COM15	COM3	2024-04-23_13h43.52.043	001-EEG_SVR_Officel	2022.2.5	144.29910322783223		6.364000000000004	0_sub-pilot032_SVR_EEG_block1-2.protocol.csv	step13	1871	185.923	STIMULATE	44.0	43.9	43.9	43.9	44.1	13	146.664
140.884	0	70442	20/Lo	5	0	0	0	0	5.0	0.0	5.0	0.0						235.67564429994675	242.05245870002545	242.05245870002545	2.5	['2', 'a', '5', 'return']	[2.0479877998586744, 2.3921674999874085, 2.5922482998576015, 3.3757158999796957]	6.37	6.13	1.0	20hz	low_pain	44.0			sub-032	250	32	44	47.3	COM11	COM15	COM3	2024-04-23_13h43.52.043	001-EEG_SVR_Officel	2022.2.5	144.29910322783223		6.131999999999977	0_sub-pilot032_SVR_EEG_block1-2.protocol.csv	step13	1871	185.923	STIMULATE	44.0	43.9	43.9	43.9	44.1	13	146.664
150.412	0	75206	wait	20	0	0	0	0	6.0	0.0	6.0	0.0						258.45000589988194	265.9718237000052	265.9718237000052	9.0	['9', 'return']	[2.320942400023341, 2.8650187000166625]	7.51	6.28	2.0	10hz	high_pain	47.3			sub-032	250	32	44	47.3	COM11	COM15	COM3	2024-04-23_13h43.52.043	001-EEG_SVR_Officel	2022.2.5	144.29910322783223		10.27800000000002	0_sub-pilot032_SVR_EEG_block1-2.protocol.csv	step15	2114	210.06	STIMULATE	47.3	47.3	47.3	47.3	47.3	15	170.801
157.92	0	78960	10hz	3	0	0	0	0	6.0	0.0	6.0	0.0						258.45000589988194	265.9718237000052	265.9718237000052	9.0	['9', 'return']	[2.320942400023341, 2.8650187000166625]	7.51	6.28	2.0	10hz	high_pain	47.3			sub-032	250	32	44	47.3	COM11	COM15	COM3	2024-04-23_13h43.52.043	001-EEG_SVR_Officel	2022.2.5	144.29910322783223		7.507999999999981	0_sub-pilot032_SVR_EEG_block1-2.protocol.csv	step15	2114	210.06	STIMULATE	47.3	47.3	47.3	47.3	47.3	15	170.801
164.954	0	82477	10/Hi	1	0	0	0	0	6.0	0.0	6.0	0.0						258.45000589988194	265.9718237000052	265.9718237000052	9.0	['9', 'return']	[2.320942400023341, 2.8650187000166625]	7.51	6.28	2.0	10hz	high_pain	47.3			sub-032	250	32	44	47.3	COM11	COM15	COM3	2024-04-23_13h43.52.043	001-EEG_SVR_Officel	2022.2.5	144.29910322783223		6.28400000000002	0_sub-pilot032_SVR_EEG_block1-2.protocol.csv	step15	2114	210.06	STIMULATE	47.3	47.3	47.3	47.3	47.3	15	170.801
173.816	0	86908	wait	20	0	0	0	0	7.0	0.0	7.0	0.0						281.85529710003175	288.8213462999556	288.8213462999556	8.0	['8', 'return']	[1.8613320998847485, 2.566094599897042]	6.96	5.65	3.0	40hz	high_pain	47.3			sub-032	250	32	44	47.3	COM11	COM15	COM3	2024-04-23_13h43.52.043	001-EEG_SVR_Officel	2022.2.5	144.29910322783223		9.611999999999995	0_sub-pilot032_SVR_EEG_block1-2.protocol.csv	step17	2339	232.317	STIMULATE	47.3	47.3	47.2	47.3	47.3	17	193.058
180.772	0	90386	40hz	9	0	0	0	0	7.0	0.0	7.0	0.0						281.85529710003175	288.8213462999556	288.8213462999556	8.0	['8', 'return']	[1.8613320998847485, 2.566094599897042]	6.96	5.65	3.0	40hz	high_pain	47.3			sub-032	250	32	44	47.3	COM11	COM15	COM3	2024-04-23_13h43.52.043	001-EEG_SVR_Officel	2022.2.5	144.29910322783223		6.955999999999989	0_sub-pilot032_SVR_EEG_block1-2.protocol.csv	step17	2339	232.317	STIMULATE	47.3	47.3	47.2	47.3	47.3	17	193.058
187.172	0	93586	40/Hi	7	0	0	0	0	7.0	0.0	7.0	0.0						281.85529710003175	288.8213462999556	288.8213462999556	8.0	['8', 'return']	[1.8613320998847485, 2.566094599897042]	6.96	5.65	3.0	40hz	high_pain	47.3			sub-032	250	32	44	47.3	COM11	COM15	COM3	2024-04-23_13h43.52.043	001-EEG_SVR_Officel	2022.2.5	144.29910322783223		5.650000000000006	0_sub-pilot032_SVR_EEG_block1-2.protocol.csv	step17	2339	232.317	STIMULATE	47.3	47.3	47.2	47.3	47.3	17	193.058
196.374	0	98187	wait	20	0	0	0	0	8.0	0.0	8.0	0.0						304.41357730003074	310.435272899922	310.435272899922	2.0	['2', 'return']	[2.6977077999617904, 3.497169999871403]	6.01	5.68	0.0	40hz	low_pain	44.0			sub-032	250	32	44	47.3	COM11	COM15	COM3	2024-04-23_13h43.52.043	001-EEG_SVR_Officel	2022.2.5	144.29910322783223		9.951999999999998	0_sub-pilot032_SVR_EEG_block1-2.protocol.csv	step19	2558	254.011	STIMULATE	43.9	43.9	43.9	43.9	43.9	19	214.752
202.384	0	101192	40hz	9	0	0	0	0	8.0	0.0	8.0	0.0						304.41357730003074	310.435272899922	310.435272899922	2.0	['2', 'return']	[2.6977077999617904, 3.497169999871403]	6.01	5.68	0.0	40hz	low_pain	44.0			sub-032	250	32	44	47.3	COM11	COM15	COM3	2024-04-23_13h43.52.043	001-EEG_SVR_Officel	2022.2.5	144.29910322783223		6.009999999999991	0_sub-pilot032_SVR_EEG_block1-2.protocol.csv	step19	2558	254.011	STIMULATE	43.9	43.9	43.9	43.9	43.9	19	214.752
208.814	0	104407	40/Lo	8	0	0	0	0	8.0	0.0	8.0	0.0						304.41357730003074	310.435272899922	310.435272899922	2.0	['2', 'return']	[2.6977077999617904, 3.497169999871403]	6.01	5.68	0.0	40hz	low_pain	44.0			sub-032	250	32	44	47.3	COM11	COM15	COM3	2024-04-23_13h43.52.043	001-EEG_SVR_Officel	2022.2.5	144.29910322783223		5.680000000000007	0_sub-pilot032_SVR_EEG_block1-2.protocol.csv	step19	2558	254.011	STIMULATE	43.9	43.9	43.9	43.9	43.9	19	214.752
218.914	0	109457	wait	20	0	0	0	0	9.0	0.0	9.0	0.0						326.95159139996395	333.91642989986576	333.91642989986576	2.5	['2', 'a', '5', 'return']	[2.8720540998037905, 3.176378699950874, 3.4241123998072, 4.128548299893737]	6.96	6.09	1.0	controle	low_pain	44.0			sub-032	250	32	44	47.3	COM11	COM15	COM3	2024-04-23_13h43.52.043	001-EEG_SVR_Officel	2022.2.5	144.29910322783223		10.849999999999994	0_sub-pilot032_SVR_EEG_block1-2.protocol.csv	step21	2798	277.826	STIMULATE	44.0	43.9	43.9	43.9	44.0	21	238.567
225.872	0	112936	CNhz	12	0	0	0	0	9.0	0.0	9.0	0.0						326.95159139996395	333.91642989986576	333.91642989986576	2.5	['2', 'a', '5', 'return']	[2.8720540998037905, 3.176378699950874, 3.4241123998072, 4.128548299893737]	6.96	6.09	1.0	controle	low_pain	44.0			sub-032	250	32	44	47.3	COM11	COM15	COM3	2024-04-23_13h43.52.043	001-EEG_SVR_Officel	2022.2.5	144.29910322783223		6.958000000000027	0_sub-pilot032_SVR_EEG_block1-2.protocol.csv	step21	2798	277.826	STIMULATE	44.0	43.9	43.9	43.9	44.0	21	238.567
232.714	0	116357	CN/Lo	11	0	0	0	0	9.0	0.0	9.0	0.0						326.95159139996395	333.91642989986576	333.91642989986576	2.5	['2', 'a', '5', 'return']	[2.8720540998037905, 3.176378699950874, 3.4241123998072, 4.128548299893737]	6.96	6.09	1.0	controle	low_pain	44.0			sub-032	250	32	44	47.3	COM11	COM15	COM3	2024-04-23_13h43.52.043	001-EEG_SVR_Officel	2022.2.5	144.29910322783223		6.0919999999999845	0_sub-pilot032_SVR_EEG_block1-2.protocol.csv	step21	2798	277.826	STIMULATE	44.0	43.9	43.9	43.9	44.0	21	238.567
243.032	0	121516	wait	20	0	0	0	0	10.0	0.0	10.0	0.0						351.0720388998743	358.9826145998668	358.9826145998668	7.0	['7', 'return']	[3.2131461000535637, 3.7813860999885947]	7.9	5.11	2.0	20hz	high_pain	47.3			sub-032	250	32	44	47.3	COM11	COM15	COM3	2024-04-23_13h43.52.043	001-EEG_SVR_Officel	2022.2.5	144.29910322783223		11.068000000000012	0_sub-pilot032_SVR_EEG_block1-2.protocol.csv	step23	3042	302.011	STIMULATE	47.3	47.3	47.2	47.3	47.3	23	262.752
250.932	0	125466	20hz	6	0	0	0	0	10.0	0.0	10.0	0.0						351.0720388998743	358.9826145998668	358.9826145998668	7.0	['7', 'return']	[3.2131461000535637, 3.7813860999885947]	7.9	5.11	2.0	20hz	high_pain	47.3			sub-032	250	32	44	47.3	COM11	COM15	COM3	2024-04-23_13h43.52.043	001-EEG_SVR_Officel	2022.2.5	144.29910322783223		7.899999999999977	0_sub-pilot032_SVR_EEG_block1-2.protocol.csv	step23	3042	302.011	STIMULATE	47.3	47.3	47.2	47.3	47.3	23	262.752
256.792	0	128395	20/Hi	4	0	0	0	0	10.0	0.0	10.0	0.0						351.0720388998743	358.9826145998668	358.9826145998668	7.0	['7', 'return']	[3.2131461000535637, 3.7813860999885947]	7.9	5.11	2.0	20hz	high_pain	47.3			sub-032	250	32	44	47.3	COM11	COM15	COM3	2024-04-23_13h43.52.043	001-EEG_SVR_Officel	2022.2.5	144.29910322783223		5.109999999999985	0_sub-pilot032_SVR_EEG_block1-2.protocol.csv	step23	3042	302.011	STIMULATE	47.3	47.3	47.2	47.3	47.3	23	262.752
267.746	0	133873	wait	20	0	0	0	0	11.0	0.0	11.0	0.0						375.78366840002127	380.87453290005215	380.87453290005215	7.5	['7', 'a', '5', 'return']	[4.162588300183415, 4.625418900046498, 4.802543800091371, 5.498755800072104]	5.08	6.23	3.0	controle	high_pain	47.3			sub-032	250	32	44	47.3	COM11	COM15	COM3	2024-04-23_13h43.52.043	001-EEG_SVR_Officel	2022.2.5	144.29910322783223		11.704000000000008	0_sub-pilot032_SVR_EEG_block1-2.protocol.csv	step25	3273	324.921	STIMULATE	47.4	47.3	47.3	47.2	47.2	25	285.662
272.824	0	136412	CNhz	12	0	0	0	0	11.0	0.0	11.0	0.0						375.78366840002127	380.87453290005215	380.87453290005215	7.5	['7', 'a', '5', 'return']	[4.162588300183415, 4.625418900046498, 4.802543800091371, 5.498755800072104]	5.08	6.23	3.0	controle	high_pain	47.3			sub-032	250	32	44	47.3	COM11	COM15	COM3	2024-04-23_13h43.52.043	001-EEG_SVR_Officel	2022.2.5	144.29910322783223		5.078000000000031	0_sub-pilot032_SVR_EEG_block1-2.protocol.csv	step25	3273	324.921	STIMULATE	47.4	47.3	47.3	47.2	47.2	25	285.662
279.802	0	139901	CN/Hi	10	0	0	0	0	11.0	0.0	11.0	0.0						375.78366840002127	380.87453290005215	380.87453290005215	7.5	['7', 'a', '5', 'return']	[4.162588300183415, 4.625418900046498, 4.802543800091371, 5.498755800072104]	5.08	6.23	3.0	controle	high_pain	47.3			sub-032	250	32	44	47.3	COM11	COM15	COM3	2024-04-23_13h43.52.043	001-EEG_SVR_Officel	2022.2.5	144.29910322783223		6.228000000000009	0_sub-pilot032_SVR_EEG_block1-2.protocol.csv	step25	3273	324.921	STIMULATE	47.4	47.3	47.3	47.2	47.2	25	285.662
291.35	0	145675	wait	20	0	0	0	0	12.0	0.0	12.0	0.0						399.3902034999337	406.6968501000665	406.6968501000665	2.5	['2', 'a', '5', 'return']	[3.0434146001935005, 3.339797800173983, 3.5314909000881016, 4.300223900005221]	7.29	5.34	0.0	10hz	low_pain	44.0			sub-032	250	32	44	47.3	COM11	COM15	COM3	2024-04-23_13h43.52.043	001-EEG_SVR_Officel	2022.2.5	144.29910322783223		12.298000000000002	0_sub-pilot032_SVR_EEG_block1-2.protocol.csv	step27	3524	349.879	STIMULATE	43.9	43.8	43.9	43.9	43.9	27	310.62000000000006
298.646	0	149323	10hz	3	0	0	0	0	12.0	0.0	12.0	0.0						399.3902034999337	406.6968501000665	406.6968501000665	2.5	['2', 'a', '5', 'return']	[3.0434146001935005, 3.339797800173983, 3.5314909000881016, 4.300223900005221]	7.29	5.34	0.0	10hz	low_pain	44.0			sub-032	250	32	44	47.3	COM11	COM15	COM3	2024-04-23_13h43.52.043	001-EEG_SVR_Officel	2022.2.5	144.29910322783223		7.295999999999992	0_sub-pilot032_SVR_EEG_block1-2.protocol.csv	step27	3524	349.879	STIMULATE	43.9	43.8	43.9	43.9	43.9	27	310.62000000000006
304.734	0	152367	10/Lo	2	0	0	0	0	12.0	0.0	12.0	0.0						399.3902034999337	406.6968501000665	406.6968501000665	2.5	['2', 'a', '5', 'return']	[3.0434146001935005, 3.339797800173983, 3.5314909000881016, 4.300223900005221]	7.29	5.34	0.0	10hz	low_pain	44.0			sub-032	250	32	44	47.3	COM11	COM15	COM3	2024-04-23_13h43.52.043	001-EEG_SVR_Officel	2022.2.5	144.29910322783223		5.337999999999965	0_sub-pilot032_SVR_EEG_block1-2.protocol.csv	step27	3524	349.879	STIMULATE	43.9	43.8	43.9	43.9	43.9	27	310.62000000000006
315.972	0	157986	wait	20	0	0	0	0	13.0	0.0	13.0	0.0						424.0104511999525	429.8174127000384	429.8174127000384	8.5	['8', 'a', '5', 'return']	[2.988232399802655, 3.515474099898711, 3.6835531999822706, 4.410504499915987]	5.8	5.29	1.0	20hz	high_pain	47.3			sub-032	250	32	44	47.3	COM11	COM15	COM3	2024-04-23_13h43.52.043	001-EEG_SVR_Officel	2022.2.5	144.29910322783223		11.988	0_sub-pilot032_SVR_EEG_block1-2.protocol.csv	step29	3757	372.952	STIMULATE	47.4	47.3	47.3	47.3	47.3	29	333.69300000000004
321.766	0	160883	20hz	6	0	0	0	0	13.0	0.0	13.0	0.0						424.0104511999525	429.8174127000384	429.8174127000384	8.5	['8', 'a', '5', 'return']	[2.988232399802655, 3.515474099898711, 3.6835531999822706, 4.410504499915987]	5.8	5.29	1.0	20hz	high_pain	47.3			sub-032	250	32	44	47.3	COM11	COM15	COM3	2024-04-23_13h43.52.043	001-EEG_SVR_Officel	2022.2.5	144.29910322783223		5.79400000000004	0_sub-pilot032_SVR_EEG_block1-2.protocol.csv	step29	3757	372.952	STIMULATE	47.4	47.3	47.3	47.3	47.3	29	333.69300000000004
327.806	0	163903	20/Hi	4	0	0	0	0	13.0	0.0	13.0	0.0						424.0104511999525	429.8174127000384	429.8174127000384	8.5	['8', 'a', '5', 'return']	[2.988232399802655, 3.515474099898711, 3.6835531999822706, 4.410504499915987]	5.8	5.29	1.0	20hz	high_pain	47.3			sub-032	250	32	44	47.3	COM11	COM15	COM3	2024-04-23_13h43.52.043	001-EEG_SVR_Officel	2022.2.5	144.29910322783223		5.289999999999964	0_sub-pilot032_SVR_EEG_block1-2.protocol.csv	step29	3757	372.952	STIMULATE	47.4	47.3	47.3	47.3	47.3	29	333.69300000000004
339.204	0	169602	wait	20	0	0	0	0	14.0	0.0	14.0	0.0						447.242733299965	454.20228450000286	454.20228450000286	1.5	['1', 'a', '5', 'return']	[3.603102199966088, 4.025950100040063, 4.30680050002411, 5.049812400015071]	6.95	5.18	2.0	20hz	low_pain	44.0			sub-032	250	32	44	47.3	COM11	COM15	COM3	2024-04-23_13h43.52.043	001-EEG_SVR_Officel	2022.2.5	144.29910322783223		12.148000000000025	0_sub-pilot032_SVR_EEG_block1-2.protocol.csv	step31	4002	397.264	STIMULATE	43.9	43.9	43.9	43.9	43.9	31	358.00500000000005
346.152	0	173076	20hz	6	0	0	0	0	14.0	0.0	14.0	0.0						447.242733299965	454.20228450000286	454.20228450000286	1.5	['1', 'a', '5', 'return']	[3.603102199966088, 4.025950100040063, 4.30680050002411, 5.049812400015071]	6.95	5.18	2.0	20hz	low_pain	44.0			sub-032	250	32	44	47.3	COM11	COM15	COM3	2024-04-23_13h43.52.043	001-EEG_SVR_Officel	2022.2.5	144.29910322783223		6.947999999999979	0_sub-pilot032_SVR_EEG_block1-2.protocol.csv	step31	4002	397.264	STIMULATE	43.9	43.9	43.9	43.9	43.9	31	358.00500000000005
352.08	0	176040	20/Lo	5	0	0	0	0	14.0	0.0	14.0	0.0						447.242733299965	454.20228450000286	454.20228450000286	1.5	['1', 'a', '5', 'return']	[3.603102199966088, 4.025950100040063, 4.30680050002411, 5.049812400015071]	6.95	5.18	2.0	20hz	low_pain	44.0			sub-032	250	32	44	47.3	COM11	COM15	COM3	2024-04-23_13h43.52.043	001-EEG_SVR_Officel	2022.2.5	144.29910322783223		5.177999999999997	0_sub-pilot032_SVR_EEG_block1-2.protocol.csv	step31	4002	397.264	STIMULATE	43.9	43.9	43.9	43.9	43.9	31	358.00500000000005
364.234	0	182117	wait	20	0	0	0	0	15.0	0.0	15.0	0.0						472.27398249995895	478.8163355998695	478.8163355998695	8.0	['8', 'return']	[3.187087799888104, 3.5474115998949856]	6.53	5.1	3.0	10hz	high_pain	47.3			sub-032	250	32	44	47.3	COM11	COM15	COM3	2024-04-23_13h43.52.043	001-EEG_SVR_Officel	2022.2.5	144.29910322783223		12.903999999999996	0_sub-pilot032_SVR_EEG_block1-2.protocol.csv	step33	4249	421.776	STIMULATE	47.3	47.3	47.3	47.2	47.3	33	382.517
370.764	0	185382	10hz	3	0	0	0	0	15.0	0.0	15.0	0.0						472.27398249995895	478.8163355998695	478.8163355998695	8.0	['8', 'return']	[3.187087799888104, 3.5474115998949856]	6.53	5.1	3.0	10hz	high_pain	47.3			sub-032	250	32	44	47.3	COM11	COM15	COM3	2024-04-23_13h43.52.043	001-EEG_SVR_Officel	2022.2.5	144.29910322783223		6.53000000000003	0_sub-pilot032_SVR_EEG_block1-2.protocol.csv	step33	4249	421.776	STIMULATE	47.3	47.3	47.3	47.2	47.3	33	382.517
376.618	0	188309	10/Hi	1	0	0	0	0	15.0	0.0	15.0	0.0						472.27398249995895	478.8163355998695	478.8163355998695	8.0	['8', 'return']	[3.187087799888104, 3.5474115998949856]	6.53	5.1	3.0	10hz	high_pain	47.3			sub-032	250	32	44	47.3	COM11	COM15	COM3	2024-04-23_13h43.52.043	001-EEG_SVR_Officel	2022.2.5	144.29910322783223		5.103999999999985	0_sub-pilot032_SVR_EEG_block1-2.protocol.csv	step33	4249	421.776	STIMULATE	47.3	47.3	47.3	47.2	47.3	33	382.517
448.868	0	224434	wait	20	1	0	1	0	0.0	0.0	0.0	0.0				p	1.3400785999838265	556.9090837000404	563.3194866999984	563.3194866999984	1.5	['1', 'a', '5', 'return']	[2.756837399909273, 3.1409147998783737, 3.517798899905756, 4.172632899833843]	6.4	6.18	0.0	controle	low_pain	44.0			sub-032	250	32	44	47.3	COM11	COM15	COM3	2024-04-23_13h43.52.043	001-EEG_SVR_Officel	2022.2.5	144.29910322783223		73.0	0_sub-pilot032_SVR_EEG_block1-2.protocol.csv	step35	5107	507.409	STIMULATE	44.0	43.9	43.9	43.9	43.9	35	468.10200000000003
455.268	0	227634	CNhz	12	1	0	1	0	0.0	0.0	0.0	0.0				p	1.3400785999838265	556.9090837000404	563.3194866999984	563.3194866999984	1.5	['1', 'a', '5', 'return']	[2.756837399909273, 3.1409147998783737, 3.517798899905756, 4.172632899833843]	6.4	6.18	0.0	controle	low_pain	44.0			sub-032	250	32	44	47.3	COM11	COM15	COM3	2024-04-23_13h43.52.043	001-EEG_SVR_Officel	2022.2.5	144.29910322783223		6.399999999999977	0_sub-pilot032_SVR_EEG_block1-2.protocol.csv	step35	5107	507.409	STIMULATE	44.0	43.9	43.9	43.9	43.9	35	468.10200000000003
462.196	0	231098	CN/Lo	11	1	0	1	0	0.0	0.0	0.0	0.0				p	1.3400785999838265	556.9090837000404	563.3194866999984	563.3194866999984	1.5	['1', 'a', '5', 'return']	[2.756837399909273, 3.1409147998783737, 3.517798899905756, 4.172632899833843]	6.4	6.18	0.0	controle	low_pain	44.0			sub-032	250	32	44	47.3	COM11	COM15	COM3	2024-04-23_13h43.52.043	001-EEG_SVR_Officel	2022.2.5	144.29910322783223		6.178000000000054	0_sub-pilot032_SVR_EEG_block1-2.protocol.csv	step35	5107	507.409	STIMULATE	44.0	43.9	43.9	43.9	43.9	35	468.10200000000003
472.462	0	236231	wait	20	1	0	1	0	1.0	0.0	1.0	0.0						580.5016852000263	586.4612773000263	586.4612773000263	3.0	['3', 'return']	[2.847083400003612, 3.422527699964121]	5.95	5.53	1.0	controle	high_pain	47.3			sub-032	250	32	44	47.3	COM11	COM15	COM3	2024-04-23_13h43.52.043	001-EEG_SVR_Officel	2022.2.5	144.29910322783223		11.015999999999963	0_sub-pilot032_SVR_EEG_block1-2.protocol.csv	step37	5334	529.818	STIMULATE	47.5	47.2	47.3	47.3	47.3	37	490.511
478.408	0	239204	CNhz	12	1	0	1	0	1.0	0.0	1.0	0.0						580.5016852000263	586.4612773000263	586.4612773000263	3.0	['3', 'return']	[2.847083400003612, 3.422527699964121]	5.95	5.53	1.0	controle	high_pain	47.3			sub-032	250	32	44	47.3	COM11	COM15	COM3	2024-04-23_13h43.52.043	001-EEG_SVR_Officel	2022.2.5	144.29910322783223		5.946000000000026	0_sub-pilot032_SVR_EEG_block1-2.protocol.csv	step37	5334	529.818	STIMULATE	47.5	47.2	47.3	47.3	47.3	37	490.511
484.692	0	242346	CN/Hi	10	1	0	1	0	1.0	0.0	1.0	0.0						580.5016852000263	586.4612773000263	586.4612773000263	3.0	['3', 'return']	[2.847083400003612, 3.422527699964121]	5.95	5.53	1.0	controle	high_pain	47.3			sub-032	250	32	44	47.3	COM11	COM15	COM3	2024-04-23_13h43.52.043	001-EEG_SVR_Officel	2022.2.5	144.29910322783223		5.533999999999992	0_sub-pilot032_SVR_EEG_block1-2.protocol.csv	step37	5334	529.818	STIMULATE	47.5	47.2	47.3	47.3	47.3	37	490.511
494.862	0	247431	wait	20	1	0	1	0	2.0	0.0	2.0	0.0						602.9013233999722	608.0199213998858	608.0199213998858	0.5	['0', 'a', '5', 'return']	[3.7301267001312226, 4.104510200209916, 4.313653900055215, 4.898107400164008]	5.11	6.02	2.0	40hz	low_pain	44.0			sub-032	250	32	44	47.3	COM11	COM15	COM3	2024-04-23_13h43.52.043	001-EEG_SVR_Officel	2022.2.5	144.29910322783223		10.920000000000016	0_sub-pilot032_SVR_EEG_block1-2.protocol.csv	step39	5556	551.882	STIMULATE	44.0	43.9	43.9	43.9	43.9	39	512.575
499.968	0	249984	40hz	9	1	0	1	0	2.0	0.0	2.0	0.0						602.9013233999722	608.0199213998858	608.0199213998858	0.5	['0', 'a', '5', 'return']	[3.7301267001312226, 4.104510200209916, 4.313653900055215, 4.898107400164008]	5.11	6.02	2.0	40hz	low_pain	44.0			sub-032	250	32	44	47.3	COM11	COM15	COM3	2024-04-23_13h43.52.043	001-EEG_SVR_Officel	2022.2.5	144.29910322783223		5.1059999999999945	0_sub-pilot032_SVR_EEG_block1-2.protocol.csv	step39	5556	551.882	STIMULATE	44.0	43.9	43.9	43.9	43.9	39	512.575
506.738	0	253369	40/Lo	8	1	0	1	0	2.0	0.0	2.0	0.0						602.9013233999722	608.0199213998858	608.0199213998858	0.5	['0', 'a', '5', 'return']	[3.7301267001312226, 4.104510200209916, 4.313653900055215, 4.898107400164008]	5.11	6.02	2.0	40hz	low_pain	44.0			sub-032	250	32	44	47.3	COM11	COM15	COM3	2024-04-23_13h43.52.043	001-EEG_SVR_Officel	2022.2.5	144.29910322783223		6.019999999999982	0_sub-pilot032_SVR_EEG_block1-2.protocol.csv	step39	5556	551.882	STIMULATE	44.0	43.9	43.9	43.9	43.9	39	512.575
517.898	0	258949	wait	20	1	0	1	0	3.0	0.0	3.0	0.0						625.9388268999755	632.8557106000371	632.8557106000371	1.0	['1', 'return']	[3.0776559999212623, 3.7418104000389576]	6.91	5.29	3.0	10hz	low_pain	44.0			sub-032	250	32	44	47.3	COM11	COM15	COM3	2024-04-23_13h43.52.043	001-EEG_SVR_Officel	2022.2.5	144.29910322783223		11.910000000000025	0_sub-pilot032_SVR_EEG_block1-2.protocol.csv	step41	5800	576.055	STIMULATE	43.9	43.9	43.9	43.9	43.9	41	536.748
524.804	0	262402	10hz	3	1	0	1	0	3.0	0.0	3.0	0.0						625.9388268999755	632.8557106000371	632.8557106000371	1.0	['1', 'return']	[3.0776559999212623, 3.7418104000389576]	6.91	5.29	3.0	10hz	low_pain	44.0			sub-032	250	32	44	47.3	COM11	COM15	COM3	2024-04-23_13h43.52.043	001-EEG_SVR_Officel	2022.2.5	144.29910322783223		6.905999999999949	0_sub-pilot032_SVR_EEG_block1-2.protocol.csv	step41	5800	576.055	STIMULATE	43.9	43.9	43.9	43.9	43.9	41	536.748
530.844	0	265422	10/Lo	2	1	0	1	0	3.0	0.0	3.0	0.0						625.9388268999755	632.8557106000371	632.8557106000371	1.0	['1', 'return']	[3.0776559999212623, 3.7418104000389576]	6.91	5.29	3.0	10hz	low_pain	44.0			sub-032	250	32	44	47.3	COM11	COM15	COM3	2024-04-23_13h43.52.043	001-EEG_SVR_Officel	2022.2.5	144.29910322783223		5.290000000000077	0_sub-pilot032_SVR_EEG_block1-2.protocol.csv	step41	5800	576.055	STIMULATE	43.9	43.9	43.9	43.9	43.9	41	536.748
541.574	0	270787	wait	20	1	0	1	0	4.0	0.0	4.0	0.0						649.6145406998694	656.8863552999683	656.8863552999683	5.5	['5', 'a', '5', 'return']	[2.837836500024423, 3.0935005999635905, 3.2619062999729067, 4.207187899854034]	7.26	5.19	0.0	20hz	high_pain	47.3			sub-032	250	32	44	47.3	COM11	COM15	COM3	2024-04-23_13h43.52.043	001-EEG_SVR_Officel	2022.2.5	144.29910322783223		11.479999999999905	0_sub-pilot032_SVR_EEG_block1-2.protocol.csv	step43	6041	599.967	STIMULATE	47.4	47.3	47.2	47.3	47.2	43	560.6600000000001
548.834	0	274417	20hz	6	1	0	1	0	4.0	0.0	4.0	0.0						649.6145406998694	656.8863552999683	656.8863552999683	5.5	['5', 'a', '5', 'return']	[2.837836500024423, 3.0935005999635905, 3.2619062999729067, 4.207187899854034]	7.26	5.19	0.0	20hz	high_pain	47.3			sub-032	250	32	44	47.3	COM11	COM15	COM3	2024-04-23_13h43.52.043	001-EEG_SVR_Officel	2022.2.5	144.29910322783223		7.259999999999991	0_sub-pilot032_SVR_EEG_block1-2.protocol.csv	step43	6041	599.967	STIMULATE	47.4	47.3	47.2	47.3	47.2	43	560.6600000000001
554.778	0	277389	20/Hi	4	1	0	1	0	4.0	0.0	4.0	0.0						649.6145406998694	656.8863552999683	656.8863552999683	5.5	['5', 'a', '5', 'return']	[2.837836500024423, 3.0935005999635905, 3.2619062999729067, 4.207187899854034]	7.26	5.19	0.0	20hz	high_pain	47.3			sub-032	250	32	44	47.3	COM11	COM15	COM3	2024-04-23_13h43.52.043	001-EEG_SVR_Officel	2022.2.5	144.29910322783223		5.194000000000074	0_sub-pilot032_SVR_EEG_block1-2.protocol.csv	step43	6041	599.967	STIMULATE	47.4	47.3	47.2	47.3	47.2	43	560.6600000000001
566.07	0	283035	wait	20	1	0	1	0	5.0	0.0	5.0	0.0						674.1106499000452	679.7225975999609	679.7225975999609	1.0	['1', 'return']	[2.9627630999311805, 3.5866477000527084]	5.6	5.12	1.0	10hz	low_pain	44.0			sub-032	250	32	44	47.3	COM11	COM15	COM3	2024-04-23_13h43.52.043	001-EEG_SVR_Officel	2022.2.5	144.29910322783223		12.04200000000003	0_sub-pilot032_SVR_EEG_block1-2.protocol.csv	step45	6270	622.687	STIMULATE	44.0	43.9	43.9	43.9	43.9	45	583.3800000000001
571.67	0	285835	10hz	3	1	0	1	0	5.0	0.0	5.0	0.0						674.1106499000452	679.7225975999609	679.7225975999609	1.0	['1', 'return']	[2.9627630999311805, 3.5866477000527084]	5.6	5.12	1.0	10hz	low_pain	44.0			sub-032	250	32	44	47.3	COM11	COM15	COM3	2024-04-23_13h43.52.043	001-EEG_SVR_Officel	2022.2.5	144.29910322783223		5.599999999999909	0_sub-pilot032_SVR_EEG_block1-2.protocol.csv	step45	6270	622.687	STIMULATE	44.0	43.9	43.9	43.9	43.9	45	583.3800000000001
577.544	0	288772	10/Lo	2	1	0	1	0	5.0	0.0	5.0	0.0						674.1106499000452	679.7225975999609	679.7225975999609	1.0	['1', 'return']	[2.9627630999311805, 3.5866477000527084]	5.6	5.12	1.0	10hz	low_pain	44.0			sub-032	250	32	44	47.3	COM11	COM15	COM3	2024-04-23_13h43.52.043	001-EEG_SVR_Officel	2022.2.5	144.29910322783223		5.124000000000024	0_sub-pilot032_SVR_EEG_block1-2.protocol.csv	step45	6270	622.687	STIMULATE	44.0	43.9	43.9	43.9	43.9	45	583.3800000000001
588.288	0	294144	wait	20	1	0	1	0	6.0	0.0	6.0	0.0						696.3284539000597	702.2875359999016	702.2875359999016	6.0	['6', 'return']	[2.476405399851501, 2.909694900037721]	5.95	6.14	2.0	controle	high_pain	47.3			sub-032	250	32	44	47.3	COM11	COM15	COM3	2024-04-23_13h43.52.043	001-EEG_SVR_Officel	2022.2.5	144.29910322783223		11.494000000000028	0_sub-pilot032_SVR_EEG_block1-2.protocol.csv	step47	6509	646.368	STIMULATE	47.3	47.2	47.3	47.3	47.3	47	607.0610000000001
594.234	0	297117	CNhz	12	1	0	1	0	6.0	0.0	6.0	0.0						696.3284539000597	702.2875359999016	702.2875359999016	6.0	['6', 'return']	[2.476405399851501, 2.909694900037721]	5.95	6.14	2.0	controle	high_pain	47.3			sub-032	250	32	44	47.3	COM11	COM15	COM3	2024-04-23_13h43.52.043	001-EEG_SVR_Officel	2022.2.5	144.29910322783223		5.946000000000026	0_sub-pilot032_SVR_EEG_block1-2.protocol.csv	step47	6509	646.368	STIMULATE	47.3	47.2	47.3	47.3	47.3	47	607.0610000000001
601.128	0	300564	CN/Hi	10	1	0	1	0	6.0	0.0	6.0	0.0						696.3284539000597	702.2875359999016	702.2875359999016	6.0	['6', 'return']	[2.476405399851501, 2.909694900037721]	5.95	6.14	2.0	controle	high_pain	47.3			sub-032	250	32	44	47.3	COM11	COM15	COM3	2024-04-23_13h43.52.043	001-EEG_SVR_Officel	2022.2.5	144.29910322783223		6.1440000000000055	0_sub-pilot032_SVR_EEG_block1-2.protocol.csv	step47	6509	646.368	STIMULATE	47.3	47.2	47.3	47.3	47.3	47	607.0610000000001
610.178	0	305089	wait	20	1	0	1	0	7.0	0.0	7.0	0.0						718.2200867000502	723.7206635999028	723.7206635999028	1.0	['1', 'return']	[2.7239961000159383, 3.427016699919477]	5.49	5.8	3.0	40hz	low_pain	44.0			sub-032	250	32	44	47.3	COM11	COM15	COM3	2024-04-23_13h43.52.043	001-EEG_SVR_Officel	2022.2.5	144.29910322783223		9.799999999999955	0_sub-pilot032_SVR_EEG_block1-2.protocol.csv	step49	6722	667.413	STIMULATE	43.9	43.9	43.9	43.9	43.9	49	628.106
615.666	0	307833	40hz	9	1	0	1	0	7.0	0.0	7.0	0.0						718.2200867000502	723.7206635999028	723.7206635999028	1.0	['1', 'return']	[2.7239961000159383, 3.427016699919477]	5.49	5.8	3.0	40hz	low_pain	44.0			sub-032	250	32	44	47.3	COM11	COM15	COM3	2024-04-23_13h43.52.043	001-EEG_SVR_Officel	2022.2.5	144.29910322783223		5.488000000000056	0_sub-pilot032_SVR_EEG_block1-2.protocol.csv	step49	6722	667.413	STIMULATE	43.9	43.9	43.9	43.9	43.9	49	628.106
622.22	0	311110	40/Lo	8	1	0	1	0	7.0	0.0	7.0	0.0						718.2200867000502	723.7206635999028	723.7206635999028	1.0	['1', 'return']	[2.7239961000159383, 3.427016699919477]	5.49	5.8	3.0	40hz	low_pain	44.0			sub-032	250	32	44	47.3	COM11	COM15	COM3	2024-04-23_13h43.52.043	001-EEG_SVR_Officel	2022.2.5	144.29910322783223		5.803999999999974	0_sub-pilot032_SVR_EEG_block1-2.protocol.csv	step49	6722	667.413	STIMULATE	43.9	43.9	43.9	43.9	43.9	49	628.106
632.126	0	316063	wait	20	1	0	1	0	8.0	0.0	8.0	0.0						740.167747200001	746.4252128000371	746.4252128000371	0.5	['0', 'a', '5', 'return']	[3.4513831997755915, 3.8348577998112887, 4.362678999779746, 4.970640299841762]	6.25	5.51	0.0	20hz	low_pain	44.0			sub-032	250	32	44	47.3	COM11	COM15	COM3	2024-04-23_13h43.52.043	001-EEG_SVR_Officel	2022.2.5	144.29910322783223		10.655999999999949	0_sub-pilot032_SVR_EEG_block1-2.protocol.csv	step51	6947	689.785	STIMULATE	44.0	43.9	43.9	43.9	43.9	51	650.4780000000001
638.372	0	319186	20hz	6	1	0	1	0	8.0	0.0	8.0	0.0						740.167747200001	746.4252128000371	746.4252128000371	0.5	['0', 'a', '5', 'return']	[3.4513831997755915, 3.8348577998112887, 4.362678999779746, 4.970640299841762]	6.25	5.51	0.0	20hz	low_pain	44.0			sub-032	250	32	44	47.3	COM11	COM15	COM3	2024-04-23_13h43.52.043	001-EEG_SVR_Officel	2022.2.5	144.29910322783223		6.245999999999981	0_sub-pilot032_SVR_EEG_block1-2.protocol.csv	step51	6947	689.785	STIMULATE	44.0	43.9	43.9	43.9	43.9	51	650.4780000000001
644.634	0	322317	20/Lo	5	1	0	1	0	8.0	0.0	8.0	0.0						740.167747200001	746.4252128000371	746.4252128000371	0.5	['0', 'a', '5', 'return']	[3.4513831997755915, 3.8348577998112887, 4.362678999779746, 4.970640299841762]	6.25	5.51	0.0	20hz	low_pain	44.0			sub-032	250	32	44	47.3	COM11	COM15	COM3	2024-04-23_13h43.52.043	001-EEG_SVR_Officel	2022.2.5	144.29910322783223		5.512000000000057	0_sub-pilot032_SVR_EEG_block1-2.protocol.csv	step51	6947	689.785	STIMULATE	44.0	43.9	43.9	43.9	43.9	51	650.4780000000001
656.366	0	328183	wait	20	1	0	1	0	9.0	0.0	9.0	0.0						764.4060501998756	770.8861233000644	770.8861233000644	5.0	['5', 'return']	[3.285927100107074, 4.039232500130311]	6.47	5.96	1.0	10hz	high_pain	47.3			sub-032	250	32	44	47.3	COM11	COM15	COM3	2024-04-23_13h43.52.043	001-EEG_SVR_Officel	2022.2.5	144.29910322783223		12.481999999999971	0_sub-pilot032_SVR_EEG_block1-2.protocol.csv	step53	7199	714.737	STIMULATE	47.4	47.3	47.3	47.3	47.3	53	675.4300000000001
662.834	0	331417	10hz	3	1	0	1	0	9.0	0.0	9.0	0.0						764.4060501998756	770.8861233000644	770.8861233000644	5.0	['5', 'return']	[3.285927100107074, 4.039232500130311]	6.47	5.96	1.0	10hz	high_pain	47.3			sub-032	250	32	44	47.3	COM11	COM15	COM3	2024-04-23_13h43.52.043	001-EEG_SVR_Officel	2022.2.5	144.29910322783223		6.467999999999961	0_sub-pilot032_SVR_EEG_block1-2.protocol.csv	step53	7199	714.737	STIMULATE	47.4	47.3	47.3	47.3	47.3	53	675.4300000000001
669.548	0	334774	10/Hi	1	1	0	1	0	9.0	0.0	9.0	0.0						764.4060501998756	770.8861233000644	770.8861233000644	5.0	['5', 'return']	[3.285927100107074, 4.039232500130311]	6.47	5.96	1.0	10hz	high_pain	47.3			sub-032	250	32	44	47.3	COM11	COM15	COM3	2024-04-23_13h43.52.043	001-EEG_SVR_Officel	2022.2.5	144.29910322783223		5.9640000000000555	0_sub-pilot032_SVR_EEG_block1-2.protocol.csv	step53	7199	714.737	STIMULATE	47.4	47.3	47.3	47.3	47.3	53	675.4300000000001
679.896	0	339948	wait	20	1	0	1	0	10.0	0.0	10.0	0.0						787.9361397998873	793.8338824999519	793.8338824999519	1.5	['1', 'a', '5', 'return']	[2.619110500207171, 3.1069147000089288, 3.3304026001133025, 4.155308000044897]	5.89	5.65	2.0	controle	low_pain	44.0			sub-032	250	32	44	47.3	COM11	COM15	COM3	2024-04-23_13h43.52.043	001-EEG_SVR_Officel	2022.2.5	144.29910322783223		11.097999999999956	0_sub-pilot032_SVR_EEG_block1-2.protocol.csv	step55	7428	737.425	STIMULATE	44.0	43.9	43.9	43.9	43.9	55	698.1179999999999
685.78	0	342890	CNhz	12	1	0	1	0	10.0	0.0	10.0	0.0						787.9361397998873	793.8338824999519	793.8338824999519	1.5	['1', 'a', '5', 'return']	[2.619110500207171, 3.1069147000089288, 3.3304026001133025, 4.155308000044897]	5.89	5.65	2.0	controle	low_pain	44.0			sub-032	250	32	44	47.3	COM11	COM15	COM3	2024-04-23_13h43.52.043	001-EEG_SVR_Officel	2022.2.5	144.29910322783223		5.8840000000000146	0_sub-pilot032_SVR_EEG_block1-2.protocol.csv	step55	7428	737.425	STIMULATE	44.0	43.9	43.9	43.9	43.9	55	698.1179999999999
692.182	0	346091	CN/Lo	11	1	0	1	0	10.0	0.0	10.0	0.0						787.9361397998873	793.8338824999519	793.8338824999519	1.5	['1', 'a', '5', 'return']	[2.619110500207171, 3.1069147000089288, 3.3304026001133025, 4.155308000044897]	5.89	5.65	2.0	controle	low_pain	44.0			sub-032	250	32	44	47.3	COM11	COM15	COM3	2024-04-23_13h43.52.043	001-EEG_SVR_Officel	2022.2.5	144.29910322783223		5.652000000000044	0_sub-pilot032_SVR_EEG_block1-2.protocol.csv	step55	7428	737.425	STIMULATE	44.0	43.9	43.9	43.9	43.9	55	698.1179999999999
702.968	0	351484	wait	20	1	0	1	0	11.0	0.0	11.0	0.0						811.0088400999084	818.0377861000597	818.0377861000597	2.0	['2', 'return']	[2.2710118999239057, 2.935233699856326]	7.02	5.35	3.0	20hz	low_pain	44.0			sub-032	250	32	44	47.3	COM11	COM15	COM3	2024-04-23_13h43.52.043	001-EEG_SVR_Officel	2022.2.5	144.29910322783223		11.535999999999945	0_sub-pilot032_SVR_EEG_block1-2.protocol.csv	step57	7668	761.352	STIMULATE	44.0	43.9	43.9	43.9	43.9	57	722.0450000000001
709.984	0	354992	20hz	6	1	0	1	0	11.0	0.0	11.0	0.0						811.0088400999084	818.0377861000597	818.0377861000597	2.0	['2', 'return']	[2.2710118999239057, 2.935233699856326]	7.02	5.35	3.0	20hz	low_pain	44.0			sub-032	250	32	44	47.3	COM11	COM15	COM3	2024-04-23_13h43.52.043	001-EEG_SVR_Officel	2022.2.5	144.29910322783223		7.016000000000076	0_sub-pilot032_SVR_EEG_block1-2.protocol.csv	step57	7668	761.352	STIMULATE	44.0	43.9	43.9	43.9	43.9	57	722.0450000000001
716.088	0	358044	20/Lo	5	1	0	1	0	11.0	0.0	11.0	0.0						811.0088400999084	818.0377861000597	818.0377861000597	2.0	['2', 'return']	[2.2710118999239057, 2.935233699856326]	7.02	5.35	3.0	20hz	low_pain	44.0			sub-032	250	32	44	47.3	COM11	COM15	COM3	2024-04-23_13h43.52.043	001-EEG_SVR_Officel	2022.2.5	144.29910322783223		5.353999999999928	0_sub-pilot032_SVR_EEG_block1-2.protocol.csv	step57	7668	761.352	STIMULATE	44.0	43.9	43.9	43.9	43.9	57	722.0450000000001
725.942	0	362971	wait	20	1	0	1	0	12.0	0.0	12.0	0.0						833.9838042999618	839.6025930000469	839.6025930000469	6.0	['6', 'return']	[2.6249504999723285, 3.369625800056383]	5.61	5.76	0.0	10hz	high_pain	47.3			sub-032	250	32	44	47.3	COM11	COM15	COM3	2024-04-23_13h43.52.043	001-EEG_SVR_Officel	2022.2.5	144.29910322783223		10.604000000000042	0_sub-pilot032_SVR_EEG_block1-2.protocol.csv	step59	7888	783.3	STIMULATE	47.3	47.3	47.3	47.3	47.4	59	743.9929999999999
731.548	0	365774	10hz	3	1	0	1	0	12.0	0.0	12.0	0.0						833.9838042999618	839.6025930000469	839.6025930000469	6.0	['6', 'return']	[2.6249504999723285, 3.369625800056383]	5.61	5.76	0.0	10hz	high_pain	47.3			sub-032	250	32	44	47.3	COM11	COM15	COM3	2024-04-23_13h43.52.043	001-EEG_SVR_Officel	2022.2.5	144.29910322783223		5.6059999999999945	0_sub-pilot032_SVR_EEG_block1-2.protocol.csv	step59	7888	783.3	STIMULATE	47.3	47.3	47.3	47.3	47.4	59	743.9929999999999
738.062	0	369031	10/Hi	1	1	0	1	0	12.0	0.0	12.0	0.0						833.9838042999618	839.6025930000469	839.6025930000469	6.0	['6', 'return']	[2.6249504999723285, 3.369625800056383]	5.61	5.76	0.0	10hz	high_pain	47.3			sub-032	250	32	44	47.3	COM11	COM15	COM3	2024-04-23_13h43.52.043	001-EEG_SVR_Officel	2022.2.5	144.29910322783223		5.76400000000001	0_sub-pilot032_SVR_EEG_block1-2.protocol.csv	step59	7888	783.3	STIMULATE	47.3	47.3	47.3	47.3	47.4	59	743.9929999999999
747.946	0	373973	wait	20	1	0	1	0	13.0	0.0	13.0	0.0						855.9868222998921	863.064194199862	863.064194199862	3.0	['3', 'return']	[2.724873699946329, 3.461636299965903]	7.07	5.22	1.0	40hz	high_pain	47.3			sub-032	250	32	44	47.3	COM11	COM15	COM3	2024-04-23_13h43.52.043	001-EEG_SVR_Officel	2022.2.5	144.29910322783223		10.634000000000015	0_sub-pilot032_SVR_EEG_block1-2.protocol.csv	step61	8113	806.232	STIMULATE	47.5	47.3	47.3	47.3	47.4	61	766.925
755.01	0	377505	40hz	9	1	0	1	0	13.0	0.0	13.0	0.0						855.9868222998921	863.064194199862	863.064194199862	3.0	['3', 'return']	[2.724873699946329, 3.461636299965903]	7.07	5.22	1.0	40hz	high_pain	47.3			sub-032	250	32	44	47.3	COM11	COM15	COM3	2024-04-23_13h43.52.043	001-EEG_SVR_Officel	2022.2.5	144.29910322783223		7.0639999999999645	0_sub-pilot032_SVR_EEG_block1-2.protocol.csv	step61	8113	806.232	STIMULATE	47.5	47.3	47.3	47.3	47.4	61	766.925
760.982	0	380491	40/Hi	7	1	0	1	0	13.0	0.0	13.0	0.0						855.9868222998921	863.064194199862	863.064194199862	3.0	['3', 'return']	[2.724873699946329, 3.461636299965903]	7.07	5.22	1.0	40hz	high_pain	47.3			sub-032	250	32	44	47.3	COM11	COM15	COM3	2024-04-23_13h43.52.043	001-EEG_SVR_Officel	2022.2.5	144.29910322783223		5.22199999999998	0_sub-pilot032_SVR_EEG_block1-2.protocol.csv	step61	8113	806.232	STIMULATE	47.5	47.3	47.3	47.3	47.4	61	766.925
771.496	0	385748	wait	20	1	0	1	0	14.0	0.0	14.0	0.0						879.5379298999906	884.9344510000665	884.9344510000665	5.5	['5', 'a', '5', 'return']	[1.9423775998875499, 2.157644100021571, 2.3741037999279797, 3.0932763998862356]	5.39	6.48	2.0	40hz	high_pain	47.3			sub-032	250	32	44	47.3	COM11	COM15	COM3	2024-04-23_13h43.52.043	001-EEG_SVR_Officel	2022.2.5	144.29910322783223		11.26400000000001	0_sub-pilot032_SVR_EEG_block1-2.protocol.csv	step63	8336	829.348	STIMULATE	47.3	47.3	47.3	47.2	47.3	63	790.0409999999999
776.88	0	388440	40hz	9	1	0	1	0	14.0	0.0	14.0	0.0						879.5379298999906	884.9344510000665	884.9344510000665	5.5	['5', 'a', '5', 'return']	[1.9423775998875499, 2.157644100021571, 2.3741037999279797, 3.0932763998862356]	5.39	6.48	2.0	40hz	high_pain	47.3			sub-032	250	32	44	47.3	COM11	COM15	COM3	2024-04-23_13h43.52.043	001-EEG_SVR_Officel	2022.2.5	144.29910322783223		5.3840000000000146	0_sub-pilot032_SVR_EEG_block1-2.protocol.csv	step63	8336	829.348	STIMULATE	47.3	47.3	47.3	47.2	47.3	63	790.0409999999999
784.116	0	392058	40/Hi	7	1	0	1	0	14.0	0.0	14.0	0.0						879.5379298999906	884.9344510000665	884.9344510000665	5.5	['5', 'a', '5', 'return']	[1.9423775998875499, 2.157644100021571, 2.3741037999279797, 3.0932763998862356]	5.39	6.48	2.0	40hz	high_pain	47.3			sub-032	250	32	44	47.3	COM11	COM15	COM3	2024-04-23_13h43.52.043	001-EEG_SVR_Officel	2022.2.5	144.29910322783223		6.48599999999999	0_sub-pilot032_SVR_EEG_block1-2.protocol.csv	step63	8336	829.348	STIMULATE	47.3	47.3	47.3	47.2	47.3	63	790.0409999999999
793.006	0	396503	wait	20	1	0	1	0	15.0	0.0	15.0	0.0						901.0477996999398	906.9857280999422	906.9857280999422	1.0	['1', 'return']	[3.0426129000261426, 3.5709057999774814]	5.93	5.58	3.0	controle	low_pain	44.0			sub-032	250	32	44	47.3	COM11	COM15	COM3	2024-04-23_13h43.52.043	001-EEG_SVR_Officel	2022.2.5	144.29910322783223		9.639999999999986	0_sub-pilot032_SVR_EEG_block1-2.protocol.csv	step65	8539	850.525	STIMULATE	43.9	43.9	43.9	43.9	43.9	65	811.2180000000001
798.932	0	399466	CNhz	12	1	0	1	0	15.0	0.0	15.0	0.0						901.0477996999398	906.9857280999422	906.9857280999422	1.0	['1', 'return']	[3.0426129000261426, 3.5709057999774814]	5.93	5.58	3.0	controle	low_pain	44.0			sub-032	250	32	44	47.3	COM11	COM15	COM3	2024-04-23_13h43.52.043	001-EEG_SVR_Officel	2022.2.5	144.29910322783223		5.926000000000045	0_sub-pilot032_SVR_EEG_block1-2.protocol.csv	step65	8539	850.525	STIMULATE	43.9	43.9	43.9	43.9	43.9	65	811.2180000000001
805.264	0	402632	CN/Lo	11	1	0	1	0	15.0	0.0	15.0	0.0						901.0477996999398	906.9857280999422	906.9857280999422	1.0	['1', 'return']	[3.0426129000261426, 3.5709057999774814]	5.93	5.58	3.0	controle	low_pain	44.0			sub-032	250	32	44	47.3	COM11	COM15	COM3	2024-04-23_13h43.52.043	001-EEG_SVR_Officel	2022.2.5	144.29910322783223		5.581999999999994	0_sub-pilot032_SVR_EEG_block1-2.protocol.csv	step65	8539	850.525	STIMULATE	43.9	43.9	43.9	43.9	43.9	65	811.2180000000001
879.488	0	439744	wait	20	2	0	2	0	0.0	0.0	0.0	0.0				p	0.4038956998847425	987.5305880999658	993.551654000068	993.551654000068	4.5	['4', 'a', '5', 'return']	[2.7495263998862356, 2.9563140000682324, 3.3721604999154806, 4.1561765999067575]	6.01	5.71	0.0	controle	high_pain	47.3			sub-032	250	32	44	47.3	COM11	COM15	COM3	2024-04-23_13h43.52.043	001-EEG_SVR_Officel	2022.2.5	144.29910322783223		74.97400000000005	1_sub-pilot032_SVR_EEG_block3-4.protocol.csv	step3	747	74.549	STIMULATE	47.5	47.2	47.3	47.2	47.3	3	897.803
885.496	0	442748	CNhz	12	2	0	2	0	0.0	0.0	0.0	0.0				p	0.4038956998847425	987.5305880999658	993.551654000068	993.551654000068	4.5	['4', 'a', '5', 'return']	[2.7495263998862356, 2.9563140000682324, 3.3721604999154806, 4.1561765999067575]	6.01	5.71	0.0	controle	high_pain	47.3			sub-032	250	32	44	47.3	COM11	COM15	COM3	2024-04-23_13h43.52.043	001-EEG_SVR_Officel	2022.2.5	144.29910322783223		6.0079999999999245	1_sub-pilot032_SVR_EEG_block3-4.protocol.csv	step3	747	74.549	STIMULATE	47.5	47.2	47.3	47.2	47.3	3	897.803
891.96	0	445980	CN/Hi	10	2	0	2	0	0.0	0.0	0.0	0.0				p	0.4038956998847425	987.5305880999658	993.551654000068	993.551654000068	4.5	['4', 'a', '5', 'return']	[2.7495263998862356, 2.9563140000682324, 3.3721604999154806, 4.1561765999067575]	6.01	5.71	0.0	controle	high_pain	47.3			sub-032	250	32	44	47.3	COM11	COM15	COM3	2024-04-23_13h43.52.043	001-EEG_SVR_Officel	2022.2.5	144.29910322783223		5.7140000000000555	1_sub-pilot032_SVR_EEG_block3-4.protocol.csv	step3	747	74.549	STIMULATE	47.5	47.2	47.3	47.2	47.3	3	897.803
902.676	0	451338	wait	20	2	0	2	0	1.0	0.0	1.0	0.0						1010.7198451000731	1018.2419942000416	1018.2419942000416	4.0	['4', 'return']	[2.9697171999141574, 3.5789501999970526]	7.51	5.08	1.0	20hz	high_pain	47.3			sub-032	250	32	44	47.3	COM11	COM15	COM3	2024-04-23_13h43.52.043	001-EEG_SVR_Officel	2022.2.5	144.29910322783223		11.466000000000008	1_sub-pilot032_SVR_EEG_block3-4.protocol.csv	step5	990	98.623	STIMULATE	47.5	47.2	47.2	47.3	47.4	5	921.8770000000001
910.188	0	455094	20hz	6	2	0	2	0	1.0	0.0	1.0	0.0						1010.7198451000731	1018.2419942000416	1018.2419942000416	4.0	['4', 'return']	[2.9697171999141574, 3.5789501999970526]	7.51	5.08	1.0	20hz	high_pain	47.3			sub-032	250	32	44	47.3	COM11	COM15	COM3	2024-04-23_13h43.52.043	001-EEG_SVR_Officel	2022.2.5	144.29910322783223		7.511999999999944	1_sub-pilot032_SVR_EEG_block3-4.protocol.csv	step5	990	98.623	STIMULATE	47.5	47.2	47.2	47.3	47.4	5	921.8770000000001
916.02	0	458010	20/Hi	4	2	0	2	0	1.0	0.0	1.0	0.0						1010.7198451000731	1018.2419942000416	1018.2419942000416	4.0	['4', 'return']	[2.9697171999141574, 3.5789501999970526]	7.51	5.08	1.0	20hz	high_pain	47.3			sub-032	250	32	44	47.3	COM11	COM15	COM3	2024-04-23_13h43.52.043	001-EEG_SVR_Officel	2022.2.5	144.29910322783223		5.081999999999994	1_sub-pilot032_SVR_EEG_block3-4.protocol.csv	step5	990	98.623	STIMULATE	47.5	47.2	47.2	47.3	47.4	5	921.8770000000001
926.792	0	463396	wait	20	2	0	2	0	2.0	0.0	2.0	0.0						1034.8339017999824	1041.341967199929	1041.341967199929	7.0	['7', 'return']	[3.4860127000138164, 4.0469426000490785]	6.5	5.25	2.0	controle	high_pain	47.3			sub-032	250	32	44	47.3	COM11	COM15	COM3	2024-04-23_13h43.52.043	001-EEG_SVR_Officel	2022.2.5	144.29910322783223		11.522000000000048	1_sub-pilot032_SVR_EEG_block3-4.protocol.csv	step7	1225	121.901	STIMULATE	47.3	47.2	47.3	47.3	47.3	7	945.155
933.288	0	466644	CNhz	12	2	0	2	0	2.0	0.0	2.0	0.0						1034.8339017999824	1041.341967199929	1041.341967199929	7.0	['7', 'return']	[3.4860127000138164, 4.0469426000490785]	6.5	5.25	2.0	controle	high_pain	47.3			sub-032	250	32	44	47.3	COM11	COM15	COM3	2024-04-23_13h43.52.043	001-EEG_SVR_Officel	2022.2.5	144.29910322783223		6.495999999999981	1_sub-pilot032_SVR_EEG_block3-4.protocol.csv	step7	1225	121.901	STIMULATE	47.3	47.2	47.3	47.3	47.3	7	945.155
939.286	0	469643	CN/Hi	10	2	0	2	0	2.0	0.0	2.0	0.0						1034.8339017999824	1041.341967199929	1041.341967199929	7.0	['7', 'return']	[3.4860127000138164, 4.0469426000490785]	6.5	5.25	2.0	controle	high_pain	47.3			sub-032	250	32	44	47.3	COM11	COM15	COM3	2024-04-23_13h43.52.043	001-EEG_SVR_Officel	2022.2.5	144.29910322783223		5.247999999999934	1_sub-pilot032_SVR_EEG_block3-4.protocol.csv	step7	1225	121.901	STIMULATE	47.3	47.2	47.3	47.3	47.3	7	945.155
950.364	0	475182	wait	20	2	0	2	0	3.0	0.0	3.0	0.0						1058.4066641998943	1066.2479435999412	1066.2479435999412	1.5	['1', 'a', '5', 'return']	[2.196868099970743, 2.6921258999500424, 3.0682448998559266, 3.7174718999303877]	7.83	5.8	3.0	40hz	low_pain	44.0			sub-032	250	32	44	47.3	COM11	COM15	COM3	2024-04-23_13h43.52.043	001-EEG_SVR_Officel	2022.2.5	144.29910322783223		11.828000000000088	1_sub-pilot032_SVR_EEG_block3-4.protocol.csv	step9	1481	147.358	STIMULATE	43.9	43.9	43.9	43.9	43.9	9	970.6120000000001
958.192	0	479096	40hz	9	2	0	2	0	3.0	0.0	3.0	0.0						1058.4066641998943	1066.2479435999412	1066.2479435999412	1.5	['1', 'a', '5', 'return']	[2.196868099970743, 2.6921258999500424, 3.0682448998559266, 3.7174718999303877]	7.83	5.8	3.0	40hz	low_pain	44.0			sub-032	250	32	44	47.3	COM11	COM15	COM3	2024-04-23_13h43.52.043	001-EEG_SVR_Officel	2022.2.5	144.29910322783223		7.8279999999999745	1_sub-pilot032_SVR_EEG_block3-4.protocol.csv	step9	1481	147.358	STIMULATE	43.9	43.9	43.9	43.9	43.9	9	970.6120000000001
964.74	0	482370	40/Lo	8	2	0	2	0	3.0	0.0	3.0	0.0						1058.4066641998943	1066.2479435999412	1066.2479435999412	1.5	['1', 'a', '5', 'return']	[2.196868099970743, 2.6921258999500424, 3.0682448998559266, 3.7174718999303877]	7.83	5.8	3.0	40hz	low_pain	44.0			sub-032	250	32	44	47.3	COM11	COM15	COM3	2024-04-23_13h43.52.043	001-EEG_SVR_Officel	2022.2.5	144.29910322783223		5.798000000000002	1_sub-pilot032_SVR_EEG_block3-4.protocol.csv	step9	1481	147.358	STIMULATE	43.9	43.9	43.9	43.9	43.9	9	970.6120000000001
974.944	0	487472	wait	20	2	0	2	0	4.0	0.0	4.0	0.0						1082.986597500043	1090.792980399914	1090.792980399914	5.5	['5', 'a', '5', 'return']	[4.643461999949068, 4.828363100066781, 5.0356087000109255, 5.738815699936822]	7.8	5.34	0.0	20hz	high_pain	47.3			sub-032	250	32	44	47.3	COM11	COM15	COM3	2024-04-23_13h43.52.043	001-EEG_SVR_Officel	2022.2.5	144.29910322783223		10.95399999999995	1_sub-pilot032_SVR_EEG_block3-4.protocol.csv	step11	1724	171.433	STIMULATE	47.3	47.3	47.3	47.3	47.4	11	994.687
982.738	0	491369	20hz	6	2	0	2	0	4.0	0.0	4.0	0.0						1082.986597500043	1090.792980399914	1090.792980399914	5.5	['5', 'a', '5', 'return']	[4.643461999949068, 4.828363100066781, 5.0356087000109255, 5.738815699936822]	7.8	5.34	0.0	20hz	high_pain	47.3			sub-032	250	32	44	47.3	COM11	COM15	COM3	2024-04-23_13h43.52.043	001-EEG_SVR_Officel	2022.2.5	144.29910322783223		7.794000000000096	1_sub-pilot032_SVR_EEG_block3-4.protocol.csv	step11	1724	171.433	STIMULATE	47.3	47.3	47.3	47.3	47.4	11	994.687
988.826	0	494413	20/Hi	4	2	0	2	0	4.0	0.0	4.0	0.0						1082.986597500043	1090.792980399914	1090.792980399914	5.5	['5', 'a', '5', 'return']	[4.643461999949068, 4.828363100066781, 5.0356087000109255, 5.738815699936822]	7.8	5.34	0.0	20hz	high_pain	47.3			sub-032	250	32	44	47.3	COM11	COM15	COM3	2024-04-23_13h43.52.043	001-EEG_SVR_Officel	2022.2.5	144.29910322783223		5.337999999999965	1_sub-pilot032_SVR_EEG_block3-4.protocol.csv	step11	1724	171.433	STIMULATE	47.3	47.3	47.3	47.3	47.4	11	994.687
1001.51	0	500755	wait	20	2	0	2	0	5.0	0.0	5.0	0.0						1109.552209599875	1116.948278799886	1116.948278799886	1.0	['1', 'return']	[3.2798667000606656, 4.007430700119585]	7.39	5.01	1.0	20hz	low_pain	44.0			sub-032	250	32	44	47.3	COM11	COM15	COM3	2024-04-23_13h43.52.043	001-EEG_SVR_Officel	2022.2.5	144.29910322783223		13.433999999999969	1_sub-pilot032_SVR_EEG_block3-4.protocol.csv	step13	1984	197.207	STIMULATE	44.0	43.9	43.9	43.9	44.1	13	1020.461
1008.894	0	504447	20hz	6	2	0	2	0	5.0	0.0	5.0	0.0						1109.552209599875	1116.948278799886	1116.948278799886	1.0	['1', 'return']	[3.2798667000606656, 4.007430700119585]	7.39	5.01	1.0	20hz	low_pain	44.0			sub-032	250	32	44	47.3	COM11	COM15	COM3	2024-04-23_13h43.52.043	001-EEG_SVR_Officel	2022.2.5	144.29910322783223		7.3840000000000146	1_sub-pilot032_SVR_EEG_block3-4.protocol.csv	step13	1984	197.207	STIMULATE	44.0	43.9	43.9	43.9	44.1	13	1020.461
1014.656	0	507328	20/Lo	5	2	0	2	0	5.0	0.0	5.0	0.0						1109.552209599875	1116.948278799886	1116.948278799886	1.0	['1', 'return']	[3.2798667000606656, 4.007430700119585]	7.39	5.01	1.0	20hz	low_pain	44.0			sub-032	250	32	44	47.3	COM11	COM15	COM3	2024-04-23_13h43.52.043	001-EEG_SVR_Officel	2022.2.5	144.29910322783223		5.011999999999944	1_sub-pilot032_SVR_EEG_block3-4.protocol.csv	step13	1984	197.207	STIMULATE	44.0	43.9	43.9	43.9	44.1	13	1020.461
1025.92	0	512960	wait	20	2	0	2	0	6.0	0.0	6.0	0.0						1133.9638538998552	1140.0065993999597	1140.0065993999597	1.0	['1', 'return']	[2.637660800013691, 3.3499838998541236]	6.03	6.16	2.0	40hz	low_pain	44.0			sub-032	250	32	44	47.3	COM11	COM15	COM3	2024-04-23_13h43.52.043	001-EEG_SVR_Officel	2022.2.5	144.29910322783223		12.014000000000124	1_sub-pilot032_SVR_EEG_block3-4.protocol.csv	step15	2228	221.472	STIMULATE	44.0	43.9	43.9	43.9	43.9	15	1044.726
1031.952	0	515976	40hz	9	2	0	2	0	6.0	0.0	6.0	0.0						1133.9638538998552	1140.0065993999597	1140.0065993999597	1.0	['1', 'return']	[2.637660800013691, 3.3499838998541236]	6.03	6.16	2.0	40hz	low_pain	44.0			sub-032	250	32	44	47.3	COM11	COM15	COM3	2024-04-23_13h43.52.043	001-EEG_SVR_Officel	2022.2.5	144.29910322783223		6.031999999999925	1_sub-pilot032_SVR_EEG_block3-4.protocol.csv	step15	2228	221.472	STIMULATE	44.0	43.9	43.9	43.9	43.9	15	1044.726
1038.86	0	519429	40/Lo	8	2	0	2	0	6.0	0.0	6.0	0.0						1133.9638538998552	1140.0065993999597	1140.0065993999597	1.0	['1', 'return']	[2.637660800013691, 3.3499838998541236]	6.03	6.16	2.0	40hz	low_pain	44.0			sub-032	250	32	44	47.3	COM11	COM15	COM3	2024-04-23_13h43.52.043	001-EEG_SVR_Officel	2022.2.5	144.29910322783223		6.157999999999902	1_sub-pilot032_SVR_EEG_block3-4.protocol.csv	step15	2228	221.472	STIMULATE	44.0	43.9	43.9	43.9	43.9	15	1044.726
1048.334	0	524167	wait	20	2	0	2	0	7.0	0.0	7.0	0.0						1156.376732799923	1164.315074400045	1164.315074400045	6.0	['6', 'return']	[2.2892330999020487, 3.0261281998828053]	7.93	5.78	3.0	20hz	high_pain	47.3			sub-032	250	32	44	47.3	COM11	COM15	COM3	2024-04-23_13h43.52.043	001-EEG_SVR_Officel	2022.2.5	144.29910322783223		10.22400000000016	1_sub-pilot032_SVR_EEG_block3-4.protocol.csv	step17	2469	245.319	STIMULATE	47.4	47.3	47.3	47.3	47.3	17	1068.573
1056.26	0	528130	20hz	6	2	0	2	0	7.0	0.0	7.0	0.0						1156.376732799923	1164.315074400045	1164.315074400045	6.0	['6', 'return']	[2.2892330999020487, 3.0261281998828053]	7.93	5.78	3.0	20hz	high_pain	47.3			sub-032	250	32	44	47.3	COM11	COM15	COM3	2024-04-23_13h43.52.043	001-EEG_SVR_Officel	2022.2.5	144.29910322783223		7.925999999999931	1_sub-pilot032_SVR_EEG_block3-4.protocol.csv	step17	2469	245.319	STIMULATE	47.4	47.3	47.3	47.3	47.3	17	1068.573
1062.794	0	531397	20/Hi	4	2	0	2	0	7.0	0.0	7.0	0.0						1156.376732799923	1164.315074400045	1164.315074400045	6.0	['6', 'return']	[2.2892330999020487, 3.0261281998828053]	7.93	5.78	3.0	20hz	high_pain	47.3			sub-032	250	32	44	47.3	COM11	COM15	COM3	2024-04-23_13h43.52.043	001-EEG_SVR_Officel	2022.2.5	144.29910322783223		5.7840000000001055	1_sub-pilot032_SVR_EEG_block3-4.protocol.csv	step17	2469	245.319	STIMULATE	47.4	47.3	47.3	47.3	47.3	17	1068.573
1072.308	0	536154	wait	20	2	0	2	0	8.0	0.0	8.0	0.0						1180.3512533998585	1188.1096687999088	1188.1096687999088	0.5	['0', 'a', '5', 'return']	[3.7674669998232275, 4.294281499926001, 4.630425699986517, 5.47073689987883]	7.75	5.46	0.0	20hz	low_pain	44.0			sub-032	250	32	44	47.3	COM11	COM15	COM3	2024-04-23_13h43.52.043	001-EEG_SVR_Officel	2022.2.5	144.29910322783223		10.263999999999896	1_sub-pilot032_SVR_EEG_block3-4.protocol.csv	step19	2706	268.887	STIMULATE	44.1	43.9	43.9	43.9	43.9	19	1092.141
1080.054	0	540027	20hz	6	2	0	2	0	8.0	0.0	8.0	0.0						1180.3512533998585	1188.1096687999088	1188.1096687999088	0.5	['0', 'a', '5', 'return']	[3.7674669998232275, 4.294281499926001, 4.630425699986517, 5.47073689987883]	7.75	5.46	0.0	20hz	low_pain	44.0			sub-032	250	32	44	47.3	COM11	COM15	COM3	2024-04-23_13h43.52.043	001-EEG_SVR_Officel	2022.2.5	144.29910322783223		7.746000000000095	1_sub-pilot032_SVR_EEG_block3-4.protocol.csv	step19	2706	268.887	STIMULATE	44.1	43.9	43.9	43.9	43.9	19	1092.141
1086.268	0	543134	20/Lo	5	2	0	2	0	8.0	0.0	8.0	0.0						1180.3512533998585	1188.1096687999088	1188.1096687999088	0.5	['0', 'a', '5', 'return']	[3.7674669998232275, 4.294281499926001, 4.630425699986517, 5.47073689987883]	7.75	5.46	0.0	20hz	low_pain	44.0			sub-032	250	32	44	47.3	COM11	COM15	COM3	2024-04-23_13h43.52.043	001-EEG_SVR_Officel	2022.2.5	144.29910322783223		5.463999999999942	1_sub-pilot032_SVR_EEG_block3-4.protocol.csv	step19	2706	268.887	STIMULATE	44.1	43.9	43.9	43.9	43.9	19	1092.141
1098.554	0	549277	wait	20	2	0	2	0	9.0	0.0	9.0	0.0						1206.5979218999855	1214.0571043998934	1214.0571043998934	0.0	['0', 'return']	[4.362454100046307, 5.138933100039139]	7.45	6.12	1.0	40hz	low_pain	44.0			sub-032	250	32	44	47.3	COM11	COM15	COM3	2024-04-23_13h43.52.043	001-EEG_SVR_Officel	2022.2.5	144.29910322783223		13.036000000000058	1_sub-pilot032_SVR_EEG_block3-4.protocol.csv	step21	2975	295.553	STIMULATE	44.1	43.9	43.9	43.9	44.1	21	1118.807
1106.002	0	553001	40hz	9	2	0	2	0	9.0	0.0	9.0	0.0						1206.5979218999855	1214.0571043998934	1214.0571043998934	0.0	['0', 'return']	[4.362454100046307, 5.138933100039139]	7.45	6.12	1.0	40hz	low_pain	44.0			sub-032	250	32	44	47.3	COM11	COM15	COM3	2024-04-23_13h43.52.043	001-EEG_SVR_Officel	2022.2.5	144.29910322783223		7.447999999999865	1_sub-pilot032_SVR_EEG_block3-4.protocol.csv	step21	2975	295.553	STIMULATE	44.1	43.9	43.9	43.9	44.1	21	1118.807
1112.874	0	556437	40/Lo	8	2	0	2	0	9.0	0.0	9.0	0.0						1206.5979218999855	1214.0571043998934	1214.0571043998934	0.0	['0', 'return']	[4.362454100046307, 5.138933100039139]	7.45	6.12	1.0	40hz	low_pain	44.0			sub-032	250	32	44	47.3	COM11	COM15	COM3	2024-04-23_13h43.52.043	001-EEG_SVR_Officel	2022.2.5	144.29910322783223		6.122000000000071	1_sub-pilot032_SVR_EEG_block3-4.protocol.csv	step21	2975	295.553	STIMULATE	44.1	43.9	43.9	43.9	44.1	21	1118.807
1124.168	0	562084	wait	20	2	0	2	0	10.0	0.0	10.0	0.0						1232.21217409987	1238.6642515000422	1238.6642515000422	9.0	['9', 'return']	[2.40418710000813, 2.876282999990508]	6.44	5.97	2.0	20hz	high_pain	47.3			sub-032	250	32	44	47.3	COM11	COM15	COM3	2024-04-23_13h43.52.043	001-EEG_SVR_Officel	2022.2.5	144.29910322783223		12.043999999999869	1_sub-pilot032_SVR_EEG_block3-4.protocol.csv	step23	3221	319.955	STIMULATE	47.4	47.3	47.2	47.3	47.2	23	1143.209
1130.608	0	565304	20hz	6	2	0	2	0	10.0	0.0	10.0	0.0						1232.21217409987	1238.6642515000422	1238.6642515000422	9.0	['9', 'return']	[2.40418710000813, 2.876282999990508]	6.44	5.97	2.0	20hz	high_pain	47.3			sub-032	250	32	44	47.3	COM11	COM15	COM3	2024-04-23_13h43.52.043	001-EEG_SVR_Officel	2022.2.5	144.29910322783223		6.440000000000055	1_sub-pilot032_SVR_EEG_block3-4.protocol.csv	step23	3221	319.955	STIMULATE	47.4	47.3	47.2	47.3	47.2	23	1143.209
1137.33	0	568665	20/Hi	4	2	0	2	0	10.0	0.0	10.0	0.0						1232.21217409987	1238.6642515000422	1238.6642515000422	9.0	['9', 'return']	[2.40418710000813, 2.876282999990508]	6.44	5.97	2.0	20hz	high_pain	47.3			sub-032	250	32	44	47.3	COM11	COM15	COM3	2024-04-23_13h43.52.043	001-EEG_SVR_Officel	2022.2.5	144.29910322783223		5.97199999999998	1_sub-pilot032_SVR_EEG_block3-4.protocol.csv	step23	3221	319.955	STIMULATE	47.4	47.3	47.2	47.3	47.2	23	1143.209
1146.518	0	573259	wait	20	2	0	2	0	11.0	0.0	11.0	0.0						1254.562051600078	1260.4516368999612	1260.4516368999612	2.5	['2', 'a', '5', 'return']	[2.472231299849227, 2.8327732000034302, 3.0247454999480397, 4.0249377998989075]	5.88	5.6	3.0	controle	low_pain	44.0			sub-032	250	32	44	47.3	COM11	COM15	COM3	2024-04-23_13h43.52.043	001-EEG_SVR_Officel	2022.2.5	144.29910322783223		9.938000000000102	1_sub-pilot032_SVR_EEG_block3-4.protocol.csv	step25	3438	341.461	STIMULATE	44.0	43.9	43.9	43.9	43.9	25	1164.7150000000001
1152.396	0	576198	CNhz	12	2	0	2	0	11.0	0.0	11.0	0.0						1254.562051600078	1260.4516368999612	1260.4516368999612	2.5	['2', 'a', '5', 'return']	[2.472231299849227, 2.8327732000034302, 3.0247454999480397, 4.0249377998989075]	5.88	5.6	3.0	controle	low_pain	44.0			sub-032	250	32	44	47.3	COM11	COM15	COM3	2024-04-23_13h43.52.043	001-EEG_SVR_Officel	2022.2.5	144.29910322783223		5.877999999999929	1_sub-pilot032_SVR_EEG_block3-4.protocol.csv	step25	3438	341.461	STIMULATE	44.0	43.9	43.9	43.9	43.9	25	1164.7150000000001
1158.748	0	579374	CN/Lo	11	2	0	2	0	11.0	0.0	11.0	0.0						1254.562051600078	1260.4516368999612	1260.4516368999612	2.5	['2', 'a', '5', 'return']	[2.472231299849227, 2.8327732000034302, 3.0247454999480397, 4.0249377998989075]	5.88	5.6	3.0	controle	low_pain	44.0			sub-032	250	32	44	47.3	COM11	COM15	COM3	2024-04-23_13h43.52.043	001-EEG_SVR_Officel	2022.2.5	144.29910322783223		5.602000000000089	1_sub-pilot032_SVR_EEG_block3-4.protocol.csv	step25	3438	341.461	STIMULATE	44.0	43.9	43.9	43.9	43.9	25	1164.7150000000001
1169.452	0	584726	wait	20	2	0	2	0	12.0	0.0	12.0	0.0						1277.495292800013	1284.6558755000588	1284.6558755000588	1.0	['1', 'return']	[3.355766599997878, 4.436362200183794]	7.15	5.96	0.0	40hz	low_pain	44.0			sub-032	250	32	44	47.3	COM11	COM15	COM3	2024-04-23_13h43.52.043	001-EEG_SVR_Officel	2022.2.5	144.29910322783223		11.45399999999995	1_sub-pilot032_SVR_EEG_block3-4.protocol.csv	step27	3685	365.992	STIMULATE	44.0	43.9	43.9	43.9	44.0	27	1189.246
1176.6	0	588300	40hz	9	2	0	2	0	12.0	0.0	12.0	0.0						1277.495292800013	1284.6558755000588	1284.6558755000588	1.0	['1', 'return']	[3.355766599997878, 4.436362200183794]	7.15	5.96	0.0	40hz	low_pain	44.0			sub-032	250	32	44	47.3	COM11	COM15	COM3	2024-04-23_13h43.52.043	001-EEG_SVR_Officel	2022.2.5	144.29910322783223		7.147999999999911	1_sub-pilot032_SVR_EEG_block3-4.protocol.csv	step27	3685	365.992	STIMULATE	44.0	43.9	43.9	43.9	44.0	27	1189.246
1183.314	0	591657	40/Lo	8	2	0	2	0	12.0	0.0	12.0	0.0						1277.495292800013	1284.6558755000588	1284.6558755000588	1.0	['1', 'return']	[3.355766599997878, 4.436362200183794]	7.15	5.96	0.0	40hz	low_pain	44.0			sub-032	250	32	44	47.3	COM11	COM15	COM3	2024-04-23_13h43.52.043	001-EEG_SVR_Officel	2022.2.5	144.29910322783223		5.964000000000169	1_sub-pilot032_SVR_EEG_block3-4.protocol.csv	step27	3685	365.992	STIMULATE	44.0	43.9	43.9	43.9	44.0	27	1189.246
1194.058	0	597029	wait	20	2	0	2	0	13.0	0.0	13.0	0.0						1302.1023794000505	1307.9017014999408	1307.9017014999408	1.5	['1', 'a', '5', 'return']	[4.398627600166947, 4.7900913001503795, 4.998361800098792, 5.742189000127837]	5.79	5.17	1.0	controle	low_pain	44.0			sub-032	250	32	44	47.3	COM11	COM15	COM3	2024-04-23_13h43.52.043	001-EEG_SVR_Officel	2022.2.5	144.29910322783223		11.493999999999915	1_sub-pilot032_SVR_EEG_block3-4.protocol.csv	step29	3911	388.362	STIMULATE	44.1	43.9	43.9	43.9	44.1	29	1211.616
1199.846	0	599923	CNhz	12	2	0	2	0	13.0	0.0	13.0	0.0						1302.1023794000505	1307.9017014999408	1307.9017014999408	1.5	['1', 'a', '5', 'return']	[4.398627600166947, 4.7900913001503795, 4.998361800098792, 5.742189000127837]	5.79	5.17	1.0	controle	low_pain	44.0			sub-032	250	32	44	47.3	COM11	COM15	COM3	2024-04-23_13h43.52.043	001-EEG_SVR_Officel	2022.2.5	144.29910322783223		5.788000000000011	1_sub-pilot032_SVR_EEG_block3-4.protocol.csv	step29	3911	388.362	STIMULATE	44.1	43.9	43.9	43.9	44.1	29	1211.616
1205.768	0	602884	CN/Lo	11	2	0	2	0	13.0	0.0	13.0	0.0						1302.1023794000505	1307.9017014999408	1307.9017014999408	1.5	['1', 'a', '5', 'return']	[4.398627600166947, 4.7900913001503795, 4.998361800098792, 5.742189000127837]	5.79	5.17	1.0	controle	low_pain	44.0			sub-032	250	32	44	47.3	COM11	COM15	COM3	2024-04-23_13h43.52.043	001-EEG_SVR_Officel	2022.2.5	144.29910322783223		5.1720000000000255	1_sub-pilot032_SVR_EEG_block3-4.protocol.csv	step29	3911	388.362	STIMULATE	44.1	43.9	43.9	43.9	44.1	29	1211.616
1218.616	0	609308	wait	20	2	0	2	0	14.0	0.0	14.0	0.0						1326.6615800000727	1332.204309300054	1332.204309300054	5.0	['5', 'return']	[2.6724900999106467, 3.2647023000754416]	5.53	5.38	2.0	10hz	high_pain	47.3			sub-032	250	32	44	47.3	COM11	COM15	COM3	2024-04-23_13h43.52.043	001-EEG_SVR_Officel	2022.2.5	144.29910322783223		13.597999999999956	1_sub-pilot032_SVR_EEG_block3-4.protocol.csv	step31	4158	412.897	STIMULATE	47.4	47.2	47.3	47.3	47.3	31	1236.151
1224.148	0	612074	10hz	3	2	0	2	0	14.0	0.0	14.0	0.0						1326.6615800000727	1332.204309300054	1332.204309300054	5.0	['5', 'return']	[2.6724900999106467, 3.2647023000754416]	5.53	5.38	2.0	10hz	high_pain	47.3			sub-032	250	32	44	47.3	COM11	COM15	COM3	2024-04-23_13h43.52.043	001-EEG_SVR_Officel	2022.2.5	144.29910322783223		5.531999999999925	1_sub-pilot032_SVR_EEG_block3-4.protocol.csv	step31	4158	412.897	STIMULATE	47.4	47.2	47.3	47.3	47.3	31	1236.151
1230.278	0	615139	10/Hi	1	2	0	2	0	14.0	0.0	14.0	0.0						1326.6615800000727	1332.204309300054	1332.204309300054	5.0	['5', 'return']	[2.6724900999106467, 3.2647023000754416]	5.53	5.38	2.0	10hz	high_pain	47.3			sub-032	250	32	44	47.3	COM11	COM15	COM3	2024-04-23_13h43.52.043	001-EEG_SVR_Officel	2022.2.5	144.29910322783223		5.380000000000109	1_sub-pilot032_SVR_EEG_block3-4.protocol.csv	step31	4158	412.897	STIMULATE	47.4	47.2	47.3	47.3	47.3	31	1236.151
1240.446	0	620223	wait	20	2	0	2	0	15.0	0.0	15.0	0.0						1348.4905522000045	1356.428810399957	1356.428810399957	1.5	['1', 'a', '5', 'return']	[3.9918267999310046, 4.407206899952143, 4.623492199927568, 5.295449499972165]	7.93	6.45	3.0	20hz	low_pain	44.0			sub-032	250	32	44	47.3	COM11	COM15	COM3	2024-04-23_13h43.52.043	001-EEG_SVR_Officel	2022.2.5	144.29910322783223		10.917999999999893	1_sub-pilot032_SVR_EEG_block3-4.protocol.csv	step33	4413	438.192	STIMULATE	43.9	43.9	43.9	43.9	43.9	33	1261.446
1248.372	0	624186	20hz	6	2	0	2	0	15.0	0.0	15.0	0.0						1348.4905522000045	1356.428810399957	1356.428810399957	1.5	['1', 'a', '5', 'return']	[3.9918267999310046, 4.407206899952143, 4.623492199927568, 5.295449499972165]	7.93	6.45	3.0	20hz	low_pain	44.0			sub-032	250	32	44	47.3	COM11	COM15	COM3	2024-04-23_13h43.52.043	001-EEG_SVR_Officel	2022.2.5	144.29910322783223		7.926000000000158	1_sub-pilot032_SVR_EEG_block3-4.protocol.csv	step33	4413	438.192	STIMULATE	43.9	43.9	43.9	43.9	43.9	33	1261.446
1255.572	0	627786	20/Lo	5	2	0	2	0	15.0	0.0	15.0	0.0						1348.4905522000045	1356.428810399957	1356.428810399957	1.5	['1', 'a', '5', 'return']	[3.9918267999310046, 4.407206899952143, 4.623492199927568, 5.295449499972165]	7.93	6.45	3.0	20hz	low_pain	44.0			sub-032	250	32	44	47.3	COM11	COM15	COM3	2024-04-23_13h43.52.043	001-EEG_SVR_Officel	2022.2.5	144.29910322783223		6.449999999999818	1_sub-pilot032_SVR_EEG_block3-4.protocol.csv	step33	4413	438.192	STIMULATE	43.9	43.9	43.9	43.9	43.9	33	1261.446
1326.636	0	663318	wait	20	3	0	3	0	0.0	0.0	0.0	0.0				p	1.892824999988079	1434.6808157998605	1441.758892599959	1441.758892599959	2.0	['2', 'return']	[2.9732668998185545, 3.7089918998535722]	7.07	6.16	0.0	controle	low_pain	44.0			sub-032	250	32	44	47.3	COM11	COM15	COM3	2024-04-23_13h43.52.043	001-EEG_SVR_Officel	2022.2.5	144.29910322783223		71.81400000000008	1_sub-pilot032_SVR_EEG_block3-4.protocol.csv	step35	5266	523.309	STIMULATE	44.1	43.9	43.9	43.9	44.0	35	1346.493
1333.702	0	666851	CNhz	12	3	0	3	0	0.0	0.0	0.0	0.0				p	1.892824999988079	1434.6808157998605	1441.758892599959	1441.758892599959	2.0	['2', 'return']	[2.9732668998185545, 3.7089918998535722]	7.07	6.16	0.0	controle	low_pain	44.0			sub-032	250	32	44	47.3	COM11	COM15	COM3	2024-04-23_13h43.52.043	001-EEG_SVR_Officel	2022.2.5	144.29910322783223		7.066000000000031	1_sub-pilot032_SVR_EEG_block3-4.protocol.csv	step35	5266	523.309	STIMULATE	44.1	43.9	43.9	43.9	44.0	35	1346.493
1340.61	0	670305	CN/Lo	11	3	0	3	0	0.0	0.0	0.0	0.0				p	1.892824999988079	1434.6808157998605	1441.758892599959	1441.758892599959	2.0	['2', 'return']	[2.9732668998185545, 3.7089918998535722]	7.07	6.16	0.0	controle	low_pain	44.0			sub-032	250	32	44	47.3	COM11	COM15	COM3	2024-04-23_13h43.52.043	001-EEG_SVR_Officel	2022.2.5	144.29910322783223		6.157999999999902	1_sub-pilot032_SVR_EEG_block3-4.protocol.csv	step35	5266	523.309	STIMULATE	44.1	43.9	43.9	43.9	44.0	35	1346.493
1350.444	0	675222	wait	20	3	0	3	0	1.0	0.0	1.0	0.0						1458.4896805000026	1463.8309973999858	1463.8309973999858	7.5	['7', 'a', '5', 'return']	[3.014061799971387, 3.422989800106734, 3.645704000024125, 4.319026899989694]	5.33	5.84	1.0	10hz	high_pain	47.3			sub-032	250	32	44	47.3	COM11	COM15	COM3	2024-04-23_13h43.52.043	001-EEG_SVR_Officel	2022.2.5	144.29910322783223		10.58400000000006	1_sub-pilot032_SVR_EEG_block3-4.protocol.csv	step37	5485	544.991	STIMULATE	47.5	47.3	47.3	47.3	47.5	37	1368.1749999999997
1355.774	0	677887	10hz	3	3	0	3	0	1.0	0.0	1.0	0.0						1458.4896805000026	1463.8309973999858	1463.8309973999858	7.5	['7', 'a', '5', 'return']	[3.014061799971387, 3.422989800106734, 3.645704000024125, 4.319026899989694]	5.33	5.84	1.0	10hz	high_pain	47.3			sub-032	250	32	44	47.3	COM11	COM15	COM3	2024-04-23_13h43.52.043	001-EEG_SVR_Officel	2022.2.5	144.29910322783223		5.329999999999927	1_sub-pilot032_SVR_EEG_block3-4.protocol.csv	step37	5485	544.991	STIMULATE	47.5	47.3	47.3	47.3	47.5	37	1368.1749999999997
1362.368	0	681184	10/Hi	1	3	0	3	0	1.0	0.0	1.0	0.0						1458.4896805000026	1463.8309973999858	1463.8309973999858	7.5	['7', 'a', '5', 'return']	[3.014061799971387, 3.422989800106734, 3.645704000024125, 4.319026899989694]	5.33	5.84	1.0	10hz	high_pain	47.3			sub-032	250	32	44	47.3	COM11	COM15	COM3	2024-04-23_13h43.52.043	001-EEG_SVR_Officel	2022.2.5	144.29910322783223		5.844000000000051	1_sub-pilot032_SVR_EEG_block3-4.protocol.csv	step37	5485	544.991	STIMULATE	47.5	47.3	47.3	47.3	47.5	37	1368.1749999999997
1373.114	0	686557	wait	20	3	0	3	0	2.0	0.0	2.0	0.0						1481.1585943999237	1487.124594700057	1487.124594700057	2.0	['2', 'return']	[3.031593899941072, 3.7289509000256658]	5.96	5.21	2.0	controle	low_pain	44.0			sub-032	250	32	44	47.3	COM11	COM15	COM3	2024-04-23_13h43.52.043	001-EEG_SVR_Officel	2022.2.5	144.29910322783223		11.496000000000095	1_sub-pilot032_SVR_EEG_block3-4.protocol.csv	step39	5714	567.703	STIMULATE	44.0	43.9	43.9	43.9	44.0	39	1390.8869999999997
1379.068	0	689534	CNhz	12	3	0	3	0	2.0	0.0	2.0	0.0						1481.1585943999237	1487.124594700057	1487.124594700057	2.0	['2', 'return']	[3.031593899941072, 3.7289509000256658]	5.96	5.21	2.0	controle	low_pain	44.0			sub-032	250	32	44	47.3	COM11	COM15	COM3	2024-04-23_13h43.52.043	001-EEG_SVR_Officel	2022.2.5	144.29910322783223		5.953999999999951	1_sub-pilot032_SVR_EEG_block3-4.protocol.csv	step39	5714	567.703	STIMULATE	44.0	43.9	43.9	43.9	44.0	39	1390.8869999999997
1385.032	0	692516	CN/Lo	11	3	0	3	0	2.0	0.0	2.0	0.0						1481.1585943999237	1487.124594700057	1487.124594700057	2.0	['2', 'return']	[3.031593899941072, 3.7289509000256658]	5.96	5.21	2.0	controle	low_pain	44.0			sub-032	250	32	44	47.3	COM11	COM15	COM3	2024-04-23_13h43.52.043	001-EEG_SVR_Officel	2022.2.5	144.29910322783223		5.213999999999942	1_sub-pilot032_SVR_EEG_block3-4.protocol.csv	step39	5714	567.703	STIMULATE	44.0	43.9	43.9	43.9	44.0	39	1390.8869999999997
1395.824	0	697912	wait	20	3	0	3	0	3.0	0.0	3.0	0.0						1503.869733999949	1511.2525841000024	1511.2525841000024	8.0	['8', 'return']	[3.480627400102094, 4.095473299967125]	7.37	5.21	3.0	10hz	high_pain	47.3			sub-032	250	32	44	47.3	COM11	COM15	COM3	2024-04-23_13h43.52.043	001-EEG_SVR_Officel	2022.2.5	144.29910322783223		11.542000000000144	1_sub-pilot032_SVR_EEG_block3-4.protocol.csv	step41	5957	591.796	STIMULATE	47.3	47.3	47.3	47.2	47.3	41	1414.98
1403.194	0	701597	10hz	3	3	0	3	0	3.0	0.0	3.0	0.0						1503.869733999949	1511.2525841000024	1511.2525841000024	8.0	['8', 'return']	[3.480627400102094, 4.095473299967125]	7.37	5.21	3.0	10hz	high_pain	47.3			sub-032	250	32	44	47.3	COM11	COM15	COM3	2024-04-23_13h43.52.043	001-EEG_SVR_Officel	2022.2.5	144.29910322783223		7.369999999999891	1_sub-pilot032_SVR_EEG_block3-4.protocol.csv	step41	5957	591.796	STIMULATE	47.3	47.3	47.3	47.2	47.3	41	1414.98
1409.158	0	704579	10/Hi	1	3	0	3	0	3.0	0.0	3.0	0.0						1503.869733999949	1511.2525841000024	1511.2525841000024	8.0	['8', 'return']	[3.480627400102094, 4.095473299967125]	7.37	5.21	3.0	10hz	high_pain	47.3			sub-032	250	32	44	47.3	COM11	COM15	COM3	2024-04-23_13h43.52.043	001-EEG_SVR_Officel	2022.2.5	144.29910322783223		5.213999999999942	1_sub-pilot032_SVR_EEG_block3-4.protocol.csv	step41	5957	591.796	STIMULATE	47.3	47.3	47.3	47.2	47.3	41	1414.98
1420.32	0	710160	wait	20	3	0	3	0	4.0	0.0	4.0	0.0						1528.365668100072	1534.5541012999602	1534.5541012999602	9.5	['9', 'a', '5', 'return']	[2.7058772000018507, 3.073686300078407, 3.3859993000514805, 4.229020900093019]	6.18	6.4	0.0	10hz	high_pain	47.3			sub-032	250	32	44	47.3	COM11	COM15	COM3	2024-04-23_13h43.52.043	001-EEG_SVR_Officel	2022.2.5	144.29910322783223		11.912000000000035	1_sub-pilot032_SVR_EEG_block3-4.protocol.csv	step43	6205	616.351	STIMULATE	47.5	47.2	47.3	47.3	47.4	43	1439.5349999999999
1426.496	0	713248	10hz	3	3	0	3	0	4.0	0.0	4.0	0.0						1528.365668100072	1534.5541012999602	1534.5541012999602	9.5	['9', 'a', '5', 'return']	[2.7058772000018507, 3.073686300078407, 3.3859993000514805, 4.229020900093019]	6.18	6.4	0.0	10hz	high_pain	47.3			sub-032	250	32	44	47.3	COM11	COM15	COM3	2024-04-23_13h43.52.043	001-EEG_SVR_Officel	2022.2.5	144.29910322783223		6.176000000000158	1_sub-pilot032_SVR_EEG_block3-4.protocol.csv	step43	6205	616.351	STIMULATE	47.5	47.2	47.3	47.3	47.4	43	1439.5349999999999
1433.648	0	716824	10/Hi	1	3	0	3	0	4.0	0.0	4.0	0.0						1528.365668100072	1534.5541012999602	1534.5541012999602	9.5	['9', 'a', '5', 'return']	[2.7058772000018507, 3.073686300078407, 3.3859993000514805, 4.229020900093019]	6.18	6.4	0.0	10hz	high_pain	47.3			sub-032	250	32	44	47.3	COM11	COM15	COM3	2024-04-23_13h43.52.043	001-EEG_SVR_Officel	2022.2.5	144.29910322783223		6.401999999999816	1_sub-pilot032_SVR_EEG_block3-4.protocol.csv	step43	6205	616.351	STIMULATE	47.5	47.2	47.3	47.3	47.4	43	1439.5349999999999
1443.76	0	721880	wait	20	3	0	3	0	5.0	0.0	5.0	0.0						1551.806055400055	1559.0778636999894	1559.0778636999894	0.5	['0', 'a', '5', 'return']	[3.9988812999799848, 4.407001100014895, 4.790547599783167, 5.502277799881995]	7.26	6.47	1.0	10hz	low_pain	44.0			sub-032	250	32	44	47.3	COM11	COM15	COM3	2024-04-23_13h43.52.043	001-EEG_SVR_Officel	2022.2.5	144.29910322783223		10.86200000000008	1_sub-pilot032_SVR_EEG_block3-4.protocol.csv	step45	6453	640.966	STIMULATE	43.9	43.9	43.9	43.9	44.1	45	1464.1499999999999
1451.02	0	725510	10hz	3	3	0	3	0	5.0	0.0	5.0	0.0						1551.806055400055	1559.0778636999894	1559.0778636999894	0.5	['0', 'a', '5', 'return']	[3.9988812999799848, 4.407001100014895, 4.790547599783167, 5.502277799881995]	7.26	6.47	1.0	10hz	low_pain	44.0			sub-032	250	32	44	47.3	COM11	COM15	COM3	2024-04-23_13h43.52.043	001-EEG_SVR_Officel	2022.2.5	144.29910322783223		7.259999999999991	1_sub-pilot032_SVR_EEG_block3-4.protocol.csv	step45	6453	640.966	STIMULATE	43.9	43.9	43.9	43.9	44.1	45	1464.1499999999999
1458.24	0	729120	10/Lo	2	3	0	3	0	5.0	0.0	5.0	0.0						1551.806055400055	1559.0778636999894	1559.0778636999894	0.5	['0', 'a', '5', 'return']	[3.9988812999799848, 4.407001100014895, 4.790547599783167, 5.502277799881995]	7.26	6.47	1.0	10hz	low_pain	44.0			sub-032	250	32	44	47.3	COM11	COM15	COM3	2024-04-23_13h43.52.043	001-EEG_SVR_Officel	2022.2.5	144.29910322783223		6.470000000000027	1_sub-pilot032_SVR_EEG_block3-4.protocol.csv	step45	6453	640.966	STIMULATE	43.9	43.9	43.9	43.9	44.1	45	1464.1499999999999
1469.554	0	734777	wait	20	3	0	3	0	6.0	0.0	6.0	0.0						1577.6008170000275	1584.907201899914	1584.907201899914	8.5	['8', 'a', '5', 'return']	[3.241232099942863, 3.545350299915299, 3.976433099946007, 4.665205299854279]	7.3	6.37	2.0	40hz	high_pain	47.3			sub-032	250	32	44	47.3	COM11	COM15	COM3	2024-04-23_13h43.52.043	001-EEG_SVR_Officel	2022.2.5	144.29910322783223		12.064000000000078	1_sub-pilot032_SVR_EEG_block3-4.protocol.csv	step47	6712	666.631	STIMULATE	47.3	47.2	47.3	47.3	47.3	47	1489.8149999999998
1476.85	0	738425	40hz	9	3	0	3	0	6.0	0.0	6.0	0.0						1577.6008170000275	1584.907201899914	1584.907201899914	8.5	['8', 'a', '5', 'return']	[3.241232099942863, 3.545350299915299, 3.976433099946007, 4.665205299854279]	7.3	6.37	2.0	40hz	high_pain	47.3			sub-032	250	32	44	47.3	COM11	COM15	COM3	2024-04-23_13h43.52.043	001-EEG_SVR_Officel	2022.2.5	144.29910322783223		7.295999999999822	1_sub-pilot032_SVR_EEG_block3-4.protocol.csv	step47	6712	666.631	STIMULATE	47.3	47.2	47.3	47.3	47.3	47	1489.8149999999998
1483.974	0	741987	40/Hi	7	3	0	3	0	6.0	0.0	6.0	0.0						1577.6008170000275	1584.907201899914	1584.907201899914	8.5	['8', 'a', '5', 'return']	[3.241232099942863, 3.545350299915299, 3.976433099946007, 4.665205299854279]	7.3	6.37	2.0	40hz	high_pain	47.3			sub-032	250	32	44	47.3	COM11	COM15	COM3	2024-04-23_13h43.52.043	001-EEG_SVR_Officel	2022.2.5	144.29910322783223		6.374000000000024	1_sub-pilot032_SVR_EEG_block3-4.protocol.csv	step47	6712	666.631	STIMULATE	47.3	47.2	47.3	47.3	47.3	47	1489.8149999999998
1494.536	0	747268	wait	20	3	0	3	0	7.0	0.0	7.0	0.0						1602.582386399852	1608.8614240000024	1608.8614240000024	2.0	['2', 'return']	[2.950903399847448, 3.751846899976954]	6.27	6.38	3.0	10hz	low_pain	44.0			sub-032	250	32	44	47.3	COM11	COM15	COM3	2024-04-23_13h43.52.043	001-EEG_SVR_Officel	2022.2.5	144.29910322783223		11.312000000000126	1_sub-pilot032_SVR_EEG_block3-4.protocol.csv	step49	6953	690.576	STIMULATE	43.9	43.9	43.9	43.9	43.9	49	1513.7599999999998
1500.804	0	750402	10hz	3	3	0	3	0	7.0	0.0	7.0	0.0						1602.582386399852	1608.8614240000024	1608.8614240000024	2.0	['2', 'return']	[2.950903399847448, 3.751846899976954]	6.27	6.38	3.0	10hz	low_pain	44.0			sub-032	250	32	44	47.3	COM11	COM15	COM3	2024-04-23_13h43.52.043	001-EEG_SVR_Officel	2022.2.5	144.29910322783223		6.268000000000029	1_sub-pilot032_SVR_EEG_block3-4.protocol.csv	step49	6953	690.576	STIMULATE	43.9	43.9	43.9	43.9	43.9	49	1513.7599999999998
1507.934	0	753967	10/Lo	2	3	0	3	0	7.0	0.0	7.0	0.0						1602.582386399852	1608.8614240000024	1608.8614240000024	2.0	['2', 'return']	[2.950903399847448, 3.751846899976954]	6.27	6.38	3.0	10hz	low_pain	44.0			sub-032	250	32	44	47.3	COM11	COM15	COM3	2024-04-23_13h43.52.043	001-EEG_SVR_Officel	2022.2.5	144.29910322783223		6.379999999999882	1_sub-pilot032_SVR_EEG_block3-4.protocol.csv	step49	6953	690.576	STIMULATE	43.9	43.9	43.9	43.9	43.9	49	1513.7599999999998
1517.58	0	758790	wait	20	3	0	3	0	8.0	0.0	8.0	0.0						1625.6266616999635	1633.0796606000513	1633.0796606000513	2.0	['2', 'return']	[3.004863299895078, 3.6769876999314874]	7.44	6.41	0.0	10hz	low_pain	44.0			sub-032	250	32	44	47.3	COM11	COM15	COM3	2024-04-23_13h43.52.043	001-EEG_SVR_Officel	2022.2.5	144.29910322783223		10.395999999999958	1_sub-pilot032_SVR_EEG_block3-4.protocol.csv	step51	7198	714.846	STIMULATE	44.0	43.9	43.9	43.9	44.1	51	1538.0299999999997
1525.02	0	762510	10hz	3	3	0	3	0	8.0	0.0	8.0	0.0						1625.6266616999635	1633.0796606000513	1633.0796606000513	2.0	['2', 'return']	[3.004863299895078, 3.6769876999314874]	7.44	6.41	0.0	10hz	low_pain	44.0			sub-032	250	32	44	47.3	COM11	COM15	COM3	2024-04-23_13h43.52.043	001-EEG_SVR_Officel	2022.2.5	144.29910322783223		7.440000000000055	1_sub-pilot032_SVR_EEG_block3-4.protocol.csv	step51	7198	714.846	STIMULATE	44.0	43.9	43.9	43.9	44.1	51	1538.0299999999997
1532.18	0	766090	10/Lo	2	3	0	3	0	8.0	0.0	8.0	0.0						1625.6266616999635	1633.0796606000513	1633.0796606000513	2.0	['2', 'return']	[3.004863299895078, 3.6769876999314874]	7.44	6.41	0.0	10hz	low_pain	44.0			sub-032	250	32	44	47.3	COM11	COM15	COM3	2024-04-23_13h43.52.043	001-EEG_SVR_Officel	2022.2.5	144.29910322783223		6.410000000000082	1_sub-pilot032_SVR_EEG_block3-4.protocol.csv	step51	7198	714.846	STIMULATE	44.0	43.9	43.9	43.9	44.1	51	1538.0299999999997
1541.722	0	770861	wait	20	3	0	3	0	9.0	0.0	9.0	0.0						1649.7688243999146	1655.3669139998965	1655.3669139998965	5.0	['5', 'return']	[2.717483199900016, 3.340845200000331]	5.59	5.42	1.0	controle	high_pain	47.3			sub-032	250	32	44	47.3	COM11	COM15	COM3	2024-04-23_13h43.52.043	001-EEG_SVR_Officel	2022.2.5	144.29910322783223		10.291999999999916	1_sub-pilot032_SVR_EEG_block3-4.protocol.csv	step53	7413	736.196	STIMULATE	47.4	47.3	47.3	47.2	47.5	53	1559.3799999999999
1547.31	0	773655	CNhz	12	3	0	3	0	9.0	0.0	9.0	0.0						1649.7688243999146	1655.3669139998965	1655.3669139998965	5.0	['5', 'return']	[2.717483199900016, 3.340845200000331]	5.59	5.42	1.0	controle	high_pain	47.3			sub-032	250	32	44	47.3	COM11	COM15	COM3	2024-04-23_13h43.52.043	001-EEG_SVR_Officel	2022.2.5	144.29910322783223		5.587999999999965	1_sub-pilot032_SVR_EEG_block3-4.protocol.csv	step53	7413	736.196	STIMULATE	47.4	47.3	47.3	47.2	47.5	53	1559.3799999999999
1553.48	0	776740	CN/Hi	10	3	0	3	0	9.0	0.0	9.0	0.0						1649.7688243999146	1655.3669139998965	1655.3669139998965	5.0	['5', 'return']	[2.717483199900016, 3.340845200000331]	5.59	5.42	1.0	controle	high_pain	47.3			sub-032	250	32	44	47.3	COM11	COM15	COM3	2024-04-23_13h43.52.043	001-EEG_SVR_Officel	2022.2.5	144.29910322783223		5.420000000000073	1_sub-pilot032_SVR_EEG_block3-4.protocol.csv	step53	7413	736.196	STIMULATE	47.4	47.3	47.3	47.2	47.5	53	1559.3799999999999
1563.684	0	781842	wait	20	3	0	3	0	10.0	0.0	10.0	0.0						1671.7299861998763	1678.1613096999936	1678.1613096999936	1.0	['1', 'return']	[3.0820575999096036, 3.9310345000121742]	6.42	5.67	2.0	10hz	low_pain	44.0			sub-032	250	32	44	47.3	COM11	COM15	COM3	2024-04-23_13h43.52.043	001-EEG_SVR_Officel	2022.2.5	144.29910322783223		10.95399999999995	1_sub-pilot032_SVR_EEG_block3-4.protocol.csv	step55	7646	759.302	STIMULATE	44.0	43.9	43.9	43.9	43.9	55	1582.4859999999999
1570.104	0	785052	10hz	3	3	0	3	0	10.0	0.0	10.0	0.0						1671.7299861998763	1678.1613096999936	1678.1613096999936	1.0	['1', 'return']	[3.0820575999096036, 3.9310345000121742]	6.42	5.67	2.0	10hz	low_pain	44.0			sub-032	250	32	44	47.3	COM11	COM15	COM3	2024-04-23_13h43.52.043	001-EEG_SVR_Officel	2022.2.5	144.29910322783223		6.420000000000073	1_sub-pilot032_SVR_EEG_block3-4.protocol.csv	step55	7646	759.302	STIMULATE	44.0	43.9	43.9	43.9	43.9	55	1582.4859999999999
1576.526	0	788263	10/Lo	2	3	0	3	0	10.0	0.0	10.0	0.0						1671.7299861998763	1678.1613096999936	1678.1613096999936	1.0	['1', 'return']	[3.0820575999096036, 3.9310345000121742]	6.42	5.67	2.0	10hz	low_pain	44.0			sub-032	250	32	44	47.3	COM11	COM15	COM3	2024-04-23_13h43.52.043	001-EEG_SVR_Officel	2022.2.5	144.29910322783223		5.6720000000000255	1_sub-pilot032_SVR_EEG_block3-4.protocol.csv	step55	7646	759.302	STIMULATE	44.0	43.9	43.9	43.9	43.9	55	1582.4859999999999
1587.062	0	793531	wait	20	3	0	3	0	11.0	0.0	11.0	0.0						1695.10828340007	1702.401057299925	1702.401057299925	5.5	['5', 'a', '5', 'return']	[2.963776599848643, 3.1643489999696612, 3.3801430999301374, 4.06885109981522]	7.28	5.56	3.0	controle	high_pain	47.3			sub-032	250	32	44	47.3	COM11	COM15	COM3	2024-04-23_13h43.52.043	001-EEG_SVR_Officel	2022.2.5	144.29910322783223		11.28599999999983	1_sub-pilot032_SVR_EEG_block3-4.protocol.csv	step57	7884	783.335	STIMULATE	47.4	47.2	47.3	47.3	47.3	57	1606.5189999999998
1594.344	0	797172	CNhz	12	3	0	3	0	11.0	0.0	11.0	0.0						1695.10828340007	1702.401057299925	1702.401057299925	5.5	['5', 'a', '5', 'return']	[2.963776599848643, 3.1643489999696612, 3.3801430999301374, 4.06885109981522]	7.28	5.56	3.0	controle	high_pain	47.3			sub-032	250	32	44	47.3	COM11	COM15	COM3	2024-04-23_13h43.52.043	001-EEG_SVR_Officel	2022.2.5	144.29910322783223		7.282000000000153	1_sub-pilot032_SVR_EEG_block3-4.protocol.csv	step57	7884	783.335	STIMULATE	47.4	47.2	47.3	47.3	47.3	57	1606.5189999999998
1600.654	0	800327	CN/Hi	10	3	0	3	0	11.0	0.0	11.0	0.0						1695.10828340007	1702.401057299925	1702.401057299925	5.5	['5', 'a', '5', 'return']	[2.963776599848643, 3.1643489999696612, 3.3801430999301374, 4.06885109981522]	7.28	5.56	3.0	controle	high_pain	47.3			sub-032	250	32	44	47.3	COM11	COM15	COM3	2024-04-23_13h43.52.043	001-EEG_SVR_Officel	2022.2.5	144.29910322783223		5.559999999999945	1_sub-pilot032_SVR_EEG_block3-4.protocol.csv	step57	7884	783.335	STIMULATE	47.4	47.2	47.3	47.3	47.3	57	1606.5189999999998
1611.432	0	805716	wait	20	3	0	3	0	12.0	0.0	12.0	0.0						1719.477776600048	1725.3476623999886	1725.3476623999886	9.0	['9', 'return']	[2.856781000038609, 3.312653500121087]	5.86	5.74	0.0	40hz	high_pain	47.3			sub-032	250	32	44	47.3	COM11	COM15	COM3	2024-04-23_13h43.52.043	001-EEG_SVR_Officel	2022.2.5	144.29910322783223		11.52800000000002	1_sub-pilot032_SVR_EEG_block3-4.protocol.csv	step59	8109	806.552	STIMULATE	47.5	47.3	47.3	47.3	47.4	59	1629.7359999999999
1617.29	0	808645	40hz	9	3	0	3	0	12.0	0.0	12.0	0.0						1719.477776600048	1725.3476623999886	1725.3476623999886	9.0	['9', 'return']	[2.856781000038609, 3.312653500121087]	5.86	5.74	0.0	40hz	high_pain	47.3			sub-032	250	32	44	47.3	COM11	COM15	COM3	2024-04-23_13h43.52.043	001-EEG_SVR_Officel	2022.2.5	144.29910322783223		5.857999999999947	1_sub-pilot032_SVR_EEG_block3-4.protocol.csv	step59	8109	806.552	STIMULATE	47.5	47.3	47.3	47.3	47.4	59	1629.7359999999999
1623.78	0	811890	40/Hi	7	3	0	3	0	12.0	0.0	12.0	0.0						1719.477776600048	1725.3476623999886	1725.3476623999886	9.0	['9', 'return']	[2.856781000038609, 3.312653500121087]	5.86	5.74	0.0	40hz	high_pain	47.3			sub-032	250	32	44	47.3	COM11	COM15	COM3	2024-04-23_13h43.52.043	001-EEG_SVR_Officel	2022.2.5	144.29910322783223		5.740000000000009	1_sub-pilot032_SVR_EEG_block3-4.protocol.csv	step59	8109	806.552	STIMULATE	47.5	47.3	47.3	47.3	47.4	59	1629.7359999999999
1633.63	0	816815	wait	20	3	0	3	0	13.0	0.0	13.0	0.0						1741.6760315999854	1748.9401094000789	1748.9401094000789	4.0	['4', 'return']	[3.702333200024441, 4.310943300137296]	7.26	5.02	1.0	40hz	high_pain	47.3			sub-032	250	32	44	47.3	COM11	COM15	COM3	2024-04-23_13h43.52.043	001-EEG_SVR_Officel	2022.2.5	144.29910322783223		10.600000000000136	1_sub-pilot032_SVR_EEG_block3-4.protocol.csv	step61	8328	829.351	STIMULATE	47.3	47.3	47.3	47.3	47.5	61	1652.5349999999999
1640.886	0	820443	40hz	9	3	0	3	0	13.0	0.0	13.0	0.0						1741.6760315999854	1748.9401094000789	1748.9401094000789	4.0	['4', 'return']	[3.702333200024441, 4.310943300137296]	7.26	5.02	1.0	40hz	high_pain	47.3			sub-032	250	32	44	47.3	COM11	COM15	COM3	2024-04-23_13h43.52.043	001-EEG_SVR_Officel	2022.2.5	144.29910322783223		7.255999999999858	1_sub-pilot032_SVR_EEG_block3-4.protocol.csv	step61	8328	829.351	STIMULATE	47.3	47.3	47.3	47.3	47.5	61	1652.5349999999999
1646.658	0	823329	40/Hi	7	3	0	3	0	13.0	0.0	13.0	0.0						1741.6760315999854	1748.9401094000789	1748.9401094000789	4.0	['4', 'return']	[3.702333200024441, 4.310943300137296]	7.26	5.02	1.0	40hz	high_pain	47.3			sub-032	250	32	44	47.3	COM11	COM15	COM3	2024-04-23_13h43.52.043	001-EEG_SVR_Officel	2022.2.5	144.29910322783223		5.0219999999999345	1_sub-pilot032_SVR_EEG_block3-4.protocol.csv	step61	8328	829.351	STIMULATE	47.3	47.3	47.3	47.3	47.5	61	1652.5349999999999
1658.236	0	829118	wait	20	3	0	3	0	14.0	0.0	14.0	0.0						1766.2836696000304	1773.3258549000602	1773.3258549000602	1.5	['1', 'a', '5', 'return']	[3.167820400092751, 3.543139199959114, 4.079634499968961, 4.782445200020447]	7.03	6.4	2.0	20hz	low_pain	44.0			sub-032	250	32	44	47.3	COM11	COM15	COM3	2024-04-23_13h43.52.043	001-EEG_SVR_Officel	2022.2.5	144.29910322783223		12.328000000000202	1_sub-pilot032_SVR_EEG_block3-4.protocol.csv	step63	8574	855.156	STIMULATE	44.0	43.9	43.9	43.9	43.9	63	1678.3399999999997
1665.268	0	832634	20hz	6	3	0	3	0	14.0	0.0	14.0	0.0						1766.2836696000304	1773.3258549000602	1773.3258549000602	1.5	['1', 'a', '5', 'return']	[3.167820400092751, 3.543139199959114, 4.079634499968961, 4.782445200020447]	7.03	6.4	2.0	20hz	low_pain	44.0			sub-032	250	32	44	47.3	COM11	COM15	COM3	2024-04-23_13h43.52.043	001-EEG_SVR_Officel	2022.2.5	144.29910322783223		7.031999999999925	1_sub-pilot032_SVR_EEG_block3-4.protocol.csv	step63	8574	855.156	STIMULATE	44.0	43.9	43.9	43.9	43.9	63	1678.3399999999997
1672.418	0	836209	20/Lo	5	3	0	3	0	14.0	0.0	14.0	0.0						1766.2836696000304	1773.3258549000602	1773.3258549000602	1.5	['1', 'a', '5', 'return']	[3.167820400092751, 3.543139199959114, 4.079634499968961, 4.782445200020447]	7.03	6.4	2.0	20hz	low_pain	44.0			sub-032	250	32	44	47.3	COM11	COM15	COM3	2024-04-23_13h43.52.043	001-EEG_SVR_Officel	2022.2.5	144.29910322783223		6.399999999999864	1_sub-pilot032_SVR_EEG_block3-4.protocol.csv	step63	8574	855.156	STIMULATE	44.0	43.9	43.9	43.9	43.9	63	1678.3399999999997
1683.072	0	841536	wait	20	3	0	3	0	15.0	0.0	15.0	0.0						1791.1193084998522	1796.3080344998743	1796.3080344998743	6.5	['6', 'a', '5', 'return']	[3.4077229001559317, 4.263905200175941, 4.576460300013423, 5.439708500169218]	5.18	6.1	3.0	40hz	high_pain	47.3			sub-032	250	32	44	47.3	COM11	COM15	COM3	2024-04-23_13h43.52.043	001-EEG_SVR_Officel	2022.2.5	144.29910322783223		11.403999999999996	1_sub-pilot032_SVR_EEG_block3-4.protocol.csv	step65	8788	877.82	STIMULATE	47.4	47.3	47.2	47.2	47.3	65	1701.004
1688.25	0	844125	40hz	9	3	0	3	0	15.0	0.0	15.0	0.0						1791.1193084998522	1796.3080344998743	1796.3080344998743	6.5	['6', 'a', '5', 'return']	[3.4077229001559317, 4.263905200175941, 4.576460300013423, 5.439708500169218]	5.18	6.1	3.0	40hz	high_pain	47.3			sub-032	250	32	44	47.3	COM11	COM15	COM3	2024-04-23_13h43.52.043	001-EEG_SVR_Officel	2022.2.5	144.29910322783223		5.178000000000111	1_sub-pilot032_SVR_EEG_block3-4.protocol.csv	step65	8788	877.82	STIMULATE	47.4	47.3	47.2	47.2	47.3	65	1701.004
1695.102	0	847551	40/Hi	7	3	0	3	0	15.0	0.0	15.0	0.0						1791.1193084998522	1796.3080344998743	1796.3080344998743	6.5	['6', 'a', '5', 'return']	[3.4077229001559317, 4.263905200175941, 4.576460300013423, 5.439708500169218]	5.18	6.1	3.0	40hz	high_pain	47.3			sub-032	250	32	44	47.3	COM11	COM15	COM3	2024-04-23_13h43.52.043	001-EEG_SVR_Officel	2022.2.5	144.29910322783223		6.102000000000089	1_sub-pilot032_SVR_EEG_block3-4.protocol.csv	step65	8788	877.82	STIMULATE	47.4	47.3	47.2	47.2	47.3	65	1701.004
1765.812	0	882906	wait	20	4	0	4	0	0.0	0.0	0.0	0.0				p	1.6269626000430435	1873.8583903999531	1880.1299781000707	1880.1299781000707	9.0	['9', 'return']	[2.945359099889174, 3.4823694999795407]	6.26	6.45	0.0	40hz	high_pain	47.3			sub-032	250	32	44	47.3	COM11	COM15	COM3	2024-04-23_13h43.52.043	001-EEG_SVR_Officel	2022.2.5	144.29910322783223		71.45999999999981	2_sub-pilot032_SVR_EEG_block5-6.protocol.csv	step3	696	69.449	STIMULATE	47.3	47.3	47.3	47.3	47.4	3	1785.09
1772.072	0	886036	40hz	9	4	0	4	0	0.0	0.0	0.0	0.0				p	1.6269626000430435	1873.8583903999531	1880.1299781000707	1880.1299781000707	9.0	['9', 'return']	[2.945359099889174, 3.4823694999795407]	6.26	6.45	0.0	40hz	high_pain	47.3			sub-032	250	32	44	47.3	COM11	COM15	COM3	2024-04-23_13h43.52.043	001-EEG_SVR_Officel	2022.2.5	144.29910322783223		6.259999999999991	2_sub-pilot032_SVR_EEG_block5-6.protocol.csv	step3	696	69.449	STIMULATE	47.3	47.3	47.3	47.3	47.4	3	1785.09
1779.27	0	889635	40/Hi	7	4	0	4	0	0.0	0.0	0.0	0.0				p	1.6269626000430435	1873.8583903999531	1880.1299781000707	1880.1299781000707	9.0	['9', 'return']	[2.945359099889174, 3.4823694999795407]	6.26	6.45	0.0	40hz	high_pain	47.3			sub-032	250	32	44	47.3	COM11	COM15	COM3	2024-04-23_13h43.52.043	001-EEG_SVR_Officel	2022.2.5	144.29910322783223		6.448000000000093	2_sub-pilot032_SVR_EEG_block5-6.protocol.csv	step3	696	69.449	STIMULATE	47.3	47.3	47.3	47.3	47.4	3	1785.09
1788.584	0	894292	wait	20	4	0	4	0	1.0	0.0	1.0	0.0						1896.6319514000788	1903.2092506000768	1903.2092506000768	1.0	['1', 'return']	[3.443687600083649, 4.099453000118956]	6.57	6.3	1.0	40hz	low_pain	44.0			sub-032	250	32	44	47.3	COM11	COM15	COM3	2024-04-23_13h43.52.043	001-EEG_SVR_Officel	2022.2.5	144.29910322783223		10.064000000000078	2_sub-pilot032_SVR_EEG_block5-6.protocol.csv	step5	928	92.423	STIMULATE	44.1	43.9	43.9	43.9	44.1	5	1808.064
1795.15	0	897575	40hz	9	4	0	4	0	1.0	0.0	1.0	0.0						1896.6319514000788	1903.2092506000768	1903.2092506000768	1.0	['1', 'return']	[3.443687600083649, 4.099453000118956]	6.57	6.3	1.0	40hz	low_pain	44.0			sub-032	250	32	44	47.3	COM11	COM15	COM3	2024-04-23_13h43.52.043	001-EEG_SVR_Officel	2022.2.5	144.29910322783223		6.566000000000031	2_sub-pilot032_SVR_EEG_block5-6.protocol.csv	step5	928	92.423	STIMULATE	44.1	43.9	43.9	43.9	44.1	5	1808.064
1802.204	0	901102	40/Lo	8	4	0	4	0	1.0	0.0	1.0	0.0						1896.6319514000788	1903.2092506000768	1903.2092506000768	1.0	['1', 'return']	[3.443687600083649, 4.099453000118956]	6.57	6.3	1.0	40hz	low_pain	44.0			sub-032	250	32	44	47.3	COM11	COM15	COM3	2024-04-23_13h43.52.043	001-EEG_SVR_Officel	2022.2.5	144.29910322783223		6.30399999999986	2_sub-pilot032_SVR_EEG_block5-6.protocol.csv	step5	928	92.423	STIMULATE	44.1	43.9	43.9	43.9	44.1	5	1808.064
1812.282	0	906141	wait	20	4	0	4	0	2.0	0.0	2.0	0.0						1920.3296312999448	1925.55969480006	1925.55969480006	0.5	['0', 'a', '5', 'return']	[3.6291953998152167, 4.012729699956253, 4.572771499864757, 5.2526112999767065]	5.22	6.1	2.0	40hz	low_pain	44.0			sub-032	250	32	44	47.3	COM11	COM15	COM3	2024-04-23_13h43.52.043	001-EEG_SVR_Officel	2022.2.5	144.29910322783223		10.827999999999975	2_sub-pilot032_SVR_EEG_block5-6.protocol.csv	step7	1151	114.508	STIMULATE	44.0	43.9	43.9	44.0	44.0	7	1830.149
1817.502	0	908751	40hz	9	4	0	4	0	2.0	0.0	2.0	0.0						1920.3296312999448	1925.55969480006	1925.55969480006	0.5	['0', 'a', '5', 'return']	[3.6291953998152167, 4.012729699956253, 4.572771499864757, 5.2526112999767065]	5.22	6.1	2.0	40hz	low_pain	44.0			sub-032	250	32	44	47.3	COM11	COM15	COM3	2024-04-23_13h43.52.043	001-EEG_SVR_Officel	2022.2.5	144.29910322783223		5.220000000000027	2_sub-pilot032_SVR_EEG_block5-6.protocol.csv	step7	1151	114.508	STIMULATE	44.0	43.9	43.9	44.0	44.0	7	1830.149
1824.352	0	912176	40/Lo	8	4	0	4	0	2.0	0.0	2.0	0.0						1920.3296312999448	1925.55969480006	1925.55969480006	0.5	['0', 'a', '5', 'return']	[3.6291953998152167, 4.012729699956253, 4.572771499864757, 5.2526112999767065]	5.22	6.1	2.0	40hz	low_pain	44.0			sub-032	250	32	44	47.3	COM11	COM15	COM3	2024-04-23_13h43.52.043	001-EEG_SVR_Officel	2022.2.5	144.29910322783223		6.100000000000136	2_sub-pilot032_SVR_EEG_block5-6.protocol.csv	step7	1151	114.508	STIMULATE	44.0	43.9	43.9	44.0	44.0	7	1830.149
1835.784	0	917892	wait	20	4	0	4	0	3.0	0.0	3.0	0.0						1943.832771199988	1950.318978099851	1950.318978099851	1.0	['1', 'return']	[3.4943259998690337, 4.270817100070417]	6.48	5.88	3.0	controle	low_pain	44.0			sub-032	250	32	44	47.3	COM11	COM15	COM3	2024-04-23_13h43.52.043	001-EEG_SVR_Officel	2022.2.5	144.29910322783223		12.182000000000016	2_sub-pilot032_SVR_EEG_block5-6.protocol.csv	step9	1398	139.061	STIMULATE	43.9	43.9	43.9	43.9	43.9	9	1854.702
1842.258	0	921129	CNhz	12	4	0	4	0	3.0	0.0	3.0	0.0						1943.832771199988	1950.318978099851	1950.318978099851	1.0	['1', 'return']	[3.4943259998690337, 4.270817100070417]	6.48	5.88	3.0	controle	low_pain	44.0			sub-032	250	32	44	47.3	COM11	COM15	COM3	2024-04-23_13h43.52.043	001-EEG_SVR_Officel	2022.2.5	144.29910322783223		6.473999999999933	2_sub-pilot032_SVR_EEG_block5-6.protocol.csv	step9	1398	139.061	STIMULATE	43.9	43.9	43.9	43.9	43.9	9	1854.702
1848.89	0	924445	CN/Lo	11	4	0	4	0	3.0	0.0	3.0	0.0						1943.832771199988	1950.318978099851	1950.318978099851	1.0	['1', 'return']	[3.4943259998690337, 4.270817100070417]	6.48	5.88	3.0	controle	low_pain	44.0			sub-032	250	32	44	47.3	COM11	COM15	COM3	2024-04-23_13h43.52.043	001-EEG_SVR_Officel	2022.2.5	144.29910322783223		5.882000000000062	2_sub-pilot032_SVR_EEG_block5-6.protocol.csv	step9	1398	139.061	STIMULATE	43.9	43.9	43.9	43.9	43.9	9	1854.702
1859.55	0	929775	wait	20	4	0	4	0	4.0	0.0	4.0	0.0						1967.598869599868	1975.2873455998488	1975.2873455998488	7.0	['7', 'return']	[3.661444100085646, 4.790247699944302]	7.68	5.63	0.0	20hz	high_pain	47.3			sub-032	250	32	44	47.3	COM11	COM15	COM3	2024-04-23_13h43.52.043	001-EEG_SVR_Officel	2022.2.5	144.29910322783223		11.409999999999854	2_sub-pilot032_SVR_EEG_block5-6.protocol.csv	step11	1648	163.806	STIMULATE	47.4	47.3	47.3	47.3	47.3	11	1879.4470000000001
1867.228	0	933614	20hz	6	4	0	4	0	4.0	0.0	4.0	0.0						1967.598869599868	1975.2873455998488	1975.2873455998488	7.0	['7', 'return']	[3.661444100085646, 4.790247699944302]	7.68	5.63	0.0	20hz	high_pain	47.3			sub-032	250	32	44	47.3	COM11	COM15	COM3	2024-04-23_13h43.52.043	001-EEG_SVR_Officel	2022.2.5	144.29910322783223		7.678000000000111	2_sub-pilot032_SVR_EEG_block5-6.protocol.csv	step11	1648	163.806	STIMULATE	47.4	47.3	47.3	47.3	47.3	11	1879.4470000000001
1873.608	0	936804	20/Hi	4	4	0	4	0	4.0	0.0	4.0	0.0						1967.598869599868	1975.2873455998488	1975.2873455998488	7.0	['7', 'return']	[3.661444100085646, 4.790247699944302]	7.68	5.63	0.0	20hz	high_pain	47.3			sub-032	250	32	44	47.3	COM11	COM15	COM3	2024-04-23_13h43.52.043	001-EEG_SVR_Officel	2022.2.5	144.29910322783223		5.629999999999882	2_sub-pilot032_SVR_EEG_block5-6.protocol.csv	step11	1648	163.806	STIMULATE	47.4	47.3	47.3	47.3	47.3	11	1879.4470000000001
1885.038	0	942519	wait	20	4	0	4	0	5.0	0.0	5.0	0.0						1993.087481299881	1999.956842900021	1999.956842900021	1.0	['1', 'return']	[3.463514900067821, 4.151638499926776]	6.86	5.6	1.0	20hz	low_pain	44.0			sub-032	250	32	44	47.3	COM11	COM15	COM3	2024-04-23_13h43.52.043	001-EEG_SVR_Officel	2022.2.5	144.29910322783223		12.180000000000064	2_sub-pilot032_SVR_EEG_block5-6.protocol.csv	step13	1897	188.513	STIMULATE	44.0	43.9	43.9	43.9	44.1	13	1904.154
