onset	duration	sample	trial_type	value	block.thisRepN	block.thisTrialN	block.thisN	block.thisIndex	reps.thisRepN	reps.thisTrialN	reps.thisN	reps.thisIndex	afrec_start	rec_start	rec_start_egi	key_resp.keys	key_resp.rt	wait_time_text.started	wait_time_text.stopped	therm_loca_text.started	subResponse	keyResp.keys	keyResp.rt	ITI_wait	wait_trigger	loca_thermode	Hz_condition	temp_condition	temp_valeur	text.started	text.stopped	participant	brightness	num_part	low	high	com_svr	com_thermode	com_eeg	date	expName	psychopyVersion	frameRate	Unnamed: 39	distance_from_previous	file	step	index	time	type	temp1	temp2	temp3	temp4	temp5	step_num	time_sync
20.178	0	10089	wait	20	0	0	0	0	0.0	0.0	0.0	0.0	163.07362210005522	162.87872610008344	1711635056.6560233	p	19.963325300021097	183.05735460005235	190.31920640007596	190.31920640007596	5.0	['5', 'return']	[7.044621100067161, 7.8692299000686035]	7.26	6.32	0.0	20hz	high_pain	46.7			sub-028	250	28	45.1	46.7	COM11	COM15	COM3	2024-03-28_10h08.57.905	001-EEG_SVR_Officel	2022.2.5	146.47271737383065		20.178	0_sub-pilot028_SVR_EEG_block1-2.protocol.csv	step3	983	98.159	STIMULATE	46.7	46.6	46.6	46.7	46.7	3	40.37800000000001
27.434	0	13717	20hz	6	0	0	0	0	0.0	0.0	0.0	0.0	163.07362210005522	162.87872610008344	1711635056.6560233	p	19.963325300021097	183.05735460005235	190.31920640007596	190.31920640007596	5.0	['5', 'return']	[7.044621100067161, 7.8692299000686035]	7.26	6.32	0.0	20hz	high_pain	46.7			sub-028	250	28	45.1	46.7	COM11	COM15	COM3	2024-03-28_10h08.57.905	001-EEG_SVR_Officel	2022.2.5	146.47271737383065		7.256	0_sub-pilot028_SVR_EEG_block1-2.protocol.csv	step3	983	98.159	STIMULATE	46.7	46.6	46.6	46.7	46.7	3	40.37800000000001
34.504	0	17252	20/Hi	4	0	0	0	0	0.0	0.0	0.0	0.0	163.07362210005522	162.87872610008344	1711635056.6560233	p	19.963325300021097	183.05735460005235	190.31920640007596	190.31920640007596	5.0	['5', 'return']	[7.044621100067161, 7.8692299000686035]	7.26	6.32	0.0	20hz	high_pain	46.7			sub-028	250	28	45.1	46.7	COM11	COM15	COM3	2024-03-28_10h08.57.905	001-EEG_SVR_Officel	2022.2.5	146.47271737383065		6.319999999999997	0_sub-pilot028_SVR_EEG_block1-2.protocol.csv	step3	983	98.159	STIMULATE	46.7	46.6	46.6	46.7	46.7	3	40.37800000000001
48.33	0	24165	wait	20	0	0	0	0	1.0	0.0	1.0	0.0						211.21056580008008	218.7121328000212	218.7121328000212	7.5	['7', 'a', '5', 'return']	[2.6606350999791175, 3.148983799968846, 3.3488879000069574, 4.18227900005877]	7.5	5.56	1.0	10hz	high_pain	46.7			sub-028	250	28	45.1	46.7	COM11	COM15	COM3	2024-03-28_10h08.57.905	001-EEG_SVR_Officel	2022.2.5	146.47271737383065		14.576	0_sub-pilot028_SVR_EEG_block1-2.protocol.csv	step5	1261	125.754	STIMULATE	46.8	46.6	46.6	46.7	46.7	5	67.97300000000001
55.828	0	27914	10hz	3	0	0	0	0	1.0	0.0	1.0	0.0						211.21056580008008	218.7121328000212	218.7121328000212	7.5	['7', 'a', '5', 'return']	[2.6606350999791175, 3.148983799968846, 3.3488879000069574, 4.18227900005877]	7.5	5.56	1.0	10hz	high_pain	46.7			sub-028	250	28	45.1	46.7	COM11	COM15	COM3	2024-03-28_10h08.57.905	001-EEG_SVR_Officel	2022.2.5	146.47271737383065		7.498000000000005	0_sub-pilot028_SVR_EEG_block1-2.protocol.csv	step5	1261	125.754	STIMULATE	46.8	46.6	46.6	46.7	46.7	5	67.97300000000001
62.138	0	31069	10/Hi	1	0	0	0	0	1.0	0.0	1.0	0.0						211.21056580008008	218.7121328000212	218.7121328000212	7.5	['7', 'a', '5', 'return']	[2.6606350999791175, 3.148983799968846, 3.3488879000069574, 4.18227900005877]	7.5	5.56	1.0	10hz	high_pain	46.7			sub-028	250	28	45.1	46.7	COM11	COM15	COM3	2024-03-28_10h08.57.905	001-EEG_SVR_Officel	2022.2.5	146.47271737383065		5.559999999999995	0_sub-pilot028_SVR_EEG_block1-2.protocol.csv	step5	1261	125.754	STIMULATE	46.8	46.6	46.6	46.7	46.7	5	67.97300000000001
73.036	0	36518	wait	20	0	0	0	0	2.0	0.0	2.0	0.0						235.9149535000324	241.20723729999736	241.20723729999736	8.0	['8', 'return']	[3.9181656000437215, 5.196985500049777]	5.29	6.29	2.0	40hz	high_pain	46.7			sub-028	250	28	45.1	46.7	COM11	COM15	COM3	2024-03-28_10h08.57.905	001-EEG_SVR_Officel	2022.2.5	146.47271737383065		11.648000000000003	0_sub-pilot028_SVR_EEG_block1-2.protocol.csv	step7	1496	149.019	STIMULATE	46.7	46.6	46.6	46.6	46.7	7	91.238
78.322	0	39161	40hz	9	0	0	0	0	2.0	0.0	2.0	0.0						235.9149535000324	241.20723729999736	241.20723729999736	8.0	['8', 'return']	[3.9181656000437215, 5.196985500049777]	5.29	6.29	2.0	40hz	high_pain	46.7			sub-028	250	28	45.1	46.7	COM11	COM15	COM3	2024-03-28_10h08.57.905	001-EEG_SVR_Officel	2022.2.5	146.47271737383065		5.286000000000001	0_sub-pilot028_SVR_EEG_block1-2.protocol.csv	step7	1496	149.019	STIMULATE	46.7	46.6	46.6	46.6	46.7	7	91.238
85.362	0	42681	40/Hi	7	0	0	0	0	2.0	0.0	2.0	0.0						235.9149535000324	241.20723729999736	241.20723729999736	8.0	['8', 'return']	[3.9181656000437215, 5.196985500049777]	5.29	6.29	2.0	40hz	high_pain	46.7			sub-028	250	28	45.1	46.7	COM11	COM15	COM3	2024-03-28_10h08.57.905	001-EEG_SVR_Officel	2022.2.5	146.47271737383065		6.289999999999992	0_sub-pilot028_SVR_EEG_block1-2.protocol.csv	step7	1496	149.019	STIMULATE	46.7	46.6	46.6	46.6	46.7	7	91.238
96.544	0	48272	wait	20	0	0	0	0	3.0	0.0	3.0	0.0						259.4247552000452	265.5504424000392	265.5504424000392	1.0	['1', 'return']	[3.1332875000080094, 3.7513846000656486]	6.12	6.4	3.0	10hz	low_pain	45.1			sub-028	250	28	45.1	46.7	COM11	COM15	COM3	2024-03-28_10h08.57.905	001-EEG_SVR_Officel	2022.2.5	146.47271737383065		11.932000000000002	0_sub-pilot028_SVR_EEG_block1-2.protocol.csv	step9	1742	173.432	STIMULATE	45.1	45.0	45.0	45.0	45.0	9	115.65099999999998
102.666	0	51333	10hz	3	0	0	0	0	3.0	0.0	3.0	0.0						259.4247552000452	265.5504424000392	265.5504424000392	1.0	['1', 'return']	[3.1332875000080094, 3.7513846000656486]	6.12	6.4	3.0	10hz	low_pain	45.1			sub-028	250	28	45.1	46.7	COM11	COM15	COM3	2024-03-28_10h08.57.905	001-EEG_SVR_Officel	2022.2.5	146.47271737383065		6.122	0_sub-pilot028_SVR_EEG_block1-2.protocol.csv	step9	1742	173.432	STIMULATE	45.1	45.0	45.0	45.0	45.0	9	115.65099999999998
109.818	0	54909	10/Lo	2	0	0	0	0	3.0	0.0	3.0	0.0						259.4247552000452	265.5504424000392	265.5504424000392	1.0	['1', 'return']	[3.1332875000080094, 3.7513846000656486]	6.12	6.4	3.0	10hz	low_pain	45.1			sub-028	250	28	45.1	46.7	COM11	COM15	COM3	2024-03-28_10h08.57.905	001-EEG_SVR_Officel	2022.2.5	146.47271737383065		6.402000000000001	0_sub-pilot028_SVR_EEG_block1-2.protocol.csv	step9	1742	173.432	STIMULATE	45.1	45.0	45.0	45.0	45.0	9	115.65099999999998
119.444	0	59722	wait	20	0	0	0	0	4.0	0.0	4.0	0.0						282.32328330003656	289.8045950999949	289.8045950999949	4.5	['4', 'a', '5', 'return']	[2.9929234000155702, 3.3616757000563666, 3.5287776000332087, 4.297478100052103]	7.48	5.28	0.0	10hz	low_pain	45.1			sub-028	250	28	45.1	46.7	COM11	COM15	COM3	2024-03-28_10h08.57.905	001-EEG_SVR_Officel	2022.2.5	146.47271737383065		10.376000000000005	0_sub-pilot028_SVR_EEG_block1-2.protocol.csv	step11	1975	196.521	STIMULATE	45.1	45.0	45.0	45.0	45.1	11	138.73999999999998
126.918	0	63459	10hz	3	0	0	0	0	4.0	0.0	4.0	0.0						282.32328330003656	289.8045950999949	289.8045950999949	4.5	['4', 'a', '5', 'return']	[2.9929234000155702, 3.3616757000563666, 3.5287776000332087, 4.297478100052103]	7.48	5.28	0.0	10hz	low_pain	45.1			sub-028	250	28	45.1	46.7	COM11	COM15	COM3	2024-03-28_10h08.57.905	001-EEG_SVR_Officel	2022.2.5	146.47271737383065		7.474000000000004	0_sub-pilot028_SVR_EEG_block1-2.protocol.csv	step11	1975	196.521	STIMULATE	45.1	45.0	45.0	45.0	45.1	11	138.73999999999998
132.952	0	66476	10/Lo	2	0	0	0	0	4.0	0.0	4.0	0.0						282.32328330003656	289.8045950999949	289.8045950999949	4.5	['4', 'a', '5', 'return']	[2.9929234000155702, 3.3616757000563666, 3.5287776000332087, 4.297478100052103]	7.48	5.28	0.0	10hz	low_pain	45.1			sub-028	250	28	45.1	46.7	COM11	COM15	COM3	2024-03-28_10h08.57.905	001-EEG_SVR_Officel	2022.2.5	146.47271737383065		5.283999999999992	0_sub-pilot028_SVR_EEG_block1-2.protocol.csv	step11	1975	196.521	STIMULATE	45.1	45.0	45.0	45.0	45.1	11	138.73999999999998
144.238	0	72119	wait	20	0	0	0	0	5.0	0.0	5.0	0.0						307.1180154000176	313.5246246000752	313.5246246000752	7.0	['7', 'return']	[2.818464799900539, 3.4269118999363855]	6.4	5.49	1.0	controle	high_pain	46.7			sub-028	250	28	45.1	46.7	COM11	COM15	COM3	2024-03-28_10h08.57.905	001-EEG_SVR_Officel	2022.2.5	146.47271737383065		12.036000000000001	0_sub-pilot028_SVR_EEG_block1-2.protocol.csv	step13	2216	220.467	STIMULATE	46.7	46.6	46.7	46.7	46.7	13	162.686
150.636	0	75318	CNhz	12	0	0	0	0	5.0	0.0	5.0	0.0						307.1180154000176	313.5246246000752	313.5246246000752	7.0	['7', 'return']	[2.818464799900539, 3.4269118999363855]	6.4	5.49	1.0	controle	high_pain	46.7			sub-028	250	28	45.1	46.7	COM11	COM15	COM3	2024-03-28_10h08.57.905	001-EEG_SVR_Officel	2022.2.5	146.47271737383065		6.397999999999996	0_sub-pilot028_SVR_EEG_block1-2.protocol.csv	step13	2216	220.467	STIMULATE	46.7	46.6	46.7	46.7	46.7	13	162.686
156.878	0	78439	CN/Hi	10	0	0	0	0	5.0	0.0	5.0	0.0						307.1180154000176	313.5246246000752	313.5246246000752	7.0	['7', 'return']	[2.818464799900539, 3.4269118999363855]	6.4	5.49	1.0	controle	high_pain	46.7			sub-028	250	28	45.1	46.7	COM11	COM15	COM3	2024-03-28_10h08.57.905	001-EEG_SVR_Officel	2022.2.5	146.47271737383065		5.49199999999999	0_sub-pilot028_SVR_EEG_block1-2.protocol.csv	step13	2216	220.467	STIMULATE	46.7	46.6	46.7	46.7	46.7	13	162.686
167.086	0	83543	wait	20	0	0	0	0	6.0	0.0	6.0	0.0						329.96785990009084	336.857744100038	336.857744100038	4.0	['4', 'return']	[2.513327500084415, 3.169940200052224]	6.88	5.44	2.0	controle	low_pain	45.1			sub-028	250	28	45.1	46.7	COM11	COM15	COM3	2024-03-28_10h08.57.905	001-EEG_SVR_Officel	2022.2.5	146.47271737383065		10.958000000000027	0_sub-pilot028_SVR_EEG_block1-2.protocol.csv	step15	2451	243.714	STIMULATE	45.1	45.0	45.0	45.1	45.0	15	185.933
173.966	0	86983	CNhz	12	0	0	0	0	6.0	0.0	6.0	0.0						329.96785990009084	336.857744100038	336.857744100038	4.0	['4', 'return']	[2.513327500084415, 3.169940200052224]	6.88	5.44	2.0	controle	low_pain	45.1			sub-028	250	28	45.1	46.7	COM11	COM15	COM3	2024-03-28_10h08.57.905	001-EEG_SVR_Officel	2022.2.5	146.47271737383065		6.8799999999999955	0_sub-pilot028_SVR_EEG_block1-2.protocol.csv	step15	2451	243.714	STIMULATE	45.1	45.0	45.0	45.1	45.0	15	185.933
180.158	0	90079	CN/Lo	11	0	0	0	0	6.0	0.0	6.0	0.0						329.96785990009084	336.857744100038	336.857744100038	4.0	['4', 'return']	[2.513327500084415, 3.169940200052224]	6.88	5.44	2.0	controle	low_pain	45.1			sub-028	250	28	45.1	46.7	COM11	COM15	COM3	2024-03-28_10h08.57.905	001-EEG_SVR_Officel	2022.2.5	146.47271737383065		5.441999999999979	0_sub-pilot028_SVR_EEG_block1-2.protocol.csv	step15	2451	243.714	STIMULATE	45.1	45.0	45.0	45.1	45.0	15	185.933
190.16	0	95080	wait	20	0	0	0	0	7.0	0.0	7.0	0.0						353.04022050008643	358.62650980008766	358.62650980008766	8.5	['8', 'a', '5', 'return']	[2.508376599987969, 2.947132400004193, 3.2351536999922246, 3.883599800057709]	5.58	5.77	3.0	10hz	high_pain	46.7			sub-028	250	28	45.1	46.7	COM11	COM15	COM3	2024-03-28_10h08.57.905	001-EEG_SVR_Officel	2022.2.5	146.47271737383065		10.75200000000001	0_sub-pilot028_SVR_EEG_block1-2.protocol.csv	step17	2674	265.87	STIMULATE	46.7	46.6	46.7	46.7	46.7	17	208.089
195.74	0	97870	10hz	3	0	0	0	0	7.0	0.0	7.0	0.0						353.04022050008643	358.62650980008766	358.62650980008766	8.5	['8', 'a', '5', 'return']	[2.508376599987969, 2.947132400004193, 3.2351536999922246, 3.883599800057709]	5.58	5.77	3.0	10hz	high_pain	46.7			sub-028	250	28	45.1	46.7	COM11	COM15	COM3	2024-03-28_10h08.57.905	001-EEG_SVR_Officel	2022.2.5	146.47271737383065		5.5800000000000125	0_sub-pilot028_SVR_EEG_block1-2.protocol.csv	step17	2674	265.87	STIMULATE	46.7	46.6	46.7	46.7	46.7	17	208.089
202.258	0	101129	10/Hi	1	0	0	0	0	7.0	0.0	7.0	0.0						353.04022050008643	358.62650980008766	358.62650980008766	8.5	['8', 'a', '5', 'return']	[2.508376599987969, 2.947132400004193, 3.2351536999922246, 3.883599800057709]	5.58	5.77	3.0	10hz	high_pain	46.7			sub-028	250	28	45.1	46.7	COM11	COM15	COM3	2024-03-28_10h08.57.905	001-EEG_SVR_Officel	2022.2.5	146.47271737383065		5.768000000000001	0_sub-pilot028_SVR_EEG_block1-2.protocol.csv	step17	2674	265.87	STIMULATE	46.7	46.6	46.7	46.7	46.7	17	208.089
212.648	0	106324	wait	20	0	0	0	0	8.0	0.0	8.0	0.0						375.5290358000202	382.47534480004106	382.47534480004106	8.0	['8', 'return']	[2.5054243999766186, 3.001743400003761]	6.94	5.95	0.0	10hz	high_pain	46.7			sub-028	250	28	45.1	46.7	COM11	COM15	COM3	2024-03-28_10h08.57.905	001-EEG_SVR_Officel	2022.2.5	146.47271737383065		11.139999999999986	0_sub-pilot028_SVR_EEG_block1-2.protocol.csv	step19	2917	289.927	STIMULATE	46.7	46.7	46.7	46.7	46.7	19	232.14600000000002
219.59	0	109795	10hz	3	0	0	0	0	8.0	0.0	8.0	0.0						375.5290358000202	382.47534480004106	382.47534480004106	8.0	['8', 'return']	[2.5054243999766186, 3.001743400003761]	6.94	5.95	0.0	10hz	high_pain	46.7			sub-028	250	28	45.1	46.7	COM11	COM15	COM3	2024-03-28_10h08.57.905	001-EEG_SVR_Officel	2022.2.5	146.47271737383065		6.942000000000007	0_sub-pilot028_SVR_EEG_block1-2.protocol.csv	step19	2917	289.927	STIMULATE	46.7	46.7	46.7	46.7	46.7	19	232.14600000000002
226.29	0	113145	10/Hi	1	0	0	0	0	8.0	0.0	8.0	0.0						375.5290358000202	382.47534480004106	382.47534480004106	8.0	['8', 'return']	[2.5054243999766186, 3.001743400003761]	6.94	5.95	0.0	10hz	high_pain	46.7			sub-028	250	28	45.1	46.7	COM11	COM15	COM3	2024-03-28_10h08.57.905	001-EEG_SVR_Officel	2022.2.5	146.47271737383065		5.949999999999989	0_sub-pilot028_SVR_EEG_block1-2.protocol.csv	step19	2917	289.927	STIMULATE	46.7	46.7	46.7	46.7	46.7	19	232.14600000000002
235.616	0	117808	wait	20	0	0	0	0	9.0	0.0	9.0	0.0						398.4971355000744	404.6090808000881	404.6090808000881	3.0	['3', 'return']	[2.666904699988663, 3.3391274999594316]	6.11	6.42	1.0	controle	low_pain	45.1			sub-028	250	28	45.1	46.7	COM11	COM15	COM3	2024-03-28_10h08.57.905	001-EEG_SVR_Officel	2022.2.5	146.47271737383065		10.076000000000022	0_sub-pilot028_SVR_EEG_block1-2.protocol.csv	step21	3145	312.516	STIMULATE	45.0	45.0	45.0	45.0	45.1	21	254.735
241.724	0	120862	CNhz	12	0	0	0	0	9.0	0.0	9.0	0.0						398.4971355000744	404.6090808000881	404.6090808000881	3.0	['3', 'return']	[2.666904699988663, 3.3391274999594316]	6.11	6.42	1.0	controle	low_pain	45.1			sub-028	250	28	45.1	46.7	COM11	COM15	COM3	2024-03-28_10h08.57.905	001-EEG_SVR_Officel	2022.2.5	146.47271737383065		6.107999999999976	0_sub-pilot028_SVR_EEG_block1-2.protocol.csv	step21	3145	312.516	STIMULATE	45.0	45.0	45.0	45.0	45.1	21	254.735
248.896	0	124448	CN/Lo	11	0	0	0	0	9.0	0.0	9.0	0.0						398.4971355000744	404.6090808000881	404.6090808000881	3.0	['3', 'return']	[2.666904699988663, 3.3391274999594316]	6.11	6.42	1.0	controle	low_pain	45.1			sub-028	250	28	45.1	46.7	COM11	COM15	COM3	2024-03-28_10h08.57.905	001-EEG_SVR_Officel	2022.2.5	146.47271737383065		6.421999999999997	0_sub-pilot028_SVR_EEG_block1-2.protocol.csv	step21	3145	312.516	STIMULATE	45.0	45.0	45.0	45.0	45.1	21	254.735
258.084	0	129042	wait	20	0	0	0	0	10.0	0.0	10.0	0.0						420.9649077000795	427.6252386000706	427.6252386000706	2.0	['2', 'return']	[3.195395600050688, 3.7882402000250295]	6.66	5.94	2.0	40hz	low_pain	45.1			sub-028	250	28	45.1	46.7	COM11	COM15	COM3	2024-03-28_10h08.57.905	001-EEG_SVR_Officel	2022.2.5	146.47271737383065		9.938000000000017	0_sub-pilot028_SVR_EEG_block1-2.protocol.csv	step23	3372	335.018	STIMULATE	45.1	45.0	45.0	45.0	45.1	23	277.23699999999997
264.74	0	132370	40hz	9	0	0	0	0	10.0	0.0	10.0	0.0						420.9649077000795	427.6252386000706	427.6252386000706	2.0	['2', 'return']	[3.195395600050688, 3.7882402000250295]	6.66	5.94	2.0	40hz	low_pain	45.1			sub-028	250	28	45.1	46.7	COM11	COM15	COM3	2024-03-28_10h08.57.905	001-EEG_SVR_Officel	2022.2.5	146.47271737383065		6.656000000000006	0_sub-pilot028_SVR_EEG_block1-2.protocol.csv	step23	3372	335.018	STIMULATE	45.1	45.0	45.0	45.0	45.1	23	277.23699999999997
271.432	0	135716	40/Lo	8	0	0	0	0	10.0	0.0	10.0	0.0						420.9649077000795	427.6252386000706	427.6252386000706	2.0	['2', 'return']	[3.195395600050688, 3.7882402000250295]	6.66	5.94	2.0	40hz	low_pain	45.1			sub-028	250	28	45.1	46.7	COM11	COM15	COM3	2024-03-28_10h08.57.905	001-EEG_SVR_Officel	2022.2.5	146.47271737383065		5.942000000000007	0_sub-pilot028_SVR_EEG_block1-2.protocol.csv	step23	3372	335.018	STIMULATE	45.1	45.0	45.0	45.0	45.1	23	277.23699999999997
281.552	0	140776	wait	20	0	0	0	0	11.0	0.0	11.0	0.0						444.4331239000894	452.21879980003	452.21879980003	7.0	['7', 'return']	[2.1384074999950826, 2.705224800040014]	7.78	5.81	3.0	20hz	high_pain	46.7			sub-028	250	28	45.1	46.7	COM11	COM15	COM3	2024-03-28_10h08.57.905	001-EEG_SVR_Officel	2022.2.5	146.47271737383065		10.870000000000005	0_sub-pilot028_SVR_EEG_block1-2.protocol.csv	step25	3619	359.549	STIMULATE	46.7	46.7	46.7	46.7	46.7	25	301.76800000000003
289.332	0	144666	20hz	6	0	0	0	0	11.0	0.0	11.0	0.0						444.4331239000894	452.21879980003	452.21879980003	7.0	['7', 'return']	[2.1384074999950826, 2.705224800040014]	7.78	5.81	3.0	20hz	high_pain	46.7			sub-028	250	28	45.1	46.7	COM11	COM15	COM3	2024-03-28_10h08.57.905	001-EEG_SVR_Officel	2022.2.5	146.47271737383065		7.779999999999973	0_sub-pilot028_SVR_EEG_block1-2.protocol.csv	step25	3619	359.549	STIMULATE	46.7	46.7	46.7	46.7	46.7	25	301.76800000000003
295.894	0	147947	20/Hi	4	0	0	0	0	11.0	0.0	11.0	0.0						444.4331239000894	452.21879980003	452.21879980003	7.0	['7', 'return']	[2.1384074999950826, 2.705224800040014]	7.78	5.81	3.0	20hz	high_pain	46.7			sub-028	250	28	45.1	46.7	COM11	COM15	COM3	2024-03-28_10h08.57.905	001-EEG_SVR_Officel	2022.2.5	146.47271737383065		5.812000000000012	0_sub-pilot028_SVR_EEG_block1-2.protocol.csv	step25	3619	359.549	STIMULATE	46.7	46.7	46.7	46.7	46.7	25	301.76800000000003
305.062	0	152531	wait	20	0	0	0	0	12.0	0.0	12.0	0.0						467.9430212000152	474.0273730000481	474.0273730000481	8.0	['8', 'return']	[2.081176600069739, 2.5932479000184685]	6.08	5.72	0.0	controle	high_pain	46.7			sub-028	250	28	45.1	46.7	COM11	COM15	COM3	2024-03-28_10h08.57.905	001-EEG_SVR_Officel	2022.2.5	146.47271737383065		9.918000000000006	0_sub-pilot028_SVR_EEG_block1-2.protocol.csv	step27	3838	381.252	STIMULATE	46.7	46.6	46.7	46.7	46.8	27	323.471
311.142	0	155571	CNhz	12	0	0	0	0	12.0	0.0	12.0	0.0						467.9430212000152	474.0273730000481	474.0273730000481	8.0	['8', 'return']	[2.081176600069739, 2.5932479000184685]	6.08	5.72	0.0	controle	high_pain	46.7			sub-028	250	28	45.1	46.7	COM11	COM15	COM3	2024-03-28_10h08.57.905	001-EEG_SVR_Officel	2022.2.5	146.47271737383065		6.079999999999984	0_sub-pilot028_SVR_EEG_block1-2.protocol.csv	step27	3838	381.252	STIMULATE	46.7	46.6	46.7	46.7	46.8	27	323.471
317.612	0	158806	CN/Hi	10	0	0	0	0	12.0	0.0	12.0	0.0						467.9430212000152	474.0273730000481	474.0273730000481	8.0	['8', 'return']	[2.081176600069739, 2.5932479000184685]	6.08	5.72	0.0	controle	high_pain	46.7			sub-028	250	28	45.1	46.7	COM11	COM15	COM3	2024-03-28_10h08.57.905	001-EEG_SVR_Officel	2022.2.5	146.47271737383065		5.720000000000027	0_sub-pilot028_SVR_EEG_block1-2.protocol.csv	step27	3838	381.252	STIMULATE	46.7	46.6	46.7	46.7	46.8	27	323.471
326.758	0	163379	wait	20	0	0	0	0	13.0	0.0	13.0	0.0						489.63996020006016	496.3701272000326	496.3701272000326	8.0	['8', 'return']	[2.72362410009373, 3.3385302000679076]	6.73	6.38	1.0	40hz	high_pain	46.7			sub-028	250	28	45.1	46.7	COM11	COM15	COM3	2024-03-28_10h08.57.905	001-EEG_SVR_Officel	2022.2.5	146.47271737383065		9.895999999999958	0_sub-pilot028_SVR_EEG_block1-2.protocol.csv	step29	4070	404.24	STIMULATE	46.7	46.7	46.7	46.7	46.7	29	346.45900000000006
333.484	0	166742	40hz	9	0	0	0	0	13.0	0.0	13.0	0.0						489.63996020006016	496.3701272000326	496.3701272000326	8.0	['8', 'return']	[2.72362410009373, 3.3385302000679076]	6.73	6.38	1.0	40hz	high_pain	46.7			sub-028	250	28	45.1	46.7	COM11	COM15	COM3	2024-03-28_10h08.57.905	001-EEG_SVR_Officel	2022.2.5	146.47271737383065		6.725999999999999	0_sub-pilot028_SVR_EEG_block1-2.protocol.csv	step29	4070	404.24	STIMULATE	46.7	46.7	46.7	46.7	46.7	29	346.45900000000006
340.614	0	170307	40/Hi	7	0	0	0	0	13.0	0.0	13.0	0.0						489.63996020006016	496.3701272000326	496.3701272000326	8.0	['8', 'return']	[2.72362410009373, 3.3385302000679076]	6.73	6.38	1.0	40hz	high_pain	46.7			sub-028	250	28	45.1	46.7	COM11	COM15	COM3	2024-03-28_10h08.57.905	001-EEG_SVR_Officel	2022.2.5	146.47271737383065		6.3799999999999955	0_sub-pilot028_SVR_EEG_block1-2.protocol.csv	step29	4070	404.24	STIMULATE	46.7	46.7	46.7	46.7	46.7	29	346.45900000000006
349.846	0	174923	wait	20	0	0	0	0	14.0	0.0	14.0	0.0						512.7261863000458	519.4359689999837	519.4359689999837	6.5	['6', 'a', '5', 'return']	[2.9286495000123978, 3.112305400078185, 3.304734700010158, 4.136475500068627]	6.71	5.79	2.0	20hz	low_pain	45.1			sub-028	250	28	45.1	46.7	COM11	COM15	COM3	2024-03-28_10h08.57.905	001-EEG_SVR_Officel	2022.2.5	146.47271737383065		9.982000000000028	0_sub-pilot028_SVR_EEG_block1-2.protocol.csv	step31	4297	426.733	STIMULATE	45.0	45.0	45.0	45.0	45.1	31	368.952
356.548	0	178274	20hz	6	0	0	0	0	14.0	0.0	14.0	0.0						512.7261863000458	519.4359689999837	519.4359689999837	6.5	['6', 'a', '5', 'return']	[2.9286495000123978, 3.112305400078185, 3.304734700010158, 4.136475500068627]	6.71	5.79	2.0	20hz	low_pain	45.1			sub-028	250	28	45.1	46.7	COM11	COM15	COM3	2024-03-28_10h08.57.905	001-EEG_SVR_Officel	2022.2.5	146.47271737383065		6.701999999999998	0_sub-pilot028_SVR_EEG_block1-2.protocol.csv	step31	4297	426.733	STIMULATE	45.0	45.0	45.0	45.0	45.1	31	368.952
363.09	0	181545	20/Lo	5	0	0	0	0	14.0	0.0	14.0	0.0						512.7261863000458	519.4359689999837	519.4359689999837	6.5	['6', 'a', '5', 'return']	[2.9286495000123978, 3.112305400078185, 3.304734700010158, 4.136475500068627]	6.71	5.79	2.0	20hz	low_pain	45.1			sub-028	250	28	45.1	46.7	COM11	COM15	COM3	2024-03-28_10h08.57.905	001-EEG_SVR_Officel	2022.2.5	146.47271737383065		5.791999999999973	0_sub-pilot028_SVR_EEG_block1-2.protocol.csv	step31	4297	426.733	STIMULATE	45.0	45.0	45.0	45.0	45.1	31	368.952
373.708	0	186854	wait	20	0	0	0	0	15.0	0.0	15.0	0.0						536.5900871000485	543.3546333999839	543.3546333999839	7.5	['7', 'a', '5', 'return']	[2.7056643000105396, 3.0333429999882355, 3.2418053000001237, 3.9451637999154627]	6.76	5.24	3.0	controle	high_pain	46.7			sub-028	250	28	45.1	46.7	COM11	COM15	COM3	2024-03-28_10h08.57.905	001-EEG_SVR_Officel	2022.2.5	146.47271737383065		11.368000000000052	0_sub-pilot028_SVR_EEG_block1-2.protocol.csv	step33	4532	450.096	STIMULATE	46.7	46.6	46.7	46.7	46.7	33	392.31500000000005
380.468	0	190234	CNhz	12	0	0	0	0	15.0	0.0	15.0	0.0						536.5900871000485	543.3546333999839	543.3546333999839	7.5	['7', 'a', '5', 'return']	[2.7056643000105396, 3.0333429999882355, 3.2418053000001237, 3.9451637999154627]	6.76	5.24	3.0	controle	high_pain	46.7			sub-028	250	28	45.1	46.7	COM11	COM15	COM3	2024-03-28_10h08.57.905	001-EEG_SVR_Officel	2022.2.5	146.47271737383065		6.759999999999991	0_sub-pilot028_SVR_EEG_block1-2.protocol.csv	step33	4532	450.096	STIMULATE	46.7	46.6	46.7	46.7	46.7	33	392.31500000000005
386.46	0	193230	CN/Hi	10	0	0	0	0	15.0	0.0	15.0	0.0						536.5900871000485	543.3546333999839	543.3546333999839	7.5	['7', 'a', '5', 'return']	[2.7056643000105396, 3.0333429999882355, 3.2418053000001237, 3.9451637999154627]	6.76	5.24	3.0	controle	high_pain	46.7			sub-028	250	28	45.1	46.7	COM11	COM15	COM3	2024-03-28_10h08.57.905	001-EEG_SVR_Officel	2022.2.5	146.47271737383065		5.241999999999962	0_sub-pilot028_SVR_EEG_block1-2.protocol.csv	step33	4532	450.096	STIMULATE	46.7	46.6	46.7	46.7	46.7	33	392.31500000000005
458.246	0	229123	wait	20	1	0	1	0	0.0	0.0	0.0	0.0				p	0.6635800000512972	621.1287325000158	628.3582612000173	628.3582612000173	2.5	['2', 'a', '5', 'return']	[2.0620374999707565, 2.596882599988021, 2.9007480000145733, 3.716977300005965]	7.22	5.84	0.0	40hz	low_pain	45.1			sub-028	250	28	45.1	46.7	COM11	COM15	COM3	2024-03-28_10h08.57.905	001-EEG_SVR_Officel	2022.2.5	146.47271737383065		72.536	0_sub-pilot028_SVR_EEG_block1-2.protocol.csv	step35	5390	535.7	STIMULATE	45.0	45.0	45.0	45.0	45.1	35	477.8960000000001
465.464	0	232732	40hz	9	1	0	1	0	0.0	0.0	0.0	0.0				p	0.6635800000512972	621.1287325000158	628.3582612000173	628.3582612000173	2.5	['2', 'a', '5', 'return']	[2.0620374999707565, 2.596882599988021, 2.9007480000145733, 3.716977300005965]	7.22	5.84	0.0	40hz	low_pain	45.1			sub-028	250	28	45.1	46.7	COM11	COM15	COM3	2024-03-28_10h08.57.905	001-EEG_SVR_Officel	2022.2.5	146.47271737383065		7.218000000000018	0_sub-pilot028_SVR_EEG_block1-2.protocol.csv	step35	5390	535.7	STIMULATE	45.0	45.0	45.0	45.0	45.1	35	477.8960000000001
472.054	0	236027	40/Lo	8	1	0	1	0	0.0	0.0	0.0	0.0				p	0.6635800000512972	621.1287325000158	628.3582612000173	628.3582612000173	2.5	['2', 'a', '5', 'return']	[2.0620374999707565, 2.596882599988021, 2.9007480000145733, 3.716977300005965]	7.22	5.84	0.0	40hz	low_pain	45.1			sub-028	250	28	45.1	46.7	COM11	COM15	COM3	2024-03-28_10h08.57.905	001-EEG_SVR_Officel	2022.2.5	146.47271737383065		5.839999999999975	0_sub-pilot028_SVR_EEG_block1-2.protocol.csv	step35	5390	535.7	STIMULATE	45.0	45.0	45.0	45.0	45.1	35	477.8960000000001
482.206	0	241103	wait	20	1	0	1	0	1.0	0.0	1.0	0.0						645.0893635000102	652.9094432999846	652.9094432999846	8.5	['8', 'a', '5', 'return']	[2.6543636000715196, 3.030604299972765, 3.3987552999751642, 4.174625299987383]	7.82	5.09	1.0	20hz	high_pain	46.7			sub-028	250	28	45.1	46.7	COM11	COM15	COM3	2024-03-28_10h08.57.905	001-EEG_SVR_Officel	2022.2.5	146.47271737383065		10.902000000000044	0_sub-pilot028_SVR_EEG_block1-2.protocol.csv	step37	5631	559.513	STIMULATE	46.7	46.6	46.7	46.7	46.7	37	501.70900000000006
490.022	0	245011	20hz	6	1	0	1	0	1.0	0.0	1.0	0.0						645.0893635000102	652.9094432999846	652.9094432999846	8.5	['8', 'a', '5', 'return']	[2.6543636000715196, 3.030604299972765, 3.3987552999751642, 4.174625299987383]	7.82	5.09	1.0	20hz	high_pain	46.7			sub-028	250	28	45.1	46.7	COM11	COM15	COM3	2024-03-28_10h08.57.905	001-EEG_SVR_Officel	2022.2.5	146.47271737383065		7.815999999999974	0_sub-pilot028_SVR_EEG_block1-2.protocol.csv	step37	5631	559.513	STIMULATE	46.7	46.6	46.7	46.7	46.7	37	501.70900000000006
495.862	0	247931	20/Hi	4	1	0	1	0	1.0	0.0	1.0	0.0						645.0893635000102	652.9094432999846	652.9094432999846	8.5	['8', 'a', '5', 'return']	[2.6543636000715196, 3.030604299972765, 3.3987552999751642, 4.174625299987383]	7.82	5.09	1.0	20hz	high_pain	46.7			sub-028	250	28	45.1	46.7	COM11	COM15	COM3	2024-03-28_10h08.57.905	001-EEG_SVR_Officel	2022.2.5	146.47271737383065		5.090000000000032	0_sub-pilot028_SVR_EEG_block1-2.protocol.csv	step37	5631	559.513	STIMULATE	46.7	46.6	46.7	46.7	46.7	37	501.70900000000006
507.224	0	253612	wait	20	1	0	1	0	2.0	0.0	2.0	0.0						670.1062757000327	677.3084024999989	677.3084024999989	7.0	['7', 'return']	[4.2086405999725685, 4.919428599998355]	7.2	5.91	2.0	10hz	low_pain	45.1			sub-028	250	28	45.1	46.7	COM11	COM15	COM3	2024-03-28_10h08.57.905	001-EEG_SVR_Officel	2022.2.5	146.47271737383065		12.111999999999966	0_sub-pilot028_SVR_EEG_block1-2.protocol.csv	step39	5885	584.795	STIMULATE	45.2	45.0	45.0	45.0	45.0	39	526.991
514.422	0	257211	10hz	3	1	0	1	0	2.0	0.0	2.0	0.0						670.1062757000327	677.3084024999989	677.3084024999989	7.0	['7', 'return']	[4.2086405999725685, 4.919428599998355]	7.2	5.91	2.0	10hz	low_pain	45.1			sub-028	250	28	45.1	46.7	COM11	COM15	COM3	2024-03-28_10h08.57.905	001-EEG_SVR_Officel	2022.2.5	146.47271737383065		7.198000000000036	0_sub-pilot028_SVR_EEG_block1-2.protocol.csv	step39	5885	584.795	STIMULATE	45.2	45.0	45.0	45.0	45.0	39	526.991
521.08	0	260540	10/Lo	2	1	0	1	0	2.0	0.0	2.0	0.0						670.1062757000327	677.3084024999989	677.3084024999989	7.0	['7', 'return']	[4.2086405999725685, 4.919428599998355]	7.2	5.91	2.0	10hz	low_pain	45.1			sub-028	250	28	45.1	46.7	COM11	COM15	COM3	2024-03-28_10h08.57.905	001-EEG_SVR_Officel	2022.2.5	146.47271737383065		5.9080000000000155	0_sub-pilot028_SVR_EEG_block1-2.protocol.csv	step39	5885	584.795	STIMULATE	45.2	45.0	45.0	45.0	45.0	39	526.991
532.366	0	266183	wait	20	1	0	1	0	3.0	0.0	3.0	0.0						695.2481056000106	701.0485677000834	701.0485677000834	8.0	['8', 'return']	[3.0536140999756753, 3.5564600999932736]	5.8	5.85	3.0	40hz	high_pain	46.7			sub-028	250	28	45.1	46.7	COM11	COM15	COM3	2024-03-28_10h08.57.905	001-EEG_SVR_Officel	2022.2.5	146.47271737383065		12.035999999999945	0_sub-pilot028_SVR_EEG_block1-2.protocol.csv	step41	6124	608.48	STIMULATE	46.8	46.6	46.7	46.7	46.7	41	550.676
538.162	0	269081	40hz	9	1	0	1	0	3.0	0.0	3.0	0.0						695.2481056000106	701.0485677000834	701.0485677000834	8.0	['8', 'return']	[3.0536140999756753, 3.5564600999932736]	5.8	5.85	3.0	40hz	high_pain	46.7			sub-028	250	28	45.1	46.7	COM11	COM15	COM3	2024-03-28_10h08.57.905	001-EEG_SVR_Officel	2022.2.5	146.47271737383065		5.796000000000049	0_sub-pilot028_SVR_EEG_block1-2.protocol.csv	step41	6124	608.48	STIMULATE	46.8	46.6	46.7	46.7	46.7	41	550.676
544.762	0	272381	40/Hi	7	1	0	1	0	3.0	0.0	3.0	0.0						695.2481056000106	701.0485677000834	701.0485677000834	8.0	['8', 'return']	[3.0536140999756753, 3.5564600999932736]	5.8	5.85	3.0	40hz	high_pain	46.7			sub-028	250	28	45.1	46.7	COM11	COM15	COM3	2024-03-28_10h08.57.905	001-EEG_SVR_Officel	2022.2.5	146.47271737383065		5.849999999999909	0_sub-pilot028_SVR_EEG_block1-2.protocol.csv	step41	6124	608.48	STIMULATE	46.8	46.6	46.7	46.7	46.7	41	550.676
554.742	0	277371	wait	20	1	0	1	0	4.0	0.0	4.0	0.0						717.6258278000169	725.06430800003	725.06430800003	2.0	['2', 'return']	[2.507163899950683, 3.123610300011933]	7.43	5.07	0.0	controle	low_pain	45.1			sub-028	250	28	45.1	46.7	COM11	COM15	COM3	2024-03-28_10h08.57.905	001-EEG_SVR_Officel	2022.2.5	146.47271737383065		10.730000000000018	0_sub-pilot028_SVR_EEG_block1-2.protocol.csv	step43	6359	631.706	STIMULATE	45.1	45.0	45.0	45.0	45.1	43	573.902
562.17	0	281085	CNhz	12	1	0	1	0	4.0	0.0	4.0	0.0						717.6258278000169	725.06430800003	725.06430800003	2.0	['2', 'return']	[2.507163899950683, 3.123610300011933]	7.43	5.07	0.0	controle	low_pain	45.1			sub-028	250	28	45.1	46.7	COM11	COM15	COM3	2024-03-28_10h08.57.905	001-EEG_SVR_Officel	2022.2.5	146.47271737383065		7.427999999999997	0_sub-pilot028_SVR_EEG_block1-2.protocol.csv	step43	6359	631.706	STIMULATE	45.1	45.0	45.0	45.0	45.1	43	573.902
567.988	0	283994	CN/Lo	11	1	0	1	0	4.0	0.0	4.0	0.0						717.6258278000169	725.06430800003	725.06430800003	2.0	['2', 'return']	[2.507163899950683, 3.123610300011933]	7.43	5.07	0.0	controle	low_pain	45.1			sub-028	250	28	45.1	46.7	COM11	COM15	COM3	2024-03-28_10h08.57.905	001-EEG_SVR_Officel	2022.2.5	146.47271737383065		5.068000000000097	0_sub-pilot028_SVR_EEG_block1-2.protocol.csv	step43	6359	631.706	STIMULATE	45.1	45.0	45.0	45.0	45.1	43	573.902
578.316	0	289158	wait	20	1	0	1	0	5.0	0.0	5.0	0.0						741.1980800000019	748.6781056000618	748.6781056000618	2.0	['2', 'return']	[2.134412799961865, 2.7903234999394044]	7.48	5.81	1.0	10hz	low_pain	45.1			sub-028	250	28	45.1	46.7	COM11	COM15	COM3	2024-03-28_10h08.57.905	001-EEG_SVR_Officel	2022.2.5	146.47271737383065		11.077999999999975	0_sub-pilot028_SVR_EEG_block1-2.protocol.csv	step45	6603	655.987	STIMULATE	45.1	45.0	45.0	45.0	45.1	45	598.183
585.79	0	292895	10hz	3	1	0	1	0	5.0	0.0	5.0	0.0						741.1980800000019	748.6781056000618	748.6781056000618	2.0	['2', 'return']	[2.134412799961865, 2.7903234999394044]	7.48	5.81	1.0	10hz	low_pain	45.1			sub-028	250	28	45.1	46.7	COM11	COM15	COM3	2024-03-28_10h08.57.905	001-EEG_SVR_Officel	2022.2.5	146.47271737383065		7.473999999999933	0_sub-pilot028_SVR_EEG_block1-2.protocol.csv	step45	6603	655.987	STIMULATE	45.1	45.0	45.0	45.0	45.1	45	598.183
592.352	0	296176	10/Lo	2	1	0	1	0	5.0	0.0	5.0	0.0						741.1980800000019	748.6781056000618	748.6781056000618	2.0	['2', 'return']	[2.134412799961865, 2.7903234999394044]	7.48	5.81	1.0	10hz	low_pain	45.1			sub-028	250	28	45.1	46.7	COM11	COM15	COM3	2024-03-28_10h08.57.905	001-EEG_SVR_Officel	2022.2.5	146.47271737383065		5.812000000000012	0_sub-pilot028_SVR_EEG_block1-2.protocol.csv	step45	6603	655.987	STIMULATE	45.1	45.0	45.0	45.0	45.1	45	598.183
601.602	0	300801	wait	20	1	0	1	0	6.0	0.0	6.0	0.0						764.4855117000407	771.9865216000471	771.9865216000471	3.0	['3', 'return']	[4.098531999974512, 6.929861999931745]	7.5	5.95	2.0	20hz	high_pain	46.7			sub-028	250	28	45.1	46.7	COM11	COM15	COM3	2024-03-28_10h08.57.905	001-EEG_SVR_Officel	2022.2.5	146.47271737383065		10.0	0_sub-pilot028_SVR_EEG_block1-2.protocol.csv	step47	6840	679.452	STIMULATE	46.7	46.7	46.7	46.7	46.7	47	621.648
609.098	0	304549	20hz	6	1	0	1	0	6.0	0.0	6.0	0.0						764.4855117000407	771.9865216000471	771.9865216000471	3.0	['3', 'return']	[4.098531999974512, 6.929861999931745]	7.5	5.95	2.0	20hz	high_pain	46.7			sub-028	250	28	45.1	46.7	COM11	COM15	COM3	2024-03-28_10h08.57.905	001-EEG_SVR_Officel	2022.2.5	146.47271737383065		7.495999999999981	0_sub-pilot028_SVR_EEG_block1-2.protocol.csv	step47	6840	679.452	STIMULATE	46.7	46.7	46.7	46.7	46.7	47	621.648
615.798	0	307899	20/Hi	4	1	0	1	0	6.0	0.0	6.0	0.0						764.4855117000407	771.9865216000471	771.9865216000471	3.0	['3', 'return']	[4.098531999974512, 6.929861999931745]	7.5	5.95	2.0	20hz	high_pain	46.7			sub-028	250	28	45.1	46.7	COM11	COM15	COM3	2024-03-28_10h08.57.905	001-EEG_SVR_Officel	2022.2.5	146.47271737383065		5.9500000000000455	0_sub-pilot028_SVR_EEG_block1-2.protocol.csv	step47	6840	679.452	STIMULATE	46.7	46.7	46.7	46.7	46.7	47	621.648
629.05	0	314525	wait	20	1	0	1	0	7.0	0.0	7.0	0.0						791.9337088000029	797.9140322000021	797.9140322000021	1.5	['1', 'a', '5', 'return']	[2.619133000029251, 3.058998199994676, 3.2426408999599516, 3.963291499996558]	5.98	5.29	3.0	40hz	low_pain	45.1			sub-028	250	28	45.1	46.7	COM11	COM15	COM3	2024-03-28_10h08.57.905	001-EEG_SVR_Officel	2022.2.5	146.47271737383065		14.001999999999953	0_sub-pilot028_SVR_EEG_block1-2.protocol.csv	step49	7095	704.696	STIMULATE	45.1	45.0	45.0	45.0	45.1	49	646.892
635.026	0	317513	40hz	9	1	0	1	0	7.0	0.0	7.0	0.0						791.9337088000029	797.9140322000021	797.9140322000021	1.5	['1', 'a', '5', 'return']	[2.619133000029251, 3.058998199994676, 3.2426408999599516, 3.963291499996558]	5.98	5.29	3.0	40hz	low_pain	45.1			sub-028	250	28	45.1	46.7	COM11	COM15	COM3	2024-03-28_10h08.57.905	001-EEG_SVR_Officel	2022.2.5	146.47271737383065		5.975999999999999	0_sub-pilot028_SVR_EEG_block1-2.protocol.csv	step49	7095	704.696	STIMULATE	45.1	45.0	45.0	45.0	45.1	49	646.892
641.066	0	320533	40/Lo	8	1	0	1	0	7.0	0.0	7.0	0.0						791.9337088000029	797.9140322000021	797.9140322000021	1.5	['1', 'a', '5', 'return']	[2.619133000029251, 3.058998199994676, 3.2426408999599516, 3.963291499996558]	5.98	5.29	3.0	40hz	low_pain	45.1			sub-028	250	28	45.1	46.7	COM11	COM15	COM3	2024-03-28_10h08.57.905	001-EEG_SVR_Officel	2022.2.5	146.47271737383065		5.290000000000077	0_sub-pilot028_SVR_EEG_block1-2.protocol.csv	step49	7095	704.696	STIMULATE	45.1	45.0	45.0	45.0	45.1	49	646.892
652.012	0	326006	wait	20	1	0	1	0	8.0	0.0	8.0	0.0						814.8944344000192	822.0269665999804	822.0269665999804	2.5	['2', 'a', '5', 'return']	[5.313148199929856, 5.720256999949925, 5.9286874999525025, 8.40067000000272]	7.13	5.08	0.0	20hz	low_pain	45.1			sub-028	250	28	45.1	46.7	COM11	COM15	COM3	2024-03-28_10h08.57.905	001-EEG_SVR_Officel	2022.2.5	146.47271737383065		11.695999999999913	0_sub-pilot028_SVR_EEG_block1-2.protocol.csv	step51	7336	728.647	STIMULATE	45.0	45.0	45.0	45.0	45.1	51	670.8430000000001
659.14	0	329570	20hz	6	1	0	1	0	8.0	0.0	8.0	0.0						814.8944344000192	822.0269665999804	822.0269665999804	2.5	['2', 'a', '5', 'return']	[5.313148199929856, 5.720256999949925, 5.9286874999525025, 8.40067000000272]	7.13	5.08	0.0	20hz	low_pain	45.1			sub-028	250	28	45.1	46.7	COM11	COM15	COM3	2024-03-28_10h08.57.905	001-EEG_SVR_Officel	2022.2.5	146.47271737383065		7.128000000000043	0_sub-pilot028_SVR_EEG_block1-2.protocol.csv	step51	7336	728.647	STIMULATE	45.0	45.0	45.0	45.0	45.1	51	670.8430000000001
664.972	0	332486	20/Lo	5	1	0	1	0	8.0	0.0	8.0	0.0						814.8944344000192	822.0269665999804	822.0269665999804	2.5	['2', 'a', '5', 'return']	[5.313148199929856, 5.720256999949925, 5.9286874999525025, 8.40067000000272]	7.13	5.08	0.0	20hz	low_pain	45.1			sub-028	250	28	45.1	46.7	COM11	COM15	COM3	2024-03-28_10h08.57.905	001-EEG_SVR_Officel	2022.2.5	146.47271737383065		5.081999999999994	0_sub-pilot028_SVR_EEG_block1-2.protocol.csv	step51	7336	728.647	STIMULATE	45.0	45.0	45.0	45.0	45.1	51	670.8430000000001
680.564	0	340282	wait	20	1	0	1	0	9.0	0.0	9.0	0.0						843.4462842000648	850.2318893000484	850.2318893000484	2.0	['2', 'return']	[3.3966645000036806, 24.069519600016065]	6.78	5.85	1.0	40hz	low_pain	45.1			sub-028	250	28	45.1	46.7	COM11	COM15	COM3	2024-03-28_10h08.57.905	001-EEG_SVR_Officel	2022.2.5	146.47271737383065		16.341999999999985	0_sub-pilot028_SVR_EEG_block1-2.protocol.csv	step53	7627	757.57	STIMULATE	45.1	45.0	45.0	45.0	45.0	53	699.7660000000001
687.344	0	343672	40hz	9	1	0	1	0	9.0	0.0	9.0	0.0						843.4462842000648	850.2318893000484	850.2318893000484	2.0	['2', 'return']	[3.3966645000036806, 24.069519600016065]	6.78	5.85	1.0	40hz	low_pain	45.1			sub-028	250	28	45.1	46.7	COM11	COM15	COM3	2024-03-28_10h08.57.905	001-EEG_SVR_Officel	2022.2.5	146.47271737383065		6.780000000000086	0_sub-pilot028_SVR_EEG_block1-2.protocol.csv	step53	7627	757.57	STIMULATE	45.1	45.0	45.0	45.0	45.0	53	699.7660000000001
693.946	0	346973	40/Lo	8	1	0	1	0	9.0	0.0	9.0	0.0						843.4462842000648	850.2318893000484	850.2318893000484	2.0	['2', 'return']	[3.3966645000036806, 24.069519600016065]	6.78	5.85	1.0	40hz	low_pain	45.1			sub-028	250	28	45.1	46.7	COM11	COM15	COM3	2024-03-28_10h08.57.905	001-EEG_SVR_Officel	2022.2.5	146.47271737383065		5.851999999999975	0_sub-pilot028_SVR_EEG_block1-2.protocol.csv	step53	7627	757.57	STIMULATE	45.1	45.0	45.0	45.0	45.0	53	699.7660000000001
724.436	0	362218	wait	20	1	0	1	0	10.0	0.0	10.0	0.0						887.3195961000165	894.3221442999784	894.3221442999784	7.0	['7', 'return']	[2.5963711000513285, 3.148558899993077]	7.0	5.36	2.0	controle	high_pain	46.7			sub-028	250	28	45.1	46.7	COM11	COM15	COM3	2024-03-28_10h08.57.905	001-EEG_SVR_Officel	2022.2.5	146.47271737383065		31.24000000000001	0_sub-pilot028_SVR_EEG_block1-2.protocol.csv	step55	8061	801.174	STIMULATE	46.7	46.7	46.7	46.7	46.7	55	743.37
731.434	0	365717	CNhz	12	1	0	1	0	10.0	0.0	10.0	0.0						887.3195961000165	894.3221442999784	894.3221442999784	7.0	['7', 'return']	[2.5963711000513285, 3.148558899993077]	7.0	5.36	2.0	controle	high_pain	46.7			sub-028	250	28	45.1	46.7	COM11	COM15	COM3	2024-03-28_10h08.57.905	001-EEG_SVR_Officel	2022.2.5	146.47271737383065		6.997999999999934	0_sub-pilot028_SVR_EEG_block1-2.protocol.csv	step55	8061	801.174	STIMULATE	46.7	46.7	46.7	46.7	46.7	55	743.37
737.542	0	368771	CN/Hi	10	1	0	1	0	10.0	0.0	10.0	0.0						887.3195961000165	894.3221442999784	894.3221442999784	7.0	['7', 'return']	[2.5963711000513285, 3.148558899993077]	7.0	5.36	2.0	controle	high_pain	46.7			sub-028	250	28	45.1	46.7	COM11	COM15	COM3	2024-03-28_10h08.57.905	001-EEG_SVR_Officel	2022.2.5	146.47271737383065		5.358000000000061	0_sub-pilot028_SVR_EEG_block1-2.protocol.csv	step55	8061	801.174	STIMULATE	46.7	46.7	46.7	46.7	46.7	55	743.37
747.604	0	373802	wait	20	1	0	1	0	11.0	0.0	11.0	0.0						910.4889912999934	915.8445445999968	915.8445445999968	1.0	['1', 'return']	[3.3436568999895826, 4.078801800031215]	5.35	6.06	3.0	controle	low_pain	45.1			sub-028	250	28	45.1	46.7	COM11	COM15	COM3	2024-03-28_10h08.57.905	001-EEG_SVR_Officel	2022.2.5	146.47271737383065		10.812000000000012	0_sub-pilot028_SVR_EEG_block1-2.protocol.csv	step57	8278	823.422	STIMULATE	45.1	45.0	45.0	45.0	45.1	57	765.618
752.956	0	376478	CNhz	12	1	0	1	0	11.0	0.0	11.0	0.0						910.4889912999934	915.8445445999968	915.8445445999968	1.0	['1', 'return']	[3.3436568999895826, 4.078801800031215]	5.35	6.06	3.0	controle	low_pain	45.1			sub-028	250	28	45.1	46.7	COM11	COM15	COM3	2024-03-28_10h08.57.905	001-EEG_SVR_Officel	2022.2.5	146.47271737383065		5.351999999999975	0_sub-pilot028_SVR_EEG_block1-2.protocol.csv	step57	8278	823.422	STIMULATE	45.1	45.0	45.0	45.0	45.1	57	765.618
759.766	0	379883	CN/Lo	11	1	0	1	0	11.0	0.0	11.0	0.0						910.4889912999934	915.8445445999968	915.8445445999968	1.0	['1', 'return']	[3.3436568999895826, 4.078801800031215]	5.35	6.06	3.0	controle	low_pain	45.1			sub-028	250	28	45.1	46.7	COM11	COM15	COM3	2024-03-28_10h08.57.905	001-EEG_SVR_Officel	2022.2.5	146.47271737383065		6.059999999999945	0_sub-pilot028_SVR_EEG_block1-2.protocol.csv	step57	8278	823.422	STIMULATE	45.1	45.0	45.0	45.0	45.1	57	765.618
770.06	0	385030	wait	20	1	0	1	0	12.0	0.0	12.0	0.0						932.9431598000228	939.124383800081	939.124383800081	8.0	['8', 'return']	[2.3680844000773504, 2.7756192000815645]	6.18	5.41	0.0	40hz	high_pain	46.7			sub-028	250	28	45.1	46.7	COM11	COM15	COM3	2024-03-28_10h08.57.905	001-EEG_SVR_Officel	2022.2.5	146.47271737383065		11.043999999999983	0_sub-pilot028_SVR_EEG_block1-2.protocol.csv	step59	8497	846.15	STIMULATE	46.7	46.6	46.7	46.7	46.7	59	788.346
776.236	0	388118	40hz	9	1	0	1	0	12.0	0.0	12.0	0.0						932.9431598000228	939.124383800081	939.124383800081	8.0	['8', 'return']	[2.3680844000773504, 2.7756192000815645]	6.18	5.41	0.0	40hz	high_pain	46.7			sub-028	250	28	45.1	46.7	COM11	COM15	COM3	2024-03-28_10h08.57.905	001-EEG_SVR_Officel	2022.2.5	146.47271737383065		6.176000000000045	0_sub-pilot028_SVR_EEG_block1-2.protocol.csv	step59	8497	846.15	STIMULATE	46.7	46.6	46.7	46.7	46.7	59	788.346
782.394	0	391197	40/Hi	7	1	0	1	0	12.0	0.0	12.0	0.0						932.9431598000228	939.124383800081	939.124383800081	8.0	['8', 'return']	[2.3680844000773504, 2.7756192000815645]	6.18	5.41	0.0	40hz	high_pain	46.7			sub-028	250	28	45.1	46.7	COM11	COM15	COM3	2024-03-28_10h08.57.905	001-EEG_SVR_Officel	2022.2.5	146.47271737383065		5.4080000000000155	0_sub-pilot028_SVR_EEG_block1-2.protocol.csv	step59	8497	846.15	STIMULATE	46.7	46.6	46.7	46.7	46.7	59	788.346
792.034	0	396017	wait	20	1	0	1	0	13.0	0.0	13.0	0.0						954.9178898000392	960.619899500045	960.619899500045	7.5	['7', 'a', '5', 'return']	[3.8978779999306425, 4.176069400040433, 4.416946799959987, 5.28848620003555]	5.7	6.19	1.0	20hz	low_pain	45.1			sub-028	250	28	45.1	46.7	COM11	COM15	COM3	2024-03-28_10h08.57.905	001-EEG_SVR_Officel	2022.2.5	146.47271737383065		10.389999999999986	0_sub-pilot028_SVR_EEG_block1-2.protocol.csv	step61	8709	868.334	STIMULATE	45.0	45.0	45.0	45.0	45.1	61	810.53
797.732	0	398866	20hz	6	1	0	1	0	13.0	0.0	13.0	0.0						954.9178898000392	960.619899500045	960.619899500045	7.5	['7', 'a', '5', 'return']	[3.8978779999306425, 4.176069400040433, 4.416946799959987, 5.28848620003555]	5.7	6.19	1.0	20hz	low_pain	45.1			sub-028	250	28	45.1	46.7	COM11	COM15	COM3	2024-03-28_10h08.57.905	001-EEG_SVR_Officel	2022.2.5	146.47271737383065		5.697999999999979	0_sub-pilot028_SVR_EEG_block1-2.protocol.csv	step61	8709	868.334	STIMULATE	45.0	45.0	45.0	45.0	45.1	61	810.53
804.674	0	402337	20/Lo	5	1	0	1	0	13.0	0.0	13.0	0.0						954.9178898000392	960.619899500045	960.619899500045	7.5	['7', 'a', '5', 'return']	[3.8978779999306425, 4.176069400040433, 4.416946799959987, 5.28848620003555]	5.7	6.19	1.0	20hz	low_pain	45.1			sub-028	250	28	45.1	46.7	COM11	COM15	COM3	2024-03-28_10h08.57.905	001-EEG_SVR_Officel	2022.2.5	146.47271737383065		6.192000000000007	0_sub-pilot028_SVR_EEG_block1-2.protocol.csv	step61	8709	868.334	STIMULATE	45.0	45.0	45.0	45.0	45.1	61	810.53
816.044	0	408022	wait	20	1	0	1	0	14.0	0.0	14.0	0.0						978.9276530999924	984.9699319000356	984.9699319000356	8.0	['8', 'return']	[2.8020212999545038, 3.3708324999315664]	6.04	5.14	2.0	10hz	high_pain	46.7			sub-028	250	28	45.1	46.7	COM11	COM15	COM3	2024-03-28_10h08.57.905	001-EEG_SVR_Officel	2022.2.5	146.47271737383065		12.120000000000005	0_sub-pilot028_SVR_EEG_block1-2.protocol.csv	step63	8930	891.671	STIMULATE	46.7	46.7	46.6	46.7	46.7	63	833.8670000000001
822.082	0	411041	10hz	3	1	0	1	0	14.0	0.0	14.0	0.0						978.9276530999924	984.9699319000356	984.9699319000356	8.0	['8', 'return']	[2.8020212999545038, 3.3708324999315664]	6.04	5.14	2.0	10hz	high_pain	46.7			sub-028	250	28	45.1	46.7	COM11	COM15	COM3	2024-03-28_10h08.57.905	001-EEG_SVR_Officel	2022.2.5	146.47271737383065		6.038000000000011	0_sub-pilot028_SVR_EEG_block1-2.protocol.csv	step63	8930	891.671	STIMULATE	46.7	46.7	46.6	46.7	46.7	63	833.8670000000001
827.976	0	413988	10/Hi	1	1	0	1	0	14.0	0.0	14.0	0.0						978.9276530999924	984.9699319000356	984.9699319000356	8.0	['8', 'return']	[2.8020212999545038, 3.3708324999315664]	6.04	5.14	2.0	10hz	high_pain	46.7			sub-028	250	28	45.1	46.7	COM11	COM15	COM3	2024-03-28_10h08.57.905	001-EEG_SVR_Officel	2022.2.5	146.47271737383065		5.1440000000000055	0_sub-pilot028_SVR_EEG_block1-2.protocol.csv	step63	8930	891.671	STIMULATE	46.7	46.7	46.6	46.7	46.7	63	833.8670000000001
838.476	0	419238	wait	20	1	0	1	0	15.0	0.0	15.0	0.0						1001.3608637000434	1008.6117180000292	1008.6117180000292	6.5	['6', 'a', '5', 'return']	[3.321193900075741, 3.6969783999957144, 3.9118812000378966, 4.968105099978857]	7.25	5.71	3.0	20hz	low_pain	45.1			sub-028	250	28	45.1	46.7	COM11	COM15	COM3	2024-03-28_10h08.57.905	001-EEG_SVR_Officel	2022.2.5	146.47271737383065		11.25	0_sub-pilot028_SVR_EEG_block1-2.protocol.csv	step65	9158	915.939	STIMULATE	45.1	45.0	45.0	45.0	45.1	65	858.135
845.724	0	422862	20hz	6	1	0	1	0	15.0	0.0	15.0	0.0						1001.3608637000434	1008.6117180000292	1008.6117180000292	6.5	['6', 'a', '5', 'return']	[3.321193900075741, 3.6969783999957144, 3.9118812000378966, 4.968105099978857]	7.25	5.71	3.0	20hz	low_pain	45.1			sub-028	250	28	45.1	46.7	COM11	COM15	COM3	2024-03-28_10h08.57.905	001-EEG_SVR_Officel	2022.2.5	146.47271737383065		7.248000000000047	0_sub-pilot028_SVR_EEG_block1-2.protocol.csv	step65	9158	915.939	STIMULATE	45.1	45.0	45.0	45.0	45.1	65	858.135
852.186	0	426093	20/Lo	5	1	0	1	0	15.0	0.0	15.0	0.0						1001.3608637000434	1008.6117180000292	1008.6117180000292	6.5	['6', 'a', '5', 'return']	[3.321193900075741, 3.6969783999957144, 3.9118812000378966, 4.968105099978857]	7.25	5.71	3.0	20hz	low_pain	45.1			sub-028	250	28	45.1	46.7	COM11	COM15	COM3	2024-03-28_10h08.57.905	001-EEG_SVR_Officel	2022.2.5	146.47271737383065		5.711999999999989	0_sub-pilot028_SVR_EEG_block1-2.protocol.csv	step65	9158	915.939	STIMULATE	45.1	45.0	45.0	45.0	45.1	65	858.135
929.216	0	464608	wait	20	2	0	2	0	0.0	0.0	0.0	0.0				p	3.708469500066713	1092.100680500036	1098.671224300051	1098.671224300051	4.0	['4', 'return']	[2.4936675999779254, 3.1734463999746367]	6.57	6.17	0.0	controle	high_pain	46.7			sub-028	250	28	45.1	46.7	COM11	COM15	COM3	2024-03-28_10h08.57.905	001-EEG_SVR_Officel	2022.2.5	146.47271737383065		77.77999999999997	1_sub-pilot028_SVR_EEG_block3-4.protocol.csv	step3	754	75.204	STIMULATE	46.8	46.7	46.7	46.7	46.7	3	948.573
935.782	0	467891	CNhz	12	2	0	2	0	0.0	0.0	0.0	0.0				p	3.708469500066713	1092.100680500036	1098.671224300051	1098.671224300051	4.0	['4', 'return']	[2.4936675999779254, 3.1734463999746367]	6.57	6.17	0.0	controle	high_pain	46.7			sub-028	250	28	45.1	46.7	COM11	COM15	COM3	2024-03-28_10h08.57.905	001-EEG_SVR_Officel	2022.2.5	146.47271737383065		6.566000000000031	1_sub-pilot028_SVR_EEG_block3-4.protocol.csv	step3	754	75.204	STIMULATE	46.8	46.7	46.7	46.7	46.7	3	948.573
942.704	0	471352	CN/Hi	10	2	0	2	0	0.0	0.0	0.0	0.0				p	3.708469500066713	1092.100680500036	1098.671224300051	1098.671224300051	4.0	['4', 'return']	[2.4936675999779254, 3.1734463999746367]	6.57	6.17	0.0	controle	high_pain	46.7			sub-028	250	28	45.1	46.7	COM11	COM15	COM3	2024-03-28_10h08.57.905	001-EEG_SVR_Officel	2022.2.5	146.47271737383065		6.171999999999912	1_sub-pilot028_SVR_EEG_block3-4.protocol.csv	step3	754	75.204	STIMULATE	46.8	46.7	46.7	46.7	46.7	3	948.573
951.976	0	475988	wait	20	2	0	2	0	1.0	0.0	1.0	0.0						1114.8602495000232	1120.726082700072	1120.726082700072	8.5	['8', 'a', '5', 'return']	[2.8900727999862283, 3.4255051999352872, 3.665710399975069, 4.506421099998988]	5.86	6.13	1.0	10hz	high_pain	46.7			sub-028	250	28	45.1	46.7	COM11	COM15	COM3	2024-03-28_10h08.57.905	001-EEG_SVR_Officel	2022.2.5	146.47271737383065		10.022000000000048	1_sub-pilot028_SVR_EEG_block3-4.protocol.csv	step5	975	97.111	STIMULATE	46.7	46.7	46.7	46.7	46.7	5	970.48
957.832	0	478916	10hz	3	2	0	2	0	1.0	0.0	1.0	0.0						1114.8602495000232	1120.726082700072	1120.726082700072	8.5	['8', 'a', '5', 'return']	[2.8900727999862283, 3.4255051999352872, 3.665710399975069, 4.506421099998988]	5.86	6.13	1.0	10hz	high_pain	46.7			sub-028	250	28	45.1	46.7	COM11	COM15	COM3	2024-03-28_10h08.57.905	001-EEG_SVR_Officel	2022.2.5	146.47271737383065		5.8559999999999945	1_sub-pilot028_SVR_EEG_block3-4.protocol.csv	step5	975	97.111	STIMULATE	46.7	46.7	46.7	46.7	46.7	5	970.48
964.714	0	482357	10/Hi	1	2	0	2	0	1.0	0.0	1.0	0.0						1114.8602495000232	1120.726082700072	1120.726082700072	8.5	['8', 'a', '5', 'return']	[2.8900727999862283, 3.4255051999352872, 3.665710399975069, 4.506421099998988]	5.86	6.13	1.0	10hz	high_pain	46.7			sub-028	250	28	45.1	46.7	COM11	COM15	COM3	2024-03-28_10h08.57.905	001-EEG_SVR_Officel	2022.2.5	146.47271737383065		6.132000000000062	1_sub-pilot028_SVR_EEG_block3-4.protocol.csv	step5	975	97.111	STIMULATE	46.7	46.7	46.7	46.7	46.7	5	970.48
975.36	0	487680	wait	20	2	0	2	0	2.0	0.0	2.0	0.0						1138.245040500071	1144.6971567000728	1144.6971567000728	8.5	['8', 'a', '5', 'return']	[2.3472261000424623, 2.7229345000814646, 3.002811999991536, 3.72308480006177]	6.45	6.44	2.0	controle	high_pain	46.7			sub-028	250	28	45.1	46.7	COM11	COM15	COM3	2024-03-28_10h08.57.905	001-EEG_SVR_Officel	2022.2.5	146.47271737383065		11.395999999999958	1_sub-pilot028_SVR_EEG_block3-4.protocol.csv	step7	1221	121.499	STIMULATE	46.8	46.7	46.7	46.7	46.7	7	994.8679999999999
981.806	0	490903	CNhz	12	2	0	2	0	2.0	0.0	2.0	0.0						1138.245040500071	1144.6971567000728	1144.6971567000728	8.5	['8', 'a', '5', 'return']	[2.3472261000424623, 2.7229345000814646, 3.002811999991536, 3.72308480006177]	6.45	6.44	2.0	controle	high_pain	46.7			sub-028	250	28	45.1	46.7	COM11	COM15	COM3	2024-03-28_10h08.57.905	001-EEG_SVR_Officel	2022.2.5	146.47271737383065		6.446000000000026	1_sub-pilot028_SVR_EEG_block3-4.protocol.csv	step7	1221	121.499	STIMULATE	46.8	46.7	46.7	46.7	46.7	7	994.8679999999999
989.0	0	494500	CN/Hi	10	2	0	2	0	2.0	0.0	2.0	0.0						1138.245040500071	1144.6971567000728	1144.6971567000728	8.5	['8', 'a', '5', 'return']	[2.3472261000424623, 2.7229345000814646, 3.002811999991536, 3.72308480006177]	6.45	6.44	2.0	controle	high_pain	46.7			sub-028	250	28	45.1	46.7	COM11	COM15	COM3	2024-03-28_10h08.57.905	001-EEG_SVR_Officel	2022.2.5	146.47271737383065		6.44399999999996	1_sub-pilot028_SVR_EEG_block3-4.protocol.csv	step7	1221	121.499	STIMULATE	46.8	46.7	46.7	46.7	46.7	7	994.8679999999999
998.556	0	499278	wait	20	2	0	2	0	3.0	0.0	3.0	0.0						1161.44222550001	1167.394243900082	1167.394243900082	2.0	['2', 'return']	[4.026846099994145, 4.618376399972476]	5.95	6.08	3.0	20hz	low_pain	45.1			sub-028	250	28	45.1	46.7	COM11	COM15	COM3	2024-03-28_10h08.57.905	001-EEG_SVR_Officel	2022.2.5	146.47271737383065		10.30600000000004	1_sub-pilot028_SVR_EEG_block3-4.protocol.csv	step9	1446	143.841	STIMULATE	45.1	45.0	45.0	45.1	45.1	9	1017.2099999999999
1004.504	0	502252	20hz	6	2	0	2	0	3.0	0.0	3.0	0.0						1161.44222550001	1167.394243900082	1167.394243900082	2.0	['2', 'return']	[4.026846099994145, 4.618376399972476]	5.95	6.08	3.0	20hz	low_pain	45.1			sub-028	250	28	45.1	46.7	COM11	COM15	COM3	2024-03-28_10h08.57.905	001-EEG_SVR_Officel	2022.2.5	146.47271737383065		5.947999999999979	1_sub-pilot028_SVR_EEG_block3-4.protocol.csv	step9	1446	143.841	STIMULATE	45.1	45.0	45.0	45.1	45.1	9	1017.2099999999999
1011.336	0	505668	20/Lo	5	2	0	2	0	3.0	0.0	3.0	0.0						1161.44222550001	1167.394243900082	1167.394243900082	2.0	['2', 'return']	[4.026846099994145, 4.618376399972476]	5.95	6.08	3.0	20hz	low_pain	45.1			sub-028	250	28	45.1	46.7	COM11	COM15	COM3	2024-03-28_10h08.57.905	001-EEG_SVR_Officel	2022.2.5	146.47271737383065		6.081999999999994	1_sub-pilot028_SVR_EEG_block3-4.protocol.csv	step9	1446	143.841	STIMULATE	45.1	45.0	45.0	45.1	45.1	9	1017.2099999999999
1022.142	0	511071	wait	20	2	0	2	0	4.0	0.0	4.0	0.0						1185.0284102000296	1191.38329909998	1191.38329909998	8.0	['8', 'return']	[2.9248492000624537, 3.3412498000543565]	6.35	5.13	0.0	20hz	high_pain	46.7			sub-028	250	28	45.1	46.7	COM11	COM15	COM3	2024-03-28_10h08.57.905	001-EEG_SVR_Officel	2022.2.5	146.47271737383065		11.55600000000004	1_sub-pilot028_SVR_EEG_block3-4.protocol.csv	step11	1679	166.909	STIMULATE	46.7	46.7	46.7	46.7	46.7	11	1040.278
1028.494	0	514246	20hz	6	2	0	2	0	4.0	0.0	4.0	0.0						1185.0284102000296	1191.38329909998	1191.38329909998	8.0	['8', 'return']	[2.9248492000624537, 3.3412498000543565]	6.35	5.13	0.0	20hz	high_pain	46.7			sub-028	250	28	45.1	46.7	COM11	COM15	COM3	2024-03-28_10h08.57.905	001-EEG_SVR_Officel	2022.2.5	146.47271737383065		6.351999999999862	1_sub-pilot028_SVR_EEG_block3-4.protocol.csv	step11	1679	166.909	STIMULATE	46.7	46.7	46.7	46.7	46.7	11	1040.278
1034.374	0	517187	20/Hi	4	2	0	2	0	4.0	0.0	4.0	0.0						1185.0284102000296	1191.38329909998	1191.38329909998	8.0	['8', 'return']	[2.9248492000624537, 3.3412498000543565]	6.35	5.13	0.0	20hz	high_pain	46.7			sub-028	250	28	45.1	46.7	COM11	COM15	COM3	2024-03-28_10h08.57.905	001-EEG_SVR_Officel	2022.2.5	146.47271737383065		5.130000000000109	1_sub-pilot028_SVR_EEG_block3-4.protocol.csv	step11	1679	166.909	STIMULATE	46.7	46.7	46.7	46.7	46.7	11	1040.278
1044.86	0	522429	wait	20	2	0	2	0	5.0	0.0	5.0	0.0						1207.7462253000122	1215.5393235000083	1215.5393235000083	3.0	['3', 'return']	[2.937781500048004, 3.586318999994546]	7.79	5.91	1.0	40hz	low_pain	45.1			sub-028	250	28	45.1	46.7	COM11	COM15	COM3	2024-03-28_10h08.57.905	001-EEG_SVR_Officel	2022.2.5	146.47271737383065		11.235999999999876	1_sub-pilot028_SVR_EEG_block3-4.protocol.csv	step13	1930	191.839	STIMULATE	45.1	45.0	45.0	45.0	45.1	13	1065.2079999999999
1052.648	0	526324	40hz	9	2	0	2	0	5.0	0.0	5.0	0.0						1207.7462253000122	1215.5393235000083	1215.5393235000083	3.0	['3', 'return']	[2.937781500048004, 3.586318999994546]	7.79	5.91	1.0	40hz	low_pain	45.1			sub-028	250	28	45.1	46.7	COM11	COM15	COM3	2024-03-28_10h08.57.905	001-EEG_SVR_Officel	2022.2.5	146.47271737383065		7.788000000000011	1_sub-pilot028_SVR_EEG_block3-4.protocol.csv	step13	1930	191.839	STIMULATE	45.1	45.0	45.0	45.0	45.1	13	1065.2079999999999
1059.306	0	529653	40/Lo	8	2	0	2	0	5.0	0.0	5.0	0.0						1207.7462253000122	1215.5393235000083	1215.5393235000083	3.0	['3', 'return']	[2.937781500048004, 3.586318999994546]	7.79	5.91	1.0	40hz	low_pain	45.1			sub-028	250	28	45.1	46.7	COM11	COM15	COM3	2024-03-28_10h08.57.905	001-EEG_SVR_Officel	2022.2.5	146.47271737383065		5.908000000000129	1_sub-pilot028_SVR_EEG_block3-4.protocol.csv	step13	1930	191.839	STIMULATE	45.1	45.0	45.0	45.0	45.1	13	1065.2079999999999
1069.258	0	534629	wait	20	2	0	2	0	6.0	0.0	6.0	0.0						1232.1449264000405	1239.799838899984	1239.799838899984	6.5	['6', 'a', '5', 'return']	[3.221935199922882, 3.765727699967101, 4.078300799941644, 4.846935999928974]	7.65	5.88	2.0	20hz	high_pain	46.7			sub-028	250	28	45.1	46.7	COM11	COM15	COM3	2024-03-28_10h08.57.905	001-EEG_SVR_Officel	2022.2.5	146.47271737383065		10.701999999999998	1_sub-pilot028_SVR_EEG_block3-4.protocol.csv	step15	2174	216.007	STIMULATE	46.7	46.7	46.7	46.7	46.7	15	1089.376
1076.908	0	538454	20hz	6	2	0	2	0	6.0	0.0	6.0	0.0						1232.1449264000405	1239.799838899984	1239.799838899984	6.5	['6', 'a', '5', 'return']	[3.221935199922882, 3.765727699967101, 4.078300799941644, 4.846935999928974]	7.65	5.88	2.0	20hz	high_pain	46.7			sub-028	250	28	45.1	46.7	COM11	COM15	COM3	2024-03-28_10h08.57.905	001-EEG_SVR_Officel	2022.2.5	146.47271737383065		7.649999999999864	1_sub-pilot028_SVR_EEG_block3-4.protocol.csv	step15	2174	216.007	STIMULATE	46.7	46.7	46.7	46.7	46.7	15	1089.376
1083.538	0	541769	20/Hi	4	2	0	2	0	6.0	0.0	6.0	0.0						1232.1449264000405	1239.799838899984	1239.799838899984	6.5	['6', 'a', '5', 'return']	[3.221935199922882, 3.765727699967101, 4.078300799941644, 4.846935999928974]	7.65	5.88	2.0	20hz	high_pain	46.7			sub-028	250	28	45.1	46.7	COM11	COM15	COM3	2024-03-28_10h08.57.905	001-EEG_SVR_Officel	2022.2.5	146.47271737383065		5.880000000000109	1_sub-pilot028_SVR_EEG_block3-4.protocol.csv	step15	2174	216.007	STIMULATE	46.7	46.7	46.7	46.7	46.7	15	1089.376
1094.776	0	547388	wait	20	2	0	2	0	7.0	0.0	7.0	0.0						1257.6618499000324	1263.4135798000498	1263.4135798000498	4.5	['4', 'a', '5', 'return']	[2.6001278999028727, 2.9120408999733627, 3.1520945999072865, 4.185366299934685]	5.75	5.41	3.0	40hz	low_pain	45.1			sub-028	250	28	45.1	46.7	COM11	COM15	COM3	2024-03-28_10h08.57.905	001-EEG_SVR_Officel	2022.2.5	146.47271737383065		11.988000000000056	1_sub-pilot028_SVR_EEG_block3-4.protocol.csv	step17	2408	239.222	STIMULATE	45.1	45.0	45.0	45.0	45.1	17	1112.591
1100.522	0	550261	40hz	9	2	0	2	0	7.0	0.0	7.0	0.0						1257.6618499000324	1263.4135798000498	1263.4135798000498	4.5	['4', 'a', '5', 'return']	[2.6001278999028727, 2.9120408999733627, 3.1520945999072865, 4.185366299934685]	5.75	5.41	3.0	40hz	low_pain	45.1			sub-028	250	28	45.1	46.7	COM11	COM15	COM3	2024-03-28_10h08.57.905	001-EEG_SVR_Officel	2022.2.5	146.47271737383065		5.745999999999867	1_sub-pilot028_SVR_EEG_block3-4.protocol.csv	step17	2408	239.222	STIMULATE	45.1	45.0	45.0	45.0	45.1	17	1112.591
1106.68	0	553340	40/Lo	8	2	0	2	0	7.0	0.0	7.0	0.0						1257.6618499000324	1263.4135798000498	1263.4135798000498	4.5	['4', 'a', '5', 'return']	[2.6001278999028727, 2.9120408999733627, 3.1520945999072865, 4.185366299934685]	5.75	5.41	3.0	40hz	low_pain	45.1			sub-028	250	28	45.1	46.7	COM11	COM15	COM3	2024-03-28_10h08.57.905	001-EEG_SVR_Officel	2022.2.5	146.47271737383065		5.408000000000129	1_sub-pilot028_SVR_EEG_block3-4.protocol.csv	step17	2408	239.222	STIMULATE	45.1	45.0	45.0	45.0	45.1	17	1112.591
1117.73	0	558865	wait	20	2	0	2	0	8.0	0.0	8.0	0.0						1280.6159065000247	1287.5617060000077	1287.5617060000077	2.0	['2', 'return']	[3.0438210000284016, 3.650755000067875]	6.94	6.2	0.0	10hz	low_pain	45.1			sub-028	250	28	45.1	46.7	COM11	COM15	COM3	2024-03-28_10h08.57.905	001-EEG_SVR_Officel	2022.2.5	146.47271737383065		11.799999999999955	1_sub-pilot028_SVR_EEG_block3-4.protocol.csv	step19	2658	264.086	STIMULATE	45.1	45.0	45.0	45.0	45.1	19	1137.455
1124.67	0	562335	10hz	3	2	0	2	0	8.0	0.0	8.0	0.0						1280.6159065000247	1287.5617060000077	1287.5617060000077	2.0	['2', 'return']	[3.0438210000284016, 3.650755000067875]	6.94	6.2	0.0	10hz	low_pain	45.1			sub-028	250	28	45.1	46.7	COM11	COM15	COM3	2024-03-28_10h08.57.905	001-EEG_SVR_Officel	2022.2.5	146.47271737383065		6.940000000000055	1_sub-pilot028_SVR_EEG_block3-4.protocol.csv	step19	2658	264.086	STIMULATE	45.1	45.0	45.0	45.0	45.1	19	1137.455
1131.62	0	565810	10/Lo	2	2	0	2	0	8.0	0.0	8.0	0.0						1280.6159065000247	1287.5617060000077	1287.5617060000077	2.0	['2', 'return']	[3.0438210000284016, 3.650755000067875]	6.94	6.2	0.0	10hz	low_pain	45.1			sub-028	250	28	45.1	46.7	COM11	COM15	COM3	2024-03-28_10h08.57.905	001-EEG_SVR_Officel	2022.2.5	146.47271737383065		6.199999999999818	1_sub-pilot028_SVR_EEG_block3-4.protocol.csv	step19	2658	264.086	STIMULATE	45.1	45.0	45.0	45.0	45.1	19	1137.455
1141.344	0	570672	wait	20	2	0	2	0	9.0	0.0	9.0	0.0						1304.2298567000544	1310.334442500025	1310.334442500025	7.5	['7', 'a', '5', 'return']	[2.84613039996475, 3.141403799992986, 3.390795600018464, 4.093619099934585]	6.1	6.34	1.0	20hz	high_pain	46.7			sub-028	250	28	45.1	46.7	COM11	COM15	COM3	2024-03-28_10h08.57.905	001-EEG_SVR_Officel	2022.2.5	146.47271737383065		10.47400000000016	1_sub-pilot028_SVR_EEG_block3-4.protocol.csv	step21	2890	287.044	STIMULATE	46.7	46.7	46.7	46.7	46.7	21	1160.413
1147.444	0	573722	20hz	6	2	0	2	0	9.0	0.0	9.0	0.0						1304.2298567000544	1310.334442500025	1310.334442500025	7.5	['7', 'a', '5', 'return']	[2.84613039996475, 3.141403799992986, 3.390795600018464, 4.093619099934585]	6.1	6.34	1.0	20hz	high_pain	46.7			sub-028	250	28	45.1	46.7	COM11	COM15	COM3	2024-03-28_10h08.57.905	001-EEG_SVR_Officel	2022.2.5	146.47271737383065		6.099999999999909	1_sub-pilot028_SVR_EEG_block3-4.protocol.csv	step21	2890	287.044	STIMULATE	46.7	46.7	46.7	46.7	46.7	21	1160.413
1154.532	0	577266	20/Hi	4	2	0	2	0	9.0	0.0	9.0	0.0						1304.2298567000544	1310.334442500025	1310.334442500025	7.5	['7', 'a', '5', 'return']	[2.84613039996475, 3.141403799992986, 3.390795600018464, 4.093619099934585]	6.1	6.34	1.0	20hz	high_pain	46.7			sub-028	250	28	45.1	46.7	COM11	COM15	COM3	2024-03-28_10h08.57.905	001-EEG_SVR_Officel	2022.2.5	146.47271737383065		6.337999999999965	1_sub-pilot028_SVR_EEG_block3-4.protocol.csv	step21	2890	287.044	STIMULATE	46.7	46.7	46.7	46.7	46.7	21	1160.413
1164.562	0	582281	wait	20	2	0	2	0	10.0	0.0	10.0	0.0						1327.4483356000856	1335.234200600069	1335.234200600069	5.5	['5', 'a', '5', 'return']	[2.523275600047782, 2.7386978999711573, 2.938836600049399, 4.020060900016688]	7.78	6.05	2.0	controle	low_pain	45.1			sub-028	250	28	45.1	46.7	COM11	COM15	COM3	2024-03-28_10h08.57.905	001-EEG_SVR_Officel	2022.2.5	146.47271737383065		10.779999999999973	1_sub-pilot028_SVR_EEG_block3-4.protocol.csv	step23	3138	311.688	STIMULATE	45.1	45.0	45.0	45.1	45.1	23	1185.057
1172.342	0	586171	CNhz	12	2	0	2	0	10.0	0.0	10.0	0.0						1327.4483356000856	1335.234200600069	1335.234200600069	5.5	['5', 'a', '5', 'return']	[2.523275600047782, 2.7386978999711573, 2.938836600049399, 4.020060900016688]	7.78	6.05	2.0	controle	low_pain	45.1			sub-028	250	28	45.1	46.7	COM11	COM15	COM3	2024-03-28_10h08.57.905	001-EEG_SVR_Officel	2022.2.5	146.47271737383065		7.7800000000002	1_sub-pilot028_SVR_EEG_block3-4.protocol.csv	step23	3138	311.688	STIMULATE	45.1	45.0	45.0	45.1	45.1	23	1185.057
1179.146	0	589573	CN/Lo	11	2	0	2	0	10.0	0.0	10.0	0.0						1327.4483356000856	1335.234200600069	1335.234200600069	5.5	['5', 'a', '5', 'return']	[2.523275600047782, 2.7386978999711573, 2.938836600049399, 4.020060900016688]	7.78	6.05	2.0	controle	low_pain	45.1			sub-028	250	28	45.1	46.7	COM11	COM15	COM3	2024-03-28_10h08.57.905	001-EEG_SVR_Officel	2022.2.5	146.47271737383065		6.05399999999986	1_sub-pilot028_SVR_EEG_block3-4.protocol.csv	step23	3138	311.688	STIMULATE	45.1	45.0	45.0	45.1	45.1	23	1185.057
1189.384	0	594692	wait	20	2	0	2	0	11.0	0.0	11.0	0.0						1352.2707369000418	1357.555931800045	1357.555931800045	6.0	['6', 'return']	[4.256856799940579, 5.0174946000333875]	5.28	5.41	3.0	40hz	high_pain	46.7			sub-028	250	28	45.1	46.7	COM11	COM15	COM3	2024-03-28_10h08.57.905	001-EEG_SVR_Officel	2022.2.5	146.47271737383065		10.988000000000056	1_sub-pilot028_SVR_EEG_block3-4.protocol.csv	step25	3357	333.375	STIMULATE	46.7	46.7	46.7	46.7	46.7	25	1206.744
1194.664	0	597332	40hz	9	2	0	2	0	11.0	0.0	11.0	0.0						1352.2707369000418	1357.555931800045	1357.555931800045	6.0	['6', 'return']	[4.256856799940579, 5.0174946000333875]	5.28	5.41	3.0	40hz	high_pain	46.7			sub-028	250	28	45.1	46.7	COM11	COM15	COM3	2024-03-28_10h08.57.905	001-EEG_SVR_Officel	2022.2.5	146.47271737383065		5.279999999999973	1_sub-pilot028_SVR_EEG_block3-4.protocol.csv	step25	3357	333.375	STIMULATE	46.7	46.7	46.7	46.7	46.7	25	1206.744
1200.822	0	600411	40/Hi	7	2	0	2	0	11.0	0.0	11.0	0.0						1352.2707369000418	1357.555931800045	1357.555931800045	6.0	['6', 'return']	[4.256856799940579, 5.0174946000333875]	5.28	5.41	3.0	40hz	high_pain	46.7			sub-028	250	28	45.1	46.7	COM11	COM15	COM3	2024-03-28_10h08.57.905	001-EEG_SVR_Officel	2022.2.5	146.47271737383065		5.407999999999902	1_sub-pilot028_SVR_EEG_block3-4.protocol.csv	step25	3357	333.375	STIMULATE	46.7	46.7	46.7	46.7	46.7	25	1206.744
1212.706	0	606353	wait	20	2	0	2	0	12.0	0.0	12.0	0.0						1375.5924297000747	1381.9471599999815	1381.9471599999815	4.5	['4', 'a', '5', 'return']	[3.4806793000316247, 3.672635200084187, 3.921883200062439, 4.922035000054166]	6.35	5.83	0.0	20hz	low_pain	45.1			sub-028	250	28	45.1	46.7	COM11	COM15	COM3	2024-03-28_10h08.57.905	001-EEG_SVR_Officel	2022.2.5	146.47271737383065		12.634000000000015	1_sub-pilot028_SVR_EEG_block3-4.protocol.csv	step27	3607	358.168	STIMULATE	45.1	45.0	45.0	45.0	45.0	27	1231.537
1219.056	0	609528	20hz	6	2	0	2	0	12.0	0.0	12.0	0.0						1375.5924297000747	1381.9471599999815	1381.9471599999815	4.5	['4', 'a', '5', 'return']	[3.4806793000316247, 3.672635200084187, 3.921883200062439, 4.922035000054166]	6.35	5.83	0.0	20hz	low_pain	45.1			sub-028	250	28	45.1	46.7	COM11	COM15	COM3	2024-03-28_10h08.57.905	001-EEG_SVR_Officel	2022.2.5	146.47271737383065		6.350000000000136	1_sub-pilot028_SVR_EEG_block3-4.protocol.csv	step27	3607	358.168	STIMULATE	45.1	45.0	45.0	45.0	45.0	27	1231.537
1225.636	0	612818	20/Lo	5	2	0	2	0	12.0	0.0	12.0	0.0						1375.5924297000747	1381.9471599999815	1381.9471599999815	4.5	['4', 'a', '5', 'return']	[3.4806793000316247, 3.672635200084187, 3.921883200062439, 4.922035000054166]	6.35	5.83	0.0	20hz	low_pain	45.1			sub-028	250	28	45.1	46.7	COM11	COM15	COM3	2024-03-28_10h08.57.905	001-EEG_SVR_Officel	2022.2.5	146.47271737383065		5.829999999999927	1_sub-pilot028_SVR_EEG_block3-4.protocol.csv	step27	3607	358.168	STIMULATE	45.1	45.0	45.0	45.0	45.0	27	1231.537
1237.0	0	618500	wait	20	2	0	2	0	13.0	0.0	13.0	0.0						1399.886981000076	1404.949887100025	1404.949887100025	3.5	['3', 'a', '5', 'return']	[4.19883819995448, 4.566857500001788, 4.838509600027464, 5.558520199963823]	5.06	6.19	1.0	10hz	low_pain	45.1			sub-028	250	28	45.1	46.7	COM11	COM15	COM3	2024-03-28_10h08.57.905	001-EEG_SVR_Officel	2022.2.5	146.47271737383065		12.114000000000033	1_sub-pilot028_SVR_EEG_block3-4.protocol.csv	step29	3843	381.586	STIMULATE	45.1	45.0	45.0	45.0	45.0	29	1254.955
1242.06	0	621030	10hz	3	2	0	2	0	13.0	0.0	13.0	0.0						1399.886981000076	1404.949887100025	1404.949887100025	3.5	['3', 'a', '5', 'return']	[4.19883819995448, 4.566857500001788, 4.838509600027464, 5.558520199963823]	5.06	6.19	1.0	10hz	low_pain	45.1			sub-028	250	28	45.1	46.7	COM11	COM15	COM3	2024-03-28_10h08.57.905	001-EEG_SVR_Officel	2022.2.5	146.47271737383065		5.059999999999945	1_sub-pilot028_SVR_EEG_block3-4.protocol.csv	step29	3843	381.586	STIMULATE	45.1	45.0	45.0	45.0	45.0	29	1254.955
1249.002	0	624501	10/Lo	2	2	0	2	0	13.0	0.0	13.0	0.0						1399.886981000076	1404.949887100025	1404.949887100025	3.5	['3', 'a', '5', 'return']	[4.19883819995448, 4.566857500001788, 4.838509600027464, 5.558520199963823]	5.06	6.19	1.0	10hz	low_pain	45.1			sub-028	250	28	45.1	46.7	COM11	COM15	COM3	2024-03-28_10h08.57.905	001-EEG_SVR_Officel	2022.2.5	146.47271737383065		6.192000000000007	1_sub-pilot028_SVR_EEG_block3-4.protocol.csv	step29	3843	381.586	STIMULATE	45.1	45.0	45.0	45.0	45.0	29	1254.955
1260.642	0	630321	wait	20	2	0	2	0	14.0	0.0	14.0	0.0						1423.528580700047	1430.4403921000194	1430.4403921000194	3.0	['3', 'return']	[3.349352700053714, 4.093386500026099]	6.91	5.15	2.0	10hz	high_pain	46.7			sub-028	250	28	45.1	46.7	COM11	COM15	COM3	2024-03-28_10h08.57.905	001-EEG_SVR_Officel	2022.2.5	146.47271737383065		12.3900000000001	1_sub-pilot028_SVR_EEG_block3-4.protocol.csv	step31	4089	405.994	STIMULATE	46.7	46.7	46.7	46.7	46.7	31	1279.363
1267.548	0	633774	10hz	3	2	0	2	0	14.0	0.0	14.0	0.0						1423.528580700047	1430.4403921000194	1430.4403921000194	3.0	['3', 'return']	[3.349352700053714, 4.093386500026099]	6.91	5.15	2.0	10hz	high_pain	46.7			sub-028	250	28	45.1	46.7	COM11	COM15	COM3	2024-03-28_10h08.57.905	001-EEG_SVR_Officel	2022.2.5	146.47271737383065		6.905999999999949	1_sub-pilot028_SVR_EEG_block3-4.protocol.csv	step31	4089	405.994	STIMULATE	46.7	46.7	46.7	46.7	46.7	31	1279.363
1273.448	0	636724	10/Hi	1	2	0	2	0	14.0	0.0	14.0	0.0						1423.528580700047	1430.4403921000194	1430.4403921000194	3.0	['3', 'return']	[3.349352700053714, 4.093386500026099]	6.91	5.15	2.0	10hz	high_pain	46.7			sub-028	250	28	45.1	46.7	COM11	COM15	COM3	2024-03-28_10h08.57.905	001-EEG_SVR_Officel	2022.2.5	146.47271737383065		5.150000000000091	1_sub-pilot028_SVR_EEG_block3-4.protocol.csv	step31	4089	405.994	STIMULATE	46.7	46.7	46.7	46.7	46.7	31	1279.363
1284.666	0	642333	wait	20	2	0	2	0	15.0	0.0	15.0	0.0						1447.5523147000931	1453.337984999991	1453.337984999991	6.0	['6', 'return']	[3.4184951999923214, 4.1473153999540955]	5.78	5.71	3.0	10hz	low_pain	45.1			sub-028	250	28	45.1	46.7	COM11	COM15	COM3	2024-03-28_10h08.57.905	001-EEG_SVR_Officel	2022.2.5	146.47271737383065		11.967999999999847	1_sub-pilot028_SVR_EEG_block3-4.protocol.csv	step33	4326	429.453	STIMULATE	45.1	45.0	45.0	45.0	45.0	33	1302.822
1290.446	0	645223	10hz	3	2	0	2	0	15.0	0.0	15.0	0.0						1447.5523147000931	1453.337984999991	1453.337984999991	6.0	['6', 'return']	[3.4184951999923214, 4.1473153999540955]	5.78	5.71	3.0	10hz	low_pain	45.1			sub-028	250	28	45.1	46.7	COM11	COM15	COM3	2024-03-28_10h08.57.905	001-EEG_SVR_Officel	2022.2.5	146.47271737383065		5.779999999999973	1_sub-pilot028_SVR_EEG_block3-4.protocol.csv	step33	4326	429.453	STIMULATE	45.1	45.0	45.0	45.0	45.0	33	1302.822
1296.91	0	648455	10/Lo	2	2	0	2	0	15.0	0.0	15.0	0.0						1447.5523147000931	1453.337984999991	1453.337984999991	6.0	['6', 'return']	[3.4184951999923214, 4.1473153999540955]	5.78	5.71	3.0	10hz	low_pain	45.1			sub-028	250	28	45.1	46.7	COM11	COM15	COM3	2024-03-28_10h08.57.905	001-EEG_SVR_Officel	2022.2.5	146.47271737383065		5.714000000000169	1_sub-pilot028_SVR_EEG_block3-4.protocol.csv	step33	4326	429.453	STIMULATE	45.1	45.0	45.0	45.0	45.0	33	1302.822
1369.822	0	684911	wait	20	3	0	3	0	0.0	0.0	0.0	0.0				p	1.126179700018838	1532.7081306000473	1538.4518371000886	1538.4518371000886	1.0	['1', 'return']	[3.8567715000826865, 4.592838100041263]	5.74	6.17	0.0	controle	low_pain	45.1			sub-028	250	28	45.1	46.7	COM11	COM15	COM3	2024-03-28_10h08.57.905	001-EEG_SVR_Officel	2022.2.5	146.47271737383065		73.66199999999981	1_sub-pilot028_SVR_EEG_block3-4.protocol.csv	step35	5184	515.059	STIMULATE	45.1	45.0	45.0	45.0	45.1	35	1388.396
1375.56	0	687780	CNhz	12	3	0	3	0	0.0	0.0	0.0	0.0				p	1.126179700018838	1532.7081306000473	1538.4518371000886	1538.4518371000886	1.0	['1', 'return']	[3.8567715000826865, 4.592838100041263]	5.74	6.17	0.0	controle	low_pain	45.1			sub-028	250	28	45.1	46.7	COM11	COM15	COM3	2024-03-28_10h08.57.905	001-EEG_SVR_Officel	2022.2.5	146.47271737383065		5.738000000000056	1_sub-pilot028_SVR_EEG_block3-4.protocol.csv	step35	5184	515.059	STIMULATE	45.1	45.0	45.0	45.0	45.1	35	1388.396
1382.482	0	691241	CN/Lo	11	3	0	3	0	0.0	0.0	0.0	0.0				p	1.126179700018838	1532.7081306000473	1538.4518371000886	1538.4518371000886	1.0	['1', 'return']	[3.8567715000826865, 4.592838100041263]	5.74	6.17	0.0	controle	low_pain	45.1			sub-028	250	28	45.1	46.7	COM11	COM15	COM3	2024-03-28_10h08.57.905	001-EEG_SVR_Officel	2022.2.5	146.47271737383065		6.1720000000000255	1_sub-pilot028_SVR_EEG_block3-4.protocol.csv	step35	5184	515.059	STIMULATE	45.1	45.0	45.0	45.0	45.1	35	1388.396
1393.178	0	696589	wait	20	3	0	3	0	1.0	0.0	1.0	0.0						1556.0653983000666	1562.246317400015	1562.246317400015	6.0	['6', 'return']	[2.4375665000407025, 3.9827097000088543]	6.18	5.3	1.0	40hz	high_pain	46.7			sub-028	250	28	45.1	46.7	COM11	COM15	COM3	2024-03-28_10h08.57.905	001-EEG_SVR_Officel	2022.2.5	146.47271737383065		11.44600000000014	1_sub-pilot028_SVR_EEG_block3-4.protocol.csv	step37	5415	538.009	STIMULATE	46.6	46.6	46.7	46.7	46.7	37	1411.346
1399.352	0	699676	40hz	9	3	0	3	0	1.0	0.0	1.0	0.0						1556.0653983000666	1562.246317400015	1562.246317400015	6.0	['6', 'return']	[2.4375665000407025, 3.9827097000088543]	6.18	5.3	1.0	40hz	high_pain	46.7			sub-028	250	28	45.1	46.7	COM11	COM15	COM3	2024-03-28_10h08.57.905	001-EEG_SVR_Officel	2022.2.5	146.47271737383065		6.173999999999978	1_sub-pilot028_SVR_EEG_block3-4.protocol.csv	step37	5415	538.009	STIMULATE	46.6	46.6	46.7	46.7	46.7	37	1411.346
1405.408	0	702704	40/Hi	7	3	0	3	0	1.0	0.0	1.0	0.0						1556.0653983000666	1562.246317400015	1562.246317400015	6.0	['6', 'return']	[2.4375665000407025, 3.9827097000088543]	6.18	5.3	1.0	40hz	high_pain	46.7			sub-028	250	28	45.1	46.7	COM11	COM15	COM3	2024-03-28_10h08.57.905	001-EEG_SVR_Officel	2022.2.5	146.47271737383065		5.305999999999813	1_sub-pilot028_SVR_EEG_block3-4.protocol.csv	step37	5415	538.009	STIMULATE	46.6	46.6	46.7	46.7	46.7	37	1411.346
1416.36	0	708180	wait	20	3	0	3	0	2.0	0.0	2.0	0.0						1579.248363199993	1585.930227600038	1585.930227600038	4.0	['4', 'return']	[2.74756950000301, 3.410674100043252]	6.67	6.26	2.0	20hz	low_pain	45.1			sub-028	250	28	45.1	46.7	COM11	COM15	COM3	2024-03-28_10h08.57.905	001-EEG_SVR_Officel	2022.2.5	146.47271737383065		11.701999999999998	1_sub-pilot028_SVR_EEG_block3-4.protocol.csv	step39	5664	562.629	STIMULATE	45.1	45.0	45.0	45.0	45.0	39	1435.966
1423.032	0	711516	20hz	6	3	0	3	0	2.0	0.0	2.0	0.0						1579.248363199993	1585.930227600038	1585.930227600038	4.0	['4', 'return']	[2.74756950000301, 3.410674100043252]	6.67	6.26	2.0	20hz	low_pain	45.1			sub-028	250	28	45.1	46.7	COM11	COM15	COM3	2024-03-28_10h08.57.905	001-EEG_SVR_Officel	2022.2.5	146.47271737383065		6.6720000000000255	1_sub-pilot028_SVR_EEG_block3-4.protocol.csv	step39	5664	562.629	STIMULATE	45.1	45.0	45.0	45.0	45.0	39	1435.966
1430.042	0	715021	20/Lo	5	3	0	3	0	2.0	0.0	2.0	0.0						1579.248363199993	1585.930227600038	1585.930227600038	4.0	['4', 'return']	[2.74756950000301, 3.410674100043252]	6.67	6.26	2.0	20hz	low_pain	45.1			sub-028	250	28	45.1	46.7	COM11	COM15	COM3	2024-03-28_10h08.57.905	001-EEG_SVR_Officel	2022.2.5	146.47271737383065		6.259999999999991	1_sub-pilot028_SVR_EEG_block3-4.protocol.csv	step39	5664	562.629	STIMULATE	45.1	45.0	45.0	45.0	45.0	39	1435.966
1439.474	0	719737	wait	20	3	0	3	0	3.0	0.0	3.0	0.0						1602.362150400062	1608.627343900036	1608.627343900036	7.0	['7', 'return']	[2.8979112999513745, 3.3938916999613866]	6.26	5.57	3.0	20hz	high_pain	46.7			sub-028	250	28	45.1	46.7	COM11	COM15	COM3	2024-03-28_10h08.57.905	001-EEG_SVR_Officel	2022.2.5	146.47271737383065		10.182000000000016	1_sub-pilot028_SVR_EEG_block3-4.protocol.csv	step41	5885	584.597	STIMULATE	46.7	46.7	46.6	46.7	46.7	41	1457.934
1445.734	0	722867	20hz	6	3	0	3	0	3.0	0.0	3.0	0.0						1602.362150400062	1608.627343900036	1608.627343900036	7.0	['7', 'return']	[2.8979112999513745, 3.3938916999613866]	6.26	5.57	3.0	20hz	high_pain	46.7			sub-028	250	28	45.1	46.7	COM11	COM15	COM3	2024-03-28_10h08.57.905	001-EEG_SVR_Officel	2022.2.5	146.47271737383065		6.259999999999991	1_sub-pilot028_SVR_EEG_block3-4.protocol.csv	step41	5885	584.597	STIMULATE	46.7	46.7	46.6	46.7	46.7	41	1457.934
1452.052	0	726026	20/Hi	4	3	0	3	0	3.0	0.0	3.0	0.0						1602.362150400062	1608.627343900036	1608.627343900036	7.0	['7', 'return']	[2.8979112999513745, 3.3938916999613866]	6.26	5.57	3.0	20hz	high_pain	46.7			sub-028	250	28	45.1	46.7	COM11	COM15	COM3	2024-03-28_10h08.57.905	001-EEG_SVR_Officel	2022.2.5	146.47271737383065		5.567999999999984	1_sub-pilot028_SVR_EEG_block3-4.protocol.csv	step41	5885	584.597	STIMULATE	46.7	46.7	46.6	46.7	46.7	41	1457.934
1462.15	0	731075	wait	20	3	0	3	0	4.0	0.0	4.0	0.0						1625.0384083000245	1632.219735700055	1632.219735700055	3.0	['3', 'return']	[2.9528047998901457, 3.584594399901107]	7.18	6.04	0.0	40hz	low_pain	45.1			sub-028	250	28	45.1	46.7	COM11	COM15	COM3	2024-03-28_10h08.57.905	001-EEG_SVR_Officel	2022.2.5	146.47271737383065		10.848000000000184	1_sub-pilot028_SVR_EEG_block3-4.protocol.csv	step43	6129	608.712	STIMULATE	45.0	45.0	45.0	45.0	45.1	43	1482.049
1469.326	0	734663	40hz	9	3	0	3	0	4.0	0.0	4.0	0.0						1625.0384083000245	1632.219735700055	1632.219735700055	3.0	['3', 'return']	[2.9528047998901457, 3.584594399901107]	7.18	6.04	0.0	40hz	low_pain	45.1			sub-028	250	28	45.1	46.7	COM11	COM15	COM3	2024-03-28_10h08.57.905	001-EEG_SVR_Officel	2022.2.5	146.47271737383065		7.175999999999931	1_sub-pilot028_SVR_EEG_block3-4.protocol.csv	step43	6129	608.712	STIMULATE	45.0	45.0	45.0	45.0	45.1	43	1482.049
1476.116	0	738058	40/Lo	8	3	0	3	0	4.0	0.0	4.0	0.0						1625.0384083000245	1632.219735700055	1632.219735700055	3.0	['3', 'return']	[2.9528047998901457, 3.584594399901107]	7.18	6.04	0.0	40hz	low_pain	45.1			sub-028	250	28	45.1	46.7	COM11	COM15	COM3	2024-03-28_10h08.57.905	001-EEG_SVR_Officel	2022.2.5	146.47271737383065		6.039999999999964	1_sub-pilot028_SVR_EEG_block3-4.protocol.csv	step43	6129	608.712	STIMULATE	45.0	45.0	45.0	45.0	45.1	43	1482.049
1485.936	0	742968	wait	20	3	0	3	0	5.0	0.0	5.0	0.0						1648.8259702000069	1655.640433200053	1655.640433200053	6.5	['6', 'a', '5', 'return']	[3.2617754999082536, 3.5651828999398276, 3.797585899941623, 4.485837699961849]	6.81	6.18	1.0	controle	high_pain	46.7			sub-028	250	28	45.1	46.7	COM11	COM15	COM3	2024-03-28_10h08.57.905	001-EEG_SVR_Officel	2022.2.5	146.47271737383065		10.569999999999936	1_sub-pilot028_SVR_EEG_block3-4.protocol.csv	step45	6366	632.258	STIMULATE	46.7	46.7	46.7	46.7	46.7	45	1505.595
1492.746	0	746373	CNhz	12	3	0	3	0	5.0	0.0	5.0	0.0						1648.8259702000069	1655.640433200053	1655.640433200053	6.5	['6', 'a', '5', 'return']	[3.2617754999082536, 3.5651828999398276, 3.797585899941623, 4.485837699961849]	6.81	6.18	1.0	controle	high_pain	46.7			sub-028	250	28	45.1	46.7	COM11	COM15	COM3	2024-03-28_10h08.57.905	001-EEG_SVR_Officel	2022.2.5	146.47271737383065		6.810000000000173	1_sub-pilot028_SVR_EEG_block3-4.protocol.csv	step45	6366	632.258	STIMULATE	46.7	46.7	46.7	46.7	46.7	45	1505.595
1499.676	0	749838	CN/Hi	10	3	0	3	0	5.0	0.0	5.0	0.0						1648.8259702000069	1655.640433200053	1655.640433200053	6.5	['6', 'a', '5', 'return']	[3.2617754999082536, 3.5651828999398276, 3.797585899941623, 4.485837699961849]	6.81	6.18	1.0	controle	high_pain	46.7			sub-028	250	28	45.1	46.7	COM11	COM15	COM3	2024-03-28_10h08.57.905	001-EEG_SVR_Officel	2022.2.5	146.47271737383065		6.179999999999836	1_sub-pilot028_SVR_EEG_block3-4.protocol.csv	step45	6366	632.258	STIMULATE	46.7	46.7	46.7	46.7	46.7	45	1505.595
1510.254	0	755127	wait	20	3	0	3	0	6.0	0.0	6.0	0.0						1673.141686600051	1681.066295400029	1681.066295400029	5.0	['5', 'return']	[2.939837299985811, 3.5221163999522105]	7.92	5.01	2.0	10hz	low_pain	45.1			sub-028	250	28	45.1	46.7	COM11	COM15	COM3	2024-03-28_10h08.57.905	001-EEG_SVR_Officel	2022.2.5	146.47271737383065		11.327999999999975	1_sub-pilot028_SVR_EEG_block3-4.protocol.csv	step47	6611	656.537	STIMULATE	45.0	45.0	45.0	45.0	45.1	47	1529.874
1518.172	0	759086	10hz	3	3	0	3	0	6.0	0.0	6.0	0.0						1673.141686600051	1681.066295400029	1681.066295400029	5.0	['5', 'return']	[2.939837299985811, 3.5221163999522105]	7.92	5.01	2.0	10hz	low_pain	45.1			sub-028	250	28	45.1	46.7	COM11	COM15	COM3	2024-03-28_10h08.57.905	001-EEG_SVR_Officel	2022.2.5	146.47271737383065		7.91800000000012	1_sub-pilot028_SVR_EEG_block3-4.protocol.csv	step47	6611	656.537	STIMULATE	45.0	45.0	45.0	45.0	45.1	47	1529.874
1523.934	0	761967	10/Lo	2	3	0	3	0	6.0	0.0	6.0	0.0						1673.141686600051	1681.066295400029	1681.066295400029	5.0	['5', 'return']	[2.939837299985811, 3.5221163999522105]	7.92	5.01	2.0	10hz	low_pain	45.1			sub-028	250	28	45.1	46.7	COM11	COM15	COM3	2024-03-28_10h08.57.905	001-EEG_SVR_Officel	2022.2.5	146.47271737383065		5.011999999999944	1_sub-pilot028_SVR_EEG_block3-4.protocol.csv	step47	6611	656.537	STIMULATE	45.0	45.0	45.0	45.0	45.1	47	1529.874
1534.72	0	767360	wait	20	3	0	3	0	7.0	0.0	7.0	0.0						1697.6095343000488	1703.0556798999896	1703.0556798999896	3.5	['3', 'a', '5', 'return']	[2.894136100076139, 3.1340124000562355, 3.3739606000017375, 3.981575299985707]	5.44	5.86	3.0	controle	low_pain	45.1			sub-028	250	28	45.1	46.7	COM11	COM15	COM3	2024-03-28_10h08.57.905	001-EEG_SVR_Officel	2022.2.5	146.47271737383065		11.536000000000058	1_sub-pilot028_SVR_EEG_block3-4.protocol.csv	step49	6841	679.386	STIMULATE	45.2	45.0	45.0	45.1	45.1	49	1552.723
1540.16	0	770080	CNhz	12	3	0	3	0	7.0	0.0	7.0	0.0						1697.6095343000488	1703.0556798999896	1703.0556798999896	3.5	['3', 'a', '5', 'return']	[2.894136100076139, 3.1340124000562355, 3.3739606000017375, 3.981575299985707]	5.44	5.86	3.0	controle	low_pain	45.1			sub-028	250	28	45.1	46.7	COM11	COM15	COM3	2024-03-28_10h08.57.905	001-EEG_SVR_Officel	2022.2.5	146.47271737383065		5.440000000000055	1_sub-pilot028_SVR_EEG_block3-4.protocol.csv	step49	6841	679.386	STIMULATE	45.2	45.0	45.0	45.1	45.1	49	1552.723
1546.77	0	773385	CN/Lo	11	3	0	3	0	7.0	0.0	7.0	0.0						1697.6095343000488	1703.0556798999896	1703.0556798999896	3.5	['3', 'a', '5', 'return']	[2.894136100076139, 3.1340124000562355, 3.3739606000017375, 3.981575299985707]	5.44	5.86	3.0	controle	low_pain	45.1			sub-028	250	28	45.1	46.7	COM11	COM15	COM3	2024-03-28_10h08.57.905	001-EEG_SVR_Officel	2022.2.5	146.47271737383065		5.8599999999999	1_sub-pilot028_SVR_EEG_block3-4.protocol.csv	step49	6841	679.386	STIMULATE	45.2	45.0	45.0	45.1	45.1	49	1552.723
1557.166	0	778583	wait	20	3	0	3	0	8.0	0.0	8.0	0.0						1720.056458099978	1726.5920566000275	1726.5920566000275	8.0	['8', 'return']	[3.1642316000070423, 4.340357100008987]	6.53	5.6	0.0	40hz	high_pain	46.7			sub-028	250	28	45.1	46.7	COM11	COM15	COM3	2024-03-28_10h08.57.905	001-EEG_SVR_Officel	2022.2.5	146.47271737383065		11.145999999999958	1_sub-pilot028_SVR_EEG_block3-4.protocol.csv	step51	7076	702.695	STIMULATE	46.7	46.6	46.7	46.7	46.7	51	1576.0320000000002
1563.698	0	781849	40hz	9	3	0	3	0	8.0	0.0	8.0	0.0						1720.056458099978	1726.5920566000275	1726.5920566000275	8.0	['8', 'return']	[3.1642316000070423, 4.340357100008987]	6.53	5.6	0.0	40hz	high_pain	46.7			sub-028	250	28	45.1	46.7	COM11	COM15	COM3	2024-03-28_10h08.57.905	001-EEG_SVR_Officel	2022.2.5	146.47271737383065		6.532000000000153	1_sub-pilot028_SVR_EEG_block3-4.protocol.csv	step51	7076	702.695	STIMULATE	46.7	46.6	46.7	46.7	46.7	51	1576.0320000000002
1570.052	0	785026	40/Hi	7	3	0	3	0	8.0	0.0	8.0	0.0						1720.056458099978	1726.5920566000275	1726.5920566000275	8.0	['8', 'return']	[3.1642316000070423, 4.340357100008987]	6.53	5.6	0.0	40hz	high_pain	46.7			sub-028	250	28	45.1	46.7	COM11	COM15	COM3	2024-03-28_10h08.57.905	001-EEG_SVR_Officel	2022.2.5	146.47271737383065		5.6039999999998145	1_sub-pilot028_SVR_EEG_block3-4.protocol.csv	step51	7076	702.695	STIMULATE	46.7	46.6	46.7	46.7	46.7	51	1576.0320000000002
1581.058	0	790529	wait	20	3	0	3	0	9.0	0.0	9.0	0.0						1743.9483477000613	1751.4282067000167	1751.4282067000167	5.0	['5', 'return']	[2.639652300043963, 3.671821300056763]	7.48	5.12	1.0	controle	low_pain	45.1			sub-028	250	28	45.1	46.7	COM11	COM15	COM3	2024-03-28_10h08.57.905	001-EEG_SVR_Officel	2022.2.5	146.47271737383065		11.756000000000085	1_sub-pilot028_SVR_EEG_block3-4.protocol.csv	step53	7321	726.919	STIMULATE	45.1	45.0	45.0	45.0	45.0	53	1600.2559999999999
1588.534	0	794267	CNhz	12	3	0	3	0	9.0	0.0	9.0	0.0						1743.9483477000613	1751.4282067000167	1751.4282067000167	5.0	['5', 'return']	[2.639652300043963, 3.671821300056763]	7.48	5.12	1.0	controle	low_pain	45.1			sub-028	250	28	45.1	46.7	COM11	COM15	COM3	2024-03-28_10h08.57.905	001-EEG_SVR_Officel	2022.2.5	146.47271737383065		7.476000000000113	1_sub-pilot028_SVR_EEG_block3-4.protocol.csv	step53	7321	726.919	STIMULATE	45.1	45.0	45.0	45.0	45.0	53	1600.2559999999999
1594.408	0	797204	CN/Lo	11	3	0	3	0	9.0	0.0	9.0	0.0						1743.9483477000613	1751.4282067000167	1751.4282067000167	5.0	['5', 'return']	[2.639652300043963, 3.671821300056763]	7.48	5.12	1.0	controle	low_pain	45.1			sub-028	250	28	45.1	46.7	COM11	COM15	COM3	2024-03-28_10h08.57.905	001-EEG_SVR_Officel	2022.2.5	146.47271737383065		5.123999999999796	1_sub-pilot028_SVR_EEG_block3-4.protocol.csv	step53	7321	726.919	STIMULATE	45.1	45.0	45.0	45.0	45.0	53	1600.2559999999999
1605.228	0	802614	wait	20	3	0	3	0	10.0	0.0	10.0	0.0						1768.117731000064	1774.744268600014	1774.744268600014	7.0	['7', 'return']	[2.6685956999426708, 3.197135700029321]	6.62	5.9	2.0	40hz	high_pain	46.7			sub-028	250	28	45.1	46.7	COM11	COM15	COM3	2024-03-28_10h08.57.905	001-EEG_SVR_Officel	2022.2.5	146.47271737383065		11.570000000000164	1_sub-pilot028_SVR_EEG_block3-4.protocol.csv	step55	7563	751.047	STIMULATE	46.7	46.7	46.7	46.7	46.7	55	1624.384
1611.85	0	805925	40hz	9	3	0	3	0	10.0	0.0	10.0	0.0						1768.117731000064	1774.744268600014	1774.744268600014	7.0	['7', 'return']	[2.6685956999426708, 3.197135700029321]	6.62	5.9	2.0	40hz	high_pain	46.7			sub-028	250	28	45.1	46.7	COM11	COM15	COM3	2024-03-28_10h08.57.905	001-EEG_SVR_Officel	2022.2.5	146.47271737383065		6.621999999999844	1_sub-pilot028_SVR_EEG_block3-4.protocol.csv	step55	7563	751.047	STIMULATE	46.7	46.7	46.7	46.7	46.7	55	1624.384
1618.502	0	809251	40/Hi	7	3	0	3	0	10.0	0.0	10.0	0.0						1768.117731000064	1774.744268600014	1774.744268600014	7.0	['7', 'return']	[2.6685956999426708, 3.197135700029321]	6.62	5.9	2.0	40hz	high_pain	46.7			sub-028	250	28	45.1	46.7	COM11	COM15	COM3	2024-03-28_10h08.57.905	001-EEG_SVR_Officel	2022.2.5	146.47271737383065		5.902000000000044	1_sub-pilot028_SVR_EEG_block3-4.protocol.csv	step55	7563	751.047	STIMULATE	46.7	46.7	46.7	46.7	46.7	55	1624.384
1628.072	0	814036	wait	20	3	0	3	0	11.0	0.0	11.0	0.0						1790.960794200073	1797.5863095000386	1797.5863095000386	8.0	['8', 'return']	[2.4901356999762356, 3.050012500025332]	6.62	5.28	3.0	controle	high_pain	46.7			sub-028	250	28	45.1	46.7	COM11	COM15	COM3	2024-03-28_10h08.57.905	001-EEG_SVR_Officel	2022.2.5	146.47271737383065		10.319999999999936	1_sub-pilot028_SVR_EEG_block3-4.protocol.csv	step57	7786	773.389	STIMULATE	46.7	46.7	46.7	46.6	46.6	57	1646.726
1634.692	0	817346	CNhz	12	3	0	3	0	11.0	0.0	11.0	0.0						1790.960794200073	1797.5863095000386	1797.5863095000386	8.0	['8', 'return']	[2.4901356999762356, 3.050012500025332]	6.62	5.28	3.0	controle	high_pain	46.7			sub-028	250	28	45.1	46.7	COM11	COM15	COM3	2024-03-28_10h08.57.905	001-EEG_SVR_Officel	2022.2.5	146.47271737383065		6.620000000000118	1_sub-pilot028_SVR_EEG_block3-4.protocol.csv	step57	7786	773.389	STIMULATE	46.7	46.7	46.7	46.6	46.6	57	1646.726
1640.726	0	820363	CN/Hi	10	3	0	3	0	11.0	0.0	11.0	0.0						1790.960794200073	1797.5863095000386	1797.5863095000386	8.0	['8', 'return']	[2.4901356999762356, 3.050012500025332]	6.62	5.28	3.0	controle	high_pain	46.7			sub-028	250	28	45.1	46.7	COM11	COM15	COM3	2024-03-28_10h08.57.905	001-EEG_SVR_Officel	2022.2.5	146.47271737383065		5.2840000000001055	1_sub-pilot028_SVR_EEG_block3-4.protocol.csv	step57	7786	773.389	STIMULATE	46.7	46.7	46.7	46.6	46.6	57	1646.726
1650.768	0	825384	wait	20	3	0	3	0	12.0	0.0	12.0	0.0						1813.657777799992	1821.4999248000092	1821.4999248000092	8.5	['8', 'a', '5', 'return']	[2.2891019000671804, 2.6414336999878287, 2.905619000084698, 3.681514700059779]	7.84	5.22	0.0	10hz	high_pain	46.7			sub-028	250	28	45.1	46.7	COM11	COM15	COM3	2024-03-28_10h08.57.905	001-EEG_SVR_Officel	2022.2.5	146.47271737383065		10.791999999999916	1_sub-pilot028_SVR_EEG_block3-4.protocol.csv	step59	8018	797.155	STIMULATE	46.7	46.6	46.6	46.7	46.7	59	1670.492
1658.606	0	829303	10hz	3	3	0	3	0	12.0	0.0	12.0	0.0						1813.657777799992	1821.4999248000092	1821.4999248000092	8.5	['8', 'a', '5', 'return']	[2.2891019000671804, 2.6414336999878287, 2.905619000084698, 3.681514700059779]	7.84	5.22	0.0	10hz	high_pain	46.7			sub-028	250	28	45.1	46.7	COM11	COM15	COM3	2024-03-28_10h08.57.905	001-EEG_SVR_Officel	2022.2.5	146.47271737383065		7.837999999999965	1_sub-pilot028_SVR_EEG_block3-4.protocol.csv	step59	8018	797.155	STIMULATE	46.7	46.6	46.6	46.7	46.7	59	1670.492
1664.574	0	832287	10/Hi	1	3	0	3	0	12.0	0.0	12.0	0.0						1813.657777799992	1821.4999248000092	1821.4999248000092	8.5	['8', 'a', '5', 'return']	[2.2891019000671804, 2.6414336999878287, 2.905619000084698, 3.681514700059779]	7.84	5.22	0.0	10hz	high_pain	46.7			sub-028	250	28	45.1	46.7	COM11	COM15	COM3	2024-03-28_10h08.57.905	001-EEG_SVR_Officel	2022.2.5	146.47271737383065		5.218000000000075	1_sub-pilot028_SVR_EEG_block3-4.protocol.csv	step59	8018	797.155	STIMULATE	46.7	46.6	46.6	46.7	46.7	59	1670.492
1675.306	0	837653	wait	20	3	0	3	0	13.0	0.0	13.0	0.0						1838.195850700024	1844.967404099996	1844.967404099996	6.5	['6', 'a', '5', 'return']	[2.389503699960187, 2.589105200022459, 2.7824215000728145, 3.5427663000300527]	6.77	5.79	1.0	20hz	low_pain	45.1			sub-028	250	28	45.1	46.7	COM11	COM15	COM3	2024-03-28_10h08.57.905	001-EEG_SVR_Officel	2022.2.5	146.47271737383065		11.481999999999971	1_sub-pilot028_SVR_EEG_block3-4.protocol.csv	step61	8249	821.221	STIMULATE	45.1	45.0	45.0	45.0	45.1	61	1694.558
1682.072	0	841036	20hz	6	3	0	3	0	13.0	0.0	13.0	0.0						1838.195850700024	1844.967404099996	1844.967404099996	6.5	['6', 'a', '5', 'return']	[2.389503699960187, 2.589105200022459, 2.7824215000728145, 3.5427663000300527]	6.77	5.79	1.0	20hz	low_pain	45.1			sub-028	250	28	45.1	46.7	COM11	COM15	COM3	2024-03-28_10h08.57.905	001-EEG_SVR_Officel	2022.2.5	146.47271737383065		6.765999999999849	1_sub-pilot028_SVR_EEG_block3-4.protocol.csv	step61	8249	821.221	STIMULATE	45.1	45.0	45.0	45.0	45.1	61	1694.558
1688.612	0	844306	20/Lo	5	3	0	3	0	13.0	0.0	13.0	0.0						1838.195850700024	1844.967404099996	1844.967404099996	6.5	['6', 'a', '5', 'return']	[2.389503699960187, 2.589105200022459, 2.7824215000728145, 3.5427663000300527]	6.77	5.79	1.0	20hz	low_pain	45.1			sub-028	250	28	45.1	46.7	COM11	COM15	COM3	2024-03-28_10h08.57.905	001-EEG_SVR_Officel	2022.2.5	146.47271737383065		5.790000000000191	1_sub-pilot028_SVR_EEG_block3-4.protocol.csv	step61	8249	821.221	STIMULATE	45.1	45.0	45.0	45.0	45.1	61	1694.558
1698.642	0	849321	wait	20	3	0	3	0	14.0	0.0	14.0	0.0						1861.5315762000391	1867.567020400078	1867.567020400078	5.0	['5', 'return']	[2.6374959000386298, 3.173017399967648]	6.03	5.46	2.0	40hz	low_pain	45.1			sub-028	250	28	45.1	46.7	COM11	COM15	COM3	2024-03-28_10h08.57.905	001-EEG_SVR_Officel	2022.2.5	146.47271737383065		10.779999999999973	1_sub-pilot028_SVR_EEG_block3-4.protocol.csv	step63	8461	843.478	STIMULATE	45.1	45.0	45.0	45.0	45.1	63	1716.815
1704.672	0	852336	40hz	9	3	0	3	0	14.0	0.0	14.0	0.0						1861.5315762000391	1867.567020400078	1867.567020400078	5.0	['5', 'return']	[2.6374959000386298, 3.173017399967648]	6.03	5.46	2.0	40hz	low_pain	45.1			sub-028	250	28	45.1	46.7	COM11	COM15	COM3	2024-03-28_10h08.57.905	001-EEG_SVR_Officel	2022.2.5	146.47271737383065		6.029999999999973	1_sub-pilot028_SVR_EEG_block3-4.protocol.csv	step63	8461	843.478	STIMULATE	45.1	45.0	45.0	45.0	45.1	63	1716.815
1710.886	0	855443	40/Lo	8	3	0	3	0	14.0	0.0	14.0	0.0						1861.5315762000391	1867.567020400078	1867.567020400078	5.0	['5', 'return']	[2.6374959000386298, 3.173017399967648]	6.03	5.46	2.0	40hz	low_pain	45.1			sub-028	250	28	45.1	46.7	COM11	COM15	COM3	2024-03-28_10h08.57.905	001-EEG_SVR_Officel	2022.2.5	146.47271737383065		5.463999999999942	1_sub-pilot028_SVR_EEG_block3-4.protocol.csv	step63	8461	843.478	STIMULATE	45.1	45.0	45.0	45.0	45.1	63	1716.815
1720.866	0	860433	wait	20	3	0	3	0	15.0	0.0	15.0	0.0						1883.7563773000147	1890.4320929000387	1890.4320929000387	8.5	['8', 'a', '5', 'return']	[2.8456158000044525, 3.325538899982348, 3.5977513999678195, 4.278323999955319]	6.67	6.13	3.0	10hz	high_pain	46.7			sub-028	250	28	45.1	46.7	COM11	COM15	COM3	2024-03-28_10h08.57.905	001-EEG_SVR_Officel	2022.2.5	146.47271737383065		10.730000000000018	1_sub-pilot028_SVR_EEG_block3-4.protocol.csv	step65	8683	866.97	STIMULATE	46.8	46.7	46.7	46.7	46.7	65	1740.307
1727.536	0	863768	10hz	3	3	0	3	0	15.0	0.0	15.0	0.0						1883.7563773000147	1890.4320929000387	1890.4320929000387	8.5	['8', 'a', '5', 'return']	[2.8456158000044525, 3.325538899982348, 3.5977513999678195, 4.278323999955319]	6.67	6.13	3.0	10hz	high_pain	46.7			sub-028	250	28	45.1	46.7	COM11	COM15	COM3	2024-03-28_10h08.57.905	001-EEG_SVR_Officel	2022.2.5	146.47271737383065		6.670000000000073	1_sub-pilot028_SVR_EEG_block3-4.protocol.csv	step65	8683	866.97	STIMULATE	46.8	46.7	46.7	46.7	46.7	65	1740.307
1734.416	0	867208	10/Hi	1	3	0	3	0	15.0	0.0	15.0	0.0						1883.7563773000147	1890.4320929000387	1890.4320929000387	8.5	['8', 'a', '5', 'return']	[2.8456158000044525, 3.325538899982348, 3.5977513999678195, 4.278323999955319]	6.67	6.13	3.0	10hz	high_pain	46.7			sub-028	250	28	45.1	46.7	COM11	COM15	COM3	2024-03-28_10h08.57.905	001-EEG_SVR_Officel	2022.2.5	146.47271737383065		6.129999999999882	1_sub-pilot028_SVR_EEG_block3-4.protocol.csv	step65	8683	866.97	STIMULATE	46.8	46.7	46.7	46.7	46.7	65	1740.307
1873.148	0	936574	wait	20	4	0	4	0	0.0	0.0	0.0	0.0				p	3.131339400075376	2036.038308700081	2041.37916900008	2041.37916900008	8.0	['8', 'return']	[2.392798400018364, 3.0261688999598846]	5.34	5.89	0.0	20hz	high_pain	46.7			sub-028	250	28	45.1	46.7	COM11	COM15	COM3	2024-03-28_10h08.57.905	001-EEG_SVR_Officel	2022.2.5	146.47271737383065		139.48199999999997	2_sub-pilot028_SVR_EEG_block5-6.protocol.csv	step3	1398	139.629	STIMULATE	46.9	46.7	46.6	46.7	46.7	3	1890.9959999999999
1878.484	0	939242	20hz	6	4	0	4	0	0.0	0.0	0.0	0.0				p	3.131339400075376	2036.038308700081	2041.37916900008	2041.37916900008	8.0	['8', 'return']	[2.392798400018364, 3.0261688999598846]	5.34	5.89	0.0	20hz	high_pain	46.7			sub-028	250	28	45.1	46.7	COM11	COM15	COM3	2024-03-28_10h08.57.905	001-EEG_SVR_Officel	2022.2.5	146.47271737383065		5.336000000000013	2_sub-pilot028_SVR_EEG_block5-6.protocol.csv	step3	1398	139.629	STIMULATE	46.9	46.7	46.6	46.7	46.7	3	1890.9959999999999
1885.128	0	942564	20/Hi	4	4	0	4	0	0.0	0.0	0.0	0.0				p	3.131339400075376	2036.038308700081	2041.37916900008	2041.37916900008	8.0	['8', 'return']	[2.392798400018364, 3.0261688999598846]	5.34	5.89	0.0	20hz	high_pain	46.7			sub-028	250	28	45.1	46.7	COM11	COM15	COM3	2024-03-28_10h08.57.905	001-EEG_SVR_Officel	2022.2.5	146.47271737383065		5.8940000000000055	2_sub-pilot028_SVR_EEG_block5-6.protocol.csv	step3	1398	139.629	STIMULATE	46.9	46.7	46.6	46.7	46.7	3	1890.9959999999999
1894.532	0	947266	wait	20	4	0	4	0	1.0	0.0	1.0	0.0						2057.422661000048	2064.1665110000176	2064.1665110000176	8.5	['8', 'a', '5', 'return']	[2.75775029999204, 3.1490553999319673, 3.349619699991308, 4.101742899976671]	6.74	5.14	1.0	10hz	high_pain	46.7			sub-028	250	28	45.1	46.7	COM11	COM15	COM3	2024-03-28_10h08.57.905	001-EEG_SVR_Officel	2022.2.5	146.47271737383065		10.153999999999996	2_sub-pilot028_SVR_EEG_block5-6.protocol.csv	step5	1620	161.609	STIMULATE	46.7	46.7	46.7	46.7	46.7	5	1912.9759999999999
1901.27	0	950635	10hz	3	4	0	4	0	1.0	0.0	1.0	0.0						2057.422661000048	2064.1665110000176	2064.1665110000176	8.5	['8', 'a', '5', 'return']	[2.75775029999204, 3.1490553999319673, 3.349619699991308, 4.101742899976671]	6.74	5.14	1.0	10hz	high_pain	46.7			sub-028	250	28	45.1	46.7	COM11	COM15	COM3	2024-03-28_10h08.57.905	001-EEG_SVR_Officel	2022.2.5	146.47271737383065		6.738000000000056	2_sub-pilot028_SVR_EEG_block5-6.protocol.csv	step5	1620	161.609	STIMULATE	46.7	46.7	46.7	46.7	46.7	5	1912.9759999999999
1907.164	0	953582	10/Hi	1	4	0	4	0	1.0	0.0	1.0	0.0						2057.422661000048	2064.1665110000176	2064.1665110000176	8.5	['8', 'a', '5', 'return']	[2.75775029999204, 3.1490553999319673, 3.349619699991308, 4.101742899976671]	6.74	5.14	1.0	10hz	high_pain	46.7			sub-028	250	28	45.1	46.7	COM11	COM15	COM3	2024-03-28_10h08.57.905	001-EEG_SVR_Officel	2022.2.5	146.47271737383065		5.1440000000000055	2_sub-pilot028_SVR_EEG_block5-6.protocol.csv	step5	1620	161.609	STIMULATE	46.7	46.7	46.7	46.7	46.7	5	1912.9759999999999
1918.394	0	959197	wait	20	4	0	4	0	2.0	0.0	2.0	0.0						2081.2870791000314	2087.217866000021	2087.217866000021	6.5	['6', 'a', '5', 'return']	[2.37902769993525, 2.5865593999624252, 2.8030088000232354, 3.8744459999725223]	5.93	6.32	2.0	40hz	low_pain	45.1			sub-028	250	28	45.1	46.7	COM11	COM15	COM3	2024-03-28_10h08.57.905	001-EEG_SVR_Officel	2022.2.5	146.47271737383065		11.980000000000018	2_sub-pilot028_SVR_EEG_block5-6.protocol.csv	step7	1865	185.92	STIMULATE	45.0	45.0	45.0	45.0	45.1	7	1937.2869999999998
1924.322	0	962161	40hz	9	4	0	4	0	2.0	0.0	2.0	0.0						2081.2870791000314	2087.217866000021	2087.217866000021	6.5	['6', 'a', '5', 'return']	[2.37902769993525, 2.5865593999624252, 2.8030088000232354, 3.8744459999725223]	5.93	6.32	2.0	40hz	low_pain	45.1			sub-028	250	28	45.1	46.7	COM11	COM15	COM3	2024-03-28_10h08.57.905	001-EEG_SVR_Officel	2022.2.5	146.47271737383065		5.927999999999884	2_sub-pilot028_SVR_EEG_block5-6.protocol.csv	step7	1865	185.92	STIMULATE	45.0	45.0	45.0	45.0	45.1	7	1937.2869999999998
1931.388	0	965694	40/Lo	8	4	0	4	0	2.0	0.0	2.0	0.0						2081.2870791000314	2087.217866000021	2087.217866000021	6.5	['6', 'a', '5', 'return']	[2.37902769993525, 2.5865593999624252, 2.8030088000232354, 3.8744459999725223]	5.93	6.32	2.0	40hz	low_pain	45.1			sub-028	250	28	45.1	46.7	COM11	COM15	COM3	2024-03-28_10h08.57.905	001-EEG_SVR_Officel	2022.2.5	146.47271737383065		6.316000000000031	2_sub-pilot028_SVR_EEG_block5-6.protocol.csv	step7	1865	185.92	STIMULATE	45.0	45.0	45.0	45.0	45.1	7	1937.2869999999998
1941.216	0	970608	wait	20	4	0	4	0	3.0	0.0	3.0	0.0						2104.10909500008	2110.992624900071	2110.992624900071	6.0	['6', 'return']	[3.7014153000200167, 4.332963100052439]	6.88	6.23	3.0	10hz	high_pain	46.7			sub-028	250	28	45.1	46.7	COM11	COM15	COM3	2024-03-28_10h08.57.905	001-EEG_SVR_Officel	2022.2.5	146.47271737383065		10.577999999999975	2_sub-pilot028_SVR_EEG_block5-6.protocol.csv	step9	2103	209.56	STIMULATE	46.7	46.6	46.7	46.7	46.7	9	1960.927
1948.096	0	974048	10hz	3	4	0	4	0	3.0	0.0	3.0	0.0						2104.10909500008	2110.992624900071	2110.992624900071	6.0	['6', 'return']	[3.7014153000200167, 4.332963100052439]	6.88	6.23	3.0	10hz	high_pain	46.7			sub-028	250	28	45.1	46.7	COM11	COM15	COM3	2024-03-28_10h08.57.905	001-EEG_SVR_Officel	2022.2.5	146.47271737383065		6.880000000000109	2_sub-pilot028_SVR_EEG_block5-6.protocol.csv	step9	2103	209.56	STIMULATE	46.7	46.6	46.7	46.7	46.7	9	1960.927
1955.08	0	977540	10/Hi	1	4	0	4	0	3.0	0.0	3.0	0.0						2104.10909500008	2110.992624900071	2110.992624900071	6.0	['6', 'return']	[3.7014153000200167, 4.332963100052439]	6.88	6.23	3.0	10hz	high_pain	46.7			sub-028	250	28	45.1	46.7	COM11	COM15	COM3	2024-03-28_10h08.57.905	001-EEG_SVR_Officel	2022.2.5	146.47271737383065		6.233999999999924	2_sub-pilot028_SVR_EEG_block5-6.protocol.csv	step9	2103	209.56	STIMULATE	46.7	46.6	46.7	46.7	46.7	9	1960.927
1965.448	0	982724	wait	20	4	0	4	0	4.0	0.0	4.0	0.0						2128.3410948000383	2134.6610109000467	2134.6610109000467	5.0	['5', 'return']	[2.4076332000549883, 3.727050599991344]	6.32	5.55	0.0	40hz	low_pain	45.1			sub-028	250	28	45.1	46.7	COM11	COM15	COM3	2024-03-28_10h08.57.905	001-EEG_SVR_Officel	2022.2.5	146.47271737383065		11.118000000000166	2_sub-pilot028_SVR_EEG_block5-6.protocol.csv	step11	2335	232.527	STIMULATE	45.1	45.0	45.0	45.0	45.1	11	1983.894
1971.764	0	985882	40hz	9	4	0	4	0	4.0	0.0	4.0	0.0						2128.3410948000383	2134.6610109000467	2134.6610109000467	5.0	['5', 'return']	[2.4076332000549883, 3.727050599991344]	6.32	5.55	0.0	40hz	low_pain	45.1			sub-028	250	28	45.1	46.7	COM11	COM15	COM3	2024-03-28_10h08.57.905	001-EEG_SVR_Officel	2022.2.5	146.47271737383065		6.3159999999998035	2_sub-pilot028_SVR_EEG_block5-6.protocol.csv	step11	2335	232.527	STIMULATE	45.1	45.0	45.0	45.0	45.1	11	1983.894
1978.066	0	989033	40/Lo	8	4	0	4	0	4.0	0.0	4.0	0.0						2128.3410948000383	2134.6610109000467	2134.6610109000467	5.0	['5', 'return']	[2.4076332000549883, 3.727050599991344]	6.32	5.55	0.0	40hz	low_pain	45.1			sub-028	250	28	45.1	46.7	COM11	COM15	COM3	2024-03-28_10h08.57.905	001-EEG_SVR_Officel	2022.2.5	146.47271737383065		5.552000000000135	2_sub-pilot028_SVR_EEG_block5-6.protocol.csv	step11	2335	232.527	STIMULATE	45.1	45.0	45.0	45.0	45.1	11	1983.894
1988.514	0	994257	wait	20	4	0	4	0	5.0	0.0	5.0	0.0						2151.405909000081	2157.885565000004	2157.885565000004	7.5	['7', 'a', '5', 'return']	[3.414639399969019, 3.85492409998551, 4.1758388000307605, 5.054957399959676]	6.48	5.91	1.0	20hz	high_pain	46.7			sub-028	250	28	45.1	46.7	COM11	COM15	COM3	2024-03-28_10h08.57.905	001-EEG_SVR_Officel	2022.2.5	146.47271737383065		11.197999999999865	2_sub-pilot028_SVR_EEG_block5-6.protocol.csv	step13	2573	256.149	STIMULATE	46.7	46.6	46.6	46.6	46.7	13	2007.5159999999998
1994.99	0	997495	20hz	6	4	0	4	0	5.0	0.0	5.0	0.0						2151.405909000081	2157.885565000004	2157.885565000004	7.5	['7', 'a', '5', 'return']	[3.414639399969019, 3.85492409998551, 4.1758388000307605, 5.054957399959676]	6.48	5.91	1.0	20hz	high_pain	46.7			sub-028	250	28	45.1	46.7	COM11	COM15	COM3	2024-03-28_10h08.57.905	001-EEG_SVR_Officel	2022.2.5	146.47271737383065		6.476000000000113	2_sub-pilot028_SVR_EEG_block5-6.protocol.csv	step13	2573	256.149	STIMULATE	46.7	46.6	46.6	46.6	46.7	13	2007.5159999999998
