onset	duration	sample	trial_type	distance_from_previous	block.thisRepN	block.thisTrialN	block.thisN	block.thisIndex	reps.thisRepN	reps.thisTrialN	reps.thisN	reps.thisIndex	afrec_start	rec_start	rec_start_egi	key_resp.keys	key_resp.rt	wait_time_text.started	wait_time_text.stopped	therm_loca_text.started	subResponse	keyResp.keys	keyResp.rt	ITI_wait	wait_trigger	loca_thermode	Hz_condition	temp_condition	temp_valeur	text.started	text.stopped	therm_loca_text.stopped	participant	brightness	num_part	low	high	com_svr	com_thermode	com_eeg	date	expName	psychopyVersion	frameRate	Unnamed: 40	trial	file	step	index	time	type	temp1	temp2	temp3	temp4	temp5	time_sync
12.334	0	6167	wait	12.129999999999999	0	0	0	0	0.0	0.0	0.0	0.0	74.75636240000313	74.55849470000248	1697809761.8667357	p	12.110479700000724	86.88841189999948	94.06846360000782	94.06846360000782	3.0	['3', 'return']	[3.4373389999964274, 4.1418893999943975]	7.18	5.35	0.0	40hz	low_pain	48.5				sub-pilot012	250	1	47	48.5	COM11	COM7	COM3	2023-10-20_09h49.16.361	001-EEG_SVR_Officel	2022.2.5	143.76553566198453		1	sub-pilot012_SVR_EEG_block1-3.protocol.csv	step3	759	75.741	STIMULATE	47.1	46.9	46.9	47.0	47.2	31.450000000000003
19.51	0	9755	40hz	7.174000000000001	0	0	0	0	0.0	0.0	0.0	0.0	74.75636240000313	74.55849470000248	1697809761.8667357	p	12.110479700000724	86.88841189999948	94.06846360000782	94.06846360000782	3.0	['3', 'return']	[3.4373389999964274, 4.1418893999943975]	7.18	5.35	0.0	40hz	low_pain	48.5				sub-pilot012	250	1	47	48.5	COM11	COM7	COM3	2023-10-20_09h49.16.361	001-EEG_SVR_Officel	2022.2.5	143.76553566198453		1	sub-pilot012_SVR_EEG_block1-3.protocol.csv	step3	759	75.741	STIMULATE	47.1	46.9	46.9	47.0	47.2	31.450000000000003
25.61	0	12805	40/Lo	5.210000000000001	0	0	0	0	0.0	0.0	0.0	0.0	74.75636240000313	74.55849470000248	1697809761.8667357	p	12.110479700000724	86.88841189999948	94.06846360000782	94.06846360000782	3.0	['3', 'return']	[3.4373389999964274, 4.1418893999943975]	7.18	5.35	0.0	40hz	low_pain	48.5				sub-pilot012	250	1	47	48.5	COM11	COM7	COM3	2023-10-20_09h49.16.361	001-EEG_SVR_Officel	2022.2.5	143.76553566198453		1	sub-pilot012_SVR_EEG_block1-3.protocol.csv	step3	759	75.741	STIMULATE	47.1	46.9	46.9	47.0	47.2	31.450000000000003
36.674	0	18337	wait	11.809999999999999	0	0	0	0	1.0	0.0	1.0	0.0						111.22949959999823	116.41405960000702	116.41405960000702	4.0	['4', 'return']	[3.263209500000812, 3.839492600003723]	5.18	5.46	1.0	20hz	high_pain	48.5				sub-pilot012	250	1	47	48.5	COM11	COM7	COM3	2023-10-20_09h49.16.361	001-EEG_SVR_Officel	2022.2.5	143.76553566198453		2	sub-pilot012_SVR_EEG_block1-3.protocol.csv	step5	985	98.121	STIMULATE	48.5	48.4	48.4	48.6	48.8	53.83
41.852	0	20926	20hz	5.1739999999999995	0	0	0	0	1.0	0.0	1.0	0.0						111.22949959999823	116.41405960000702	116.41405960000702	4.0	['4', 'return']	[3.263209500000812, 3.839492600003723]	5.18	5.46	1.0	20hz	high_pain	48.5				sub-pilot012	250	1	47	48.5	COM11	COM7	COM3	2023-10-20_09h49.16.361	001-EEG_SVR_Officel	2022.2.5	143.76553566198453		2	sub-pilot012_SVR_EEG_block1-3.protocol.csv	step5	985	98.121	STIMULATE	48.5	48.4	48.4	48.6	48.8	53.83
48.066	0	24033	20/Hi	5.322000000000003	0	0	0	0	1.0	0.0	1.0	0.0						111.22949959999823	116.41405960000702	116.41405960000702	4.0	['4', 'return']	[3.263209500000812, 3.839492600003723]	5.18	5.46	1.0	20hz	high_pain	48.5				sub-pilot012	250	1	47	48.5	COM11	COM7	COM3	2023-10-20_09h49.16.361	001-EEG_SVR_Officel	2022.2.5	143.76553566198453		2	sub-pilot012_SVR_EEG_block1-3.protocol.csv	step5	985	98.121	STIMULATE	48.5	48.4	48.4	48.6	48.8	53.83
58.712	0	29356	wait	11.394000000000005	0	0	0	0	2.0	0.0	2.0	0.0						133.26705170000787	139.96981999999844	139.96981999999844	3.0	['3', 'return']	[5.424458499997854, 6.184383600004367]	6.7	6.07	2.0	20hz	low_pain	48.5				sub-pilot012	250	1	47	48.5	COM11	COM7	COM3	2023-10-20_09h49.16.361	001-EEG_SVR_Officel	2022.2.5	143.76553566198453		3	sub-pilot012_SVR_EEG_block1-3.protocol.csv	step7	1229	122.34	STIMULATE	47.2	46.9	46.9	47.0	47.2	78.049
65.41	0	32705	20hz	6.695999999999998	0	0	0	0	2.0	0.0	2.0	0.0						133.26705170000787	139.96981999999844	139.96981999999844	3.0	['3', 'return']	[5.424458499997854, 6.184383600004367]	6.7	6.07	2.0	20hz	low_pain	48.5				sub-pilot012	250	1	47	48.5	COM11	COM7	COM3	2023-10-20_09h49.16.361	001-EEG_SVR_Officel	2022.2.5	143.76553566198453		3	sub-pilot012_SVR_EEG_block1-3.protocol.csv	step7	1229	122.34	STIMULATE	47.2	46.9	46.9	47.0	47.2	78.049
72.228	0	36114	20/Lo	5.925999999999988	0	0	0	0	2.0	0.0	2.0	0.0						133.26705170000787	139.96981999999844	139.96981999999844	3.0	['3', 'return']	[5.424458499997854, 6.184383600004367]	6.7	6.07	2.0	20hz	low_pain	48.5				sub-pilot012	250	1	47	48.5	COM11	COM7	COM3	2023-10-20_09h49.16.361	001-EEG_SVR_Officel	2022.2.5	143.76553566198453		3	sub-pilot012_SVR_EEG_block1-3.protocol.csv	step7	1229	122.34	STIMULATE	47.2	46.9	46.9	47.0	47.2	78.049
84.618	0	42309	wait	13.137999999999991	0	0	0	0	3.0	0.0	3.0	0.0						159.17284719999589	165.45997579999676	165.45997579999676	5.0	['5', 'return']	[3.6627558000036515, 4.287340399998357]	6.28	6.0	3.0	controle	high_pain	47.0				sub-pilot012	250	1	47	48.5	COM11	COM7	COM3	2023-10-20_09h49.16.361	001-EEG_SVR_Officel	2022.2.5	143.76553566198453		4	sub-pilot012_SVR_EEG_block1-3.protocol.csv	step9	1485	147.717	STIMULATE	48.5	48.4	48.4	48.4	48.5	103.42600000000002
90.9	0	45450	CNhz	6.280000000000001	0	0	0	0	3.0	0.0	3.0	0.0						159.17284719999589	165.45997579999676	165.45997579999676	5.0	['5', 'return']	[3.6627558000036515, 4.287340399998357]	6.28	6.0	3.0	controle	high_pain	47.0				sub-pilot012	250	1	47	48.5	COM11	COM7	COM3	2023-10-20_09h49.16.361	001-EEG_SVR_Officel	2022.2.5	143.76553566198453		4	sub-pilot012_SVR_EEG_block1-3.protocol.csv	step9	1485	147.717	STIMULATE	48.5	48.4	48.4	48.4	48.5	103.42600000000002
97.648	0	48824	CN/Hi	5.85799999999999	0	0	0	0	3.0	0.0	3.0	0.0						159.17284719999589	165.45997579999676	165.45997579999676	5.0	['5', 'return']	[3.6627558000036515, 4.287340399998357]	6.28	6.0	3.0	controle	high_pain	47.0				sub-pilot012	250	1	47	48.5	COM11	COM7	COM3	2023-10-20_09h49.16.361	001-EEG_SVR_Officel	2022.2.5	143.76553566198453		4	sub-pilot012_SVR_EEG_block1-3.protocol.csv	step9	1485	147.717	STIMULATE	48.5	48.4	48.4	48.4	48.5	103.42600000000002
108.212	0	54106	wait	11.311999999999998	0	0	0	0	4.0	0.0	4.0	0.0						182.76601020000817	188.9083447000012	188.9083447000012	5.5	['5', 'a', '5', 'return']	[4.375479900001665, 4.991538000002038, 5.3036546999937855, 5.983350900001824]	6.14	6.33	0.0	40hz	high_pain	47.0				sub-pilot012	250	1	47	48.5	COM11	COM7	COM3	2023-10-20_09h49.16.361	001-EEG_SVR_Officel	2022.2.5	143.76553566198453		5	sub-pilot012_SVR_EEG_block1-3.protocol.csv	step11	1725	171.522	STIMULATE	48.8	48.4	48.4	48.5	48.8	127.231
114.346	0	57173	40hz	6.132000000000005	0	0	0	0	4.0	0.0	4.0	0.0						182.76601020000817	188.9083447000012	188.9083447000012	5.5	['5', 'a', '5', 'return']	[4.375479900001665, 4.991538000002038, 5.3036546999937855, 5.983350900001824]	6.14	6.33	0.0	40hz	high_pain	47.0				sub-pilot012	250	1	47	48.5	COM11	COM7	COM3	2023-10-20_09h49.16.361	001-EEG_SVR_Officel	2022.2.5	143.76553566198453		5	sub-pilot012_SVR_EEG_block1-3.protocol.csv	step11	1725	171.522	STIMULATE	48.8	48.4	48.4	48.5	48.8	127.231
121.428	0	60714	40/Hi	6.189999999999998	0	0	0	0	4.0	0.0	4.0	0.0						182.76601020000817	188.9083447000012	188.9083447000012	5.5	['5', 'a', '5', 'return']	[4.375479900001665, 4.991538000002038, 5.3036546999937855, 5.983350900001824]	6.14	6.33	0.0	40hz	high_pain	47.0				sub-pilot012	250	1	47	48.5	COM11	COM7	COM3	2023-10-20_09h49.16.361	001-EEG_SVR_Officel	2022.2.5	143.76553566198453		5	sub-pilot012_SVR_EEG_block1-3.protocol.csv	step11	1725	171.522	STIMULATE	48.8	48.4	48.4	48.5	48.8	127.231
133.356	0	66678	wait	12.673999999999992	0	0	0	0	5.0	0.0	5.0	0.0						207.9105483000021	214.67409300000872	214.67409300000872	5.5	['5', 'a', '5', 'return']	[3.952602700010175, 4.264016100001754, 4.47252870000375, 5.256210100007593]	6.76	5.63	1.0	40hz	high_pain	48.5				sub-pilot012	250	1	47	48.5	COM11	COM7	COM3	2023-10-20_09h49.16.361	001-EEG_SVR_Officel	2022.2.5	143.76553566198453		6	sub-pilot012_SVR_EEG_block1-3.protocol.csv	step13	1978	196.612	STIMULATE	48.6	48.4	48.4	48.4	48.7	152.321
140.114	0	70057	40hz	6.756	0	0	0	0	5.0	0.0	5.0	0.0						207.9105483000021	214.67409300000872	214.67409300000872	5.5	['5', 'a', '5', 'return']	[3.952602700010175, 4.264016100001754, 4.47252870000375, 5.256210100007593]	6.76	5.63	1.0	40hz	high_pain	48.5				sub-pilot012	250	1	47	48.5	COM11	COM7	COM3	2023-10-20_09h49.16.361	001-EEG_SVR_Officel	2022.2.5	143.76553566198453		6	sub-pilot012_SVR_EEG_block1-3.protocol.csv	step13	1978	196.612	STIMULATE	48.6	48.4	48.4	48.4	48.7	152.321
146.494	0	73247	40/Hi	5.4879999999999995	0	0	0	0	5.0	0.0	5.0	0.0						207.9105483000021	214.67409300000872	214.67409300000872	5.5	['5', 'a', '5', 'return']	[3.952602700010175, 4.264016100001754, 4.47252870000375, 5.256210100007593]	6.76	5.63	1.0	40hz	high_pain	48.5				sub-pilot012	250	1	47	48.5	COM11	COM7	COM3	2023-10-20_09h49.16.361	001-EEG_SVR_Officel	2022.2.5	143.76553566198453		6	sub-pilot012_SVR_EEG_block1-3.protocol.csv	step13	1978	196.612	STIMULATE	48.6	48.4	48.4	48.4	48.7	152.321
158.392	0	79196	wait	12.645999999999987	0	0	0	0	6.0	0.0	6.0	0.0						232.94580889999636	239.23127889999887	239.23127889999887	3.5	['3', 'a', '5', 'return']	[4.841867099996307, 5.33003440000175, 5.642008099996019, 6.47435140000016]	6.28	5.54	2.0	controle	low_pain	48.5				sub-pilot012	250	1	47	48.5	COM11	COM7	COM3	2023-10-20_09h49.16.361	001-EEG_SVR_Officel	2022.2.5	143.76553566198453		7	sub-pilot012_SVR_EEG_block1-3.protocol.csv	step15	2225	221.136	STIMULATE	47.1	46.9	46.9	46.9	47.2	176.84500000000003
164.672	0	82336	CNhz	6.277999999999992	0	0	0	0	6.0	0.0	6.0	0.0						232.94580889999636	239.23127889999887	239.23127889999887	3.5	['3', 'a', '5', 'return']	[4.841867099996307, 5.33003440000175, 5.642008099996019, 6.47435140000016]	6.28	5.54	2.0	controle	low_pain	48.5				sub-pilot012	250	1	47	48.5	COM11	COM7	COM3	2023-10-20_09h49.16.361	001-EEG_SVR_Officel	2022.2.5	143.76553566198453		7	sub-pilot012_SVR_EEG_block1-3.protocol.csv	step15	2225	221.136	STIMULATE	47.1	46.9	46.9	46.9	47.2	176.84500000000003
170.962	0	85481	CN/Lo	5.397999999999996	0	0	0	0	6.0	0.0	6.0	0.0						232.94580889999636	239.23127889999887	239.23127889999887	3.5	['3', 'a', '5', 'return']	[4.841867099996307, 5.33003440000175, 5.642008099996019, 6.47435140000016]	6.28	5.54	2.0	controle	low_pain	48.5				sub-pilot012	250	1	47	48.5	COM11	COM7	COM3	2023-10-20_09h49.16.361	001-EEG_SVR_Officel	2022.2.5	143.76553566198453		7	sub-pilot012_SVR_EEG_block1-3.protocol.csv	step15	2225	221.136	STIMULATE	47.1	46.9	46.9	46.9	47.2	176.84500000000003
184.174	0	92087	wait	13.960000000000008	0	0	0	0	7.0	0.0	7.0	0.0						258.7292073999997	263.7357917000045	263.7357917000045	2.5	['2', 'a', '5', 'return']	[5.371514200000092, 5.786581599997589, 6.082632799996645, 6.923054600003525]	5.0	6.43	3.0	20hz	low_pain	47.0				sub-pilot012	250	1	47	48.5	COM11	COM7	COM3	2023-10-20_09h49.16.361	001-EEG_SVR_Officel	2022.2.5	143.76553566198453		8	sub-pilot012_SVR_EEG_block1-3.protocol.csv	step17	2480	246.478	STIMULATE	47.1	46.9	46.9	46.9	46.9	202.187
189.176	0	94588	20hz	5.0	0	0	0	0	7.0	0.0	7.0	0.0						258.7292073999997	263.7357917000045	263.7357917000045	2.5	['2', 'a', '5', 'return']	[5.371514200000092, 5.786581599997589, 6.082632799996645, 6.923054600003525]	5.0	6.43	3.0	20hz	low_pain	47.0				sub-pilot012	250	1	47	48.5	COM11	COM7	COM3	2023-10-20_09h49.16.361	001-EEG_SVR_Officel	2022.2.5	143.76553566198453		8	sub-pilot012_SVR_EEG_block1-3.protocol.csv	step17	2480	246.478	STIMULATE	47.1	46.9	46.9	46.9	46.9	202.187
196.354	0	98177	20/Lo	6.288000000000011	0	0	0	0	7.0	0.0	7.0	0.0						258.7292073999997	263.7357917000045	263.7357917000045	2.5	['2', 'a', '5', 'return']	[5.371514200000092, 5.786581599997589, 6.082632799996645, 6.923054600003525]	5.0	6.43	3.0	20hz	low_pain	47.0				sub-pilot012	250	1	47	48.5	COM11	COM7	COM3	2023-10-20_09h49.16.361	001-EEG_SVR_Officel	2022.2.5	143.76553566198453		8	sub-pilot012_SVR_EEG_block1-3.protocol.csv	step17	2480	246.478	STIMULATE	47.1	46.9	46.9	46.9	46.9	202.187
209.12	0	104560	wait	13.51400000000001	0	0	0	0	8.0	0.0	8.0	0.0						283.6745033000043	291.60655470000347	291.60655470000347	5.0	['5', 'return']	[5.067893500003265, 5.755535599993891]	7.93	6.33	0.0	20hz	high_pain	47.0				sub-pilot012	250	1	47	48.5	COM11	COM7	COM3	2023-10-20_09h49.16.361	001-EEG_SVR_Officel	2022.2.5	143.76553566198453		9	sub-pilot012_SVR_EEG_block1-3.protocol.csv	step19	2760	274.266	STIMULATE	48.7	48.4	48.4	48.5	48.8	229.97500000000002
217.046	0	108523	20hz	7.923999999999978	0	0	0	0	8.0	0.0	8.0	0.0						283.6745033000043	291.60655470000347	291.60655470000347	5.0	['5', 'return']	[5.067893500003265, 5.755535599993891]	7.93	6.33	0.0	20hz	high_pain	47.0				sub-pilot012	250	1	47	48.5	COM11	COM7	COM3	2023-10-20_09h49.16.361	001-EEG_SVR_Officel	2022.2.5	143.76553566198453		9	sub-pilot012_SVR_EEG_block1-3.protocol.csv	step19	2760	274.266	STIMULATE	48.7	48.4	48.4	48.5	48.8	229.97500000000002
224.128	0	112064	20/Hi	6.189999999999998	0	0	0	0	8.0	0.0	8.0	0.0						283.6745033000043	291.60655470000347	291.60655470000347	5.0	['5', 'return']	[5.067893500003265, 5.755535599993891]	7.93	6.33	0.0	20hz	high_pain	47.0				sub-pilot012	250	1	47	48.5	COM11	COM7	COM3	2023-10-20_09h49.16.361	001-EEG_SVR_Officel	2022.2.5	143.76553566198453		9	sub-pilot012_SVR_EEG_block1-3.protocol.csv	step19	2760	274.266	STIMULATE	48.7	48.4	48.4	48.5	48.8	229.97500000000002
235.824	0	117912	wait	12.444000000000017	0	0	0	0	9.0	0.0	9.0	0.0						310.3792727999971	316.4115960000054	316.4115960000054	3.0	['3', 'return']	[3.970883199988748, 4.75512639999215]	6.03	5.41	1.0	10hz	low_pain	48.5				sub-pilot012	250	1	47	48.5	COM11	COM7	COM3	2023-10-20_09h49.16.361	001-EEG_SVR_Officel	2022.2.5	143.76553566198453		10	sub-pilot012_SVR_EEG_block1-3.protocol.csv	step21	3001	298.13	STIMULATE	47.1	46.9	46.9	46.9	47.2	253.839
241.85	0	120925	10hz	6.024000000000001	0	0	0	0	9.0	0.0	9.0	0.0						310.3792727999971	316.4115960000054	316.4115960000054	3.0	['3', 'return']	[3.970883199988748, 4.75512639999215]	6.03	5.41	1.0	10hz	low_pain	48.5				sub-pilot012	250	1	47	48.5	COM11	COM7	COM3	2023-10-20_09h49.16.361	001-EEG_SVR_Officel	2022.2.5	143.76553566198453		10	sub-pilot012_SVR_EEG_block1-3.protocol.csv	step21	3001	298.13	STIMULATE	47.1	46.9	46.9	46.9	47.2	253.839
248.012	0	124006	10/Lo	5.274000000000001	0	0	0	0	9.0	0.0	9.0	0.0						310.3792727999971	316.4115960000054	316.4115960000054	3.0	['3', 'return']	[3.970883199988748, 4.75512639999215]	6.03	5.41	1.0	10hz	low_pain	48.5				sub-pilot012	250	1	47	48.5	COM11	COM7	COM3	2023-10-20_09h49.16.361	001-EEG_SVR_Officel	2022.2.5	143.76553566198453		10	sub-pilot012_SVR_EEG_block1-3.protocol.csv	step21	3001	298.13	STIMULATE	47.1	46.9	46.9	46.9	47.2	253.839
259.632	0	129816	wait	12.367999999999995	0	0	0	0	10.0	0.0	10.0	0.0						334.1877822999959	341.66403329999594	341.66403329999594	4.0	['4', 'return']	[4.70096950000152, 5.332521100004669]	7.47	6.21	2.0	20hz	high_pain	47.0				sub-pilot012	250	1	47	48.5	COM11	COM7	COM3	2023-10-20_09h49.16.361	001-EEG_SVR_Officel	2022.2.5	143.76553566198453		11	sub-pilot012_SVR_EEG_block1-3.protocol.csv	step23	3263	324.12	STIMULATE	48.7	48.4	48.4	48.5	48.7	279.829
267.102	0	133551	20hz	0.0	0	0	0	0	10.0	0.0	10.0	0.0						334.1877822999959	341.66403329999594	341.66403329999594	4.0	['4', 'return']	[4.70096950000152, 5.332521100004669]	7.47	6.21	2.0	20hz	high_pain	47.0				sub-pilot012	250	1	47	48.5	COM11	COM7	COM3	2023-10-20_09h49.16.361	001-EEG_SVR_Officel	2022.2.5	143.76553566198453		11	sub-pilot012_SVR_EEG_block1-3.protocol.csv	step23	3263	324.12	STIMULATE	48.7	48.4	48.4	48.5	48.7	279.829
274.064	0	137032	20/Hi	6.072000000000003	0	0	0	0	10.0	0.0	10.0	0.0						334.1877822999959	341.66403329999594	341.66403329999594	4.0	['4', 'return']	[4.70096950000152, 5.332521100004669]	7.47	6.21	2.0	20hz	high_pain	47.0				sub-pilot012	250	1	47	48.5	COM11	COM7	COM3	2023-10-20_09h49.16.361	001-EEG_SVR_Officel	2022.2.5	143.76553566198453		11	sub-pilot012_SVR_EEG_block1-3.protocol.csv	step23	3263	324.12	STIMULATE	48.7	48.4	48.4	48.5	48.7	279.829
285.456	0	142728	wait	0.0	0	0	0	0	11.0	0.0	11.0	0.0						360.01035989999946	366.5847756000003	366.5847756000003	2.0	['2', 'return']	[4.429711000004318, 5.1086805000086315]	6.57	5.17	3.0	40hz	low_pain	48.5				sub-pilot012	250	1	47	48.5	COM11	COM7	COM3	2023-10-20_09h49.16.361	001-EEG_SVR_Officel	2022.2.5	143.76553566198453		12	sub-pilot012_SVR_EEG_block1-3.protocol.csv	step25	3504	348.024	STIMULATE	47.0	46.9	46.9	46.9	46.9	303.733
292.022	0	146011	40hz	6.565999999999974	0	0	0	0	11.0	0.0	11.0	0.0						360.01035989999946	366.5847756000003	366.5847756000003	2.0	['2', 'return']	[4.429711000004318, 5.1086805000086315]	6.57	5.17	3.0	40hz	low_pain	48.5				sub-pilot012	250	1	47	48.5	COM11	COM7	COM3	2023-10-20_09h49.16.361	001-EEG_SVR_Officel	2022.2.5	143.76553566198453		12	sub-pilot012_SVR_EEG_block1-3.protocol.csv	step25	3504	348.024	STIMULATE	47.0	46.9	46.9	46.9	46.9	303.733
297.942	0	148971	40/Lo	5.03000000000003	0	0	0	0	11.0	0.0	11.0	0.0						360.01035989999946	366.5847756000003	366.5847756000003	2.0	['2', 'return']	[4.429711000004318, 5.1086805000086315]	6.57	5.17	3.0	40hz	low_pain	48.5				sub-pilot012	250	1	47	48.5	COM11	COM7	COM3	2023-10-20_09h49.16.361	001-EEG_SVR_Officel	2022.2.5	143.76553566198453		12	sub-pilot012_SVR_EEG_block1-3.protocol.csv	step25	3504	348.024	STIMULATE	47.0	46.9	46.9	46.9	46.9	303.733
310.152	0	155076	wait	12.95799999999997	0	0	0	0	12.0	0.0	12.0	0.0						384.7080578000023	392.0735985000065	392.0735985000065	5.5	['5', 'a', '5', 'return']	[3.8354461999988416, 4.180574099998921, 4.340661299997009, 5.0691585000022314]	7.36	5.18	0.0	20hz	high_pain	48.5				sub-pilot012	250	1	47	48.5	COM11	COM7	COM3	2023-10-20_09h49.16.361	001-EEG_SVR_Officel	2022.2.5	143.76553566198453		13	sub-pilot012_SVR_EEG_block1-3.protocol.csv	step27	3761	373.523	STIMULATE	48.6	48.4	48.4	48.5	48.8	329.232
317.51	0	158755	20hz	7.3559999999999945	0	0	0	0	12.0	0.0	12.0	0.0						384.7080578000023	392.0735985000065	392.0735985000065	5.5	['5', 'a', '5', 'return']	[3.8354461999988416, 4.180574099998921, 4.340661299997009, 5.0691585000022314]	7.36	5.18	0.0	20hz	high_pain	48.5				sub-pilot012	250	1	47	48.5	COM11	COM7	COM3	2023-10-20_09h49.16.361	001-EEG_SVR_Officel	2022.2.5	143.76553566198453		13	sub-pilot012_SVR_EEG_block1-3.protocol.csv	step27	3761	373.523	STIMULATE	48.6	48.4	48.4	48.5	48.8	329.232
323.438	0	161719	20/Hi	5.038000000000011	0	0	0	0	12.0	0.0	12.0	0.0						384.7080578000023	392.0735985000065	392.0735985000065	5.5	['5', 'a', '5', 'return']	[3.8354461999988416, 4.180574099998921, 4.340661299997009, 5.0691585000022314]	7.36	5.18	0.0	20hz	high_pain	48.5				sub-pilot012	250	1	47	48.5	COM11	COM7	COM3	2023-10-20_09h49.16.361	001-EEG_SVR_Officel	2022.2.5	143.76553566198453		13	sub-pilot012_SVR_EEG_block1-3.protocol.csv	step27	3761	373.523	STIMULATE	48.6	48.4	48.4	48.5	48.8	329.232
335.6	0	167800	wait	0.0	0	0	0	0	13.0	0.0	13.0	0.0						410.1549393000023	417.1073635000066	417.1073635000066	6.0	['6', 'return']	[3.8367096000001766, 4.3243424000102095]	6.95	5.18	1.0	controle	high_pain	47.0				sub-pilot012	250	1	47	48.5	COM11	COM7	COM3	2023-10-20_09h49.16.361	001-EEG_SVR_Officel	2022.2.5	143.76553566198453		14	sub-pilot012_SVR_EEG_block1-3.protocol.csv	step29	4013	398.562	STIMULATE	48.7	48.4	48.4	48.4	48.8	354.271
342.546	0	171273	CNhz	6.9459999999999695	0	0	0	0	13.0	0.0	13.0	0.0						410.1549393000023	417.1073635000066	417.1073635000066	6.0	['6', 'return']	[3.8367096000001766, 4.3243424000102095]	6.95	5.18	1.0	controle	high_pain	47.0				sub-pilot012	250	1	47	48.5	COM11	COM7	COM3	2023-10-20_09h49.16.361	001-EEG_SVR_Officel	2022.2.5	143.76553566198453		14	sub-pilot012_SVR_EEG_block1-3.protocol.csv	step29	4013	398.562	STIMULATE	48.7	48.4	48.4	48.4	48.8	354.271
348.474	0	174237	CN/Hi	5.036000000000001	0	0	0	0	13.0	0.0	13.0	0.0						410.1549393000023	417.1073635000066	417.1073635000066	6.0	['6', 'return']	[3.8367096000001766, 4.3243424000102095]	6.95	5.18	1.0	controle	high_pain	47.0				sub-pilot012	250	1	47	48.5	COM11	COM7	COM3	2023-10-20_09h49.16.361	001-EEG_SVR_Officel	2022.2.5	143.76553566198453		14	sub-pilot012_SVR_EEG_block1-3.protocol.csv	step29	4013	398.562	STIMULATE	48.7	48.4	48.4	48.4	48.8	354.271
359.894	0	179947	wait	12.165999999999997	0	0	0	0	14.0	0.0	14.0	0.0						434.449582900008	441.7845397000056	441.7845397000056	3.0	['3', 'return']	[3.921553199994378, 4.569982800006983]	7.33	5.2	2.0	40hz	low_pain	47.0				sub-pilot012	250	1	47	48.5	COM11	COM7	COM3	2023-10-20_09h49.16.361	001-EEG_SVR_Officel	2022.2.5	143.76553566198453		15	sub-pilot012_SVR_EEG_block1-3.protocol.csv	step31	4262	423.224	STIMULATE	47.2	46.9	46.9	46.9	47.2	378.933
367.224	0	183612	40hz	7.3279999999999745	0	0	0	0	14.0	0.0	14.0	0.0						434.449582900008	441.7845397000056	441.7845397000056	3.0	['3', 'return']	[3.921553199994378, 4.569982800006983]	7.33	5.2	2.0	40hz	low_pain	47.0				sub-pilot012	250	1	47	48.5	COM11	COM7	COM3	2023-10-20_09h49.16.361	001-EEG_SVR_Officel	2022.2.5	143.76553566198453		15	sub-pilot012_SVR_EEG_block1-3.protocol.csv	step31	4262	423.224	STIMULATE	47.2	46.9	46.9	46.9	47.2	378.933
373.172	0	186586	40/Lo	5.05800000000005	0	0	0	0	14.0	0.0	14.0	0.0						434.449582900008	441.7845397000056	441.7845397000056	3.0	['3', 'return']	[3.921553199994378, 4.569982800006983]	7.33	5.2	2.0	40hz	low_pain	47.0				sub-pilot012	250	1	47	48.5	COM11	COM7	COM3	2023-10-20_09h49.16.361	001-EEG_SVR_Officel	2022.2.5	143.76553566198453		15	sub-pilot012_SVR_EEG_block1-3.protocol.csv	step31	4262	423.224	STIMULATE	47.2	46.9	46.9	46.9	47.2	378.933
384.82	0	192410	wait	12.396000000000015	0	0	0	0	15.0	0.0	15.0	0.0						459.37612290000834	466.3558294999966	466.3558294999966	2.0	['2', 'return']	[3.445531300007133, 4.292989599998691]	6.98	5.72	3.0	controle	low_pain	48.5				sub-pilot012	250	1	47	48.5	COM11	COM7	COM3	2023-10-20_09h49.16.361	001-EEG_SVR_Officel	2022.2.5	143.76553566198453		16	sub-pilot012_SVR_EEG_block1-3.protocol.csv	step33	4515	448.397	STIMULATE	47.0	46.9	46.9	46.9	46.9	404.106
391.794	0	195897	CNhz	6.97199999999998	0	0	0	0	15.0	0.0	15.0	0.0						459.37612290000834	466.3558294999966	466.3558294999966	2.0	['2', 'return']	[3.445531300007133, 4.292989599998691]	6.98	5.72	3.0	controle	low_pain	48.5				sub-pilot012	250	1	47	48.5	COM11	COM7	COM3	2023-10-20_09h49.16.361	001-EEG_SVR_Officel	2022.2.5	143.76553566198453		16	sub-pilot012_SVR_EEG_block1-3.protocol.csv	step33	4515	448.397	STIMULATE	47.0	46.9	46.9	46.9	46.9	404.106
398.266	0	199133	CN/Lo	5.580000000000041	0	0	0	0	15.0	0.0	15.0	0.0						459.37612290000834	466.3558294999966	466.3558294999966	2.0	['2', 'return']	[3.445531300007133, 4.292989599998691]	6.98	5.72	3.0	controle	low_pain	48.5				sub-pilot012	250	1	47	48.5	COM11	COM7	COM3	2023-10-20_09h49.16.361	001-EEG_SVR_Officel	2022.2.5	143.76553566198453		16	sub-pilot012_SVR_EEG_block1-3.protocol.csv	step33	4515	448.397	STIMULATE	47.0	46.9	46.9	46.9	46.9	404.106
441.174	0	220587	wait	43.656000000000006	1	0	1	0	0.0	0.0	0.0	0.0				p	0.7501992000034079	515.730956200001	522.954130099999	522.954130099999	5.5	['5', 'a', '5', 'return']	[3.3280052000045544, 3.7118584999989253, 3.960172100007185, 4.600541100007831]	7.22	6.44	0.0	controle	high_pain	47.0				sub-pilot012	250	1	47	48.5	COM11	COM7	COM3	2023-10-20_09h49.16.361	001-EEG_SVR_Officel	2022.2.5	143.76553566198453		17	sub-pilot012_SVR_EEG_block1-3.protocol.csv	step35	5091	505.74	STIMULATE	48.8	48.4	48.4	48.4	48.8	461.449
448.392	0	224196	CNhz	7.216000000000008	1	0	1	0	0.0	0.0	0.0	0.0				p	0.7501992000034079	515.730956200001	522.954130099999	522.954130099999	5.5	['5', 'a', '5', 'return']	[3.3280052000045544, 3.7118584999989253, 3.960172100007185, 4.600541100007831]	7.22	6.44	0.0	controle	high_pain	47.0				sub-pilot012	250	1	47	48.5	COM11	COM7	COM3	2023-10-20_09h49.16.361	001-EEG_SVR_Officel	2022.2.5	143.76553566198453		17	sub-pilot012_SVR_EEG_block1-3.protocol.csv	step35	5091	505.74	STIMULATE	48.8	48.4	48.4	48.4	48.8	461.449
455.584	0	227792	CN/Hi	6.300000000000011	1	0	1	0	0.0	0.0	0.0	0.0				p	0.7501992000034079	515.730956200001	522.954130099999	522.954130099999	5.5	['5', 'a', '5', 'return']	[3.3280052000045544, 3.7118584999989253, 3.960172100007185, 4.600541100007831]	7.22	6.44	0.0	controle	high_pain	47.0				sub-pilot012	250	1	47	48.5	COM11	COM7	COM3	2023-10-20_09h49.16.361	001-EEG_SVR_Officel	2022.2.5	143.76553566198453		17	sub-pilot012_SVR_EEG_block1-3.protocol.csv	step35	5091	505.74	STIMULATE	48.8	48.4	48.4	48.4	48.8	461.449
466.016	0	233008	wait	11.177999999999997	1	0	1	0	1.0	0.0	1.0	0.0						540.5735112999973	546.4366758999968	546.4366758999968	3.0	['3', 'return']	[4.949989200002165, 5.517813400001614]	5.86	5.36	1.0	20hz	low_pain	47.0				sub-pilot012	250	1	47	48.5	COM11	COM7	COM3	2023-10-20_09h49.16.361	001-EEG_SVR_Officel	2022.2.5	143.76553566198453		18	sub-pilot012_SVR_EEG_block1-3.protocol.csv	step37	5317	528.143	STIMULATE	47.2	46.9	46.9	46.9	47.2	483.85200000000003
471.874	0	235937	20hz	5.854000000000042	1	0	1	0	1.0	0.0	1.0	0.0						540.5735112999973	546.4366758999968	546.4366758999968	3.0	['3', 'return']	[4.949989200002165, 5.517813400001614]	5.86	5.36	1.0	20hz	low_pain	47.0				sub-pilot012	250	1	47	48.5	COM11	COM7	COM3	2023-10-20_09h49.16.361	001-EEG_SVR_Officel	2022.2.5	143.76553566198453		18	sub-pilot012_SVR_EEG_block1-3.protocol.csv	step37	5317	528.143	STIMULATE	47.2	46.9	46.9	46.9	47.2	483.85200000000003
477.984	0	238992	20/Lo	5.217999999999961	1	0	1	0	1.0	0.0	1.0	0.0						540.5735112999973	546.4366758999968	546.4366758999968	3.0	['3', 'return']	[4.949989200002165, 5.517813400001614]	5.86	5.36	1.0	20hz	low_pain	47.0				sub-pilot012	250	1	47	48.5	COM11	COM7	COM3	2023-10-20_09h49.16.361	001-EEG_SVR_Officel	2022.2.5	143.76553566198453		18	sub-pilot012_SVR_EEG_block1-3.protocol.csv	step37	5317	528.143	STIMULATE	47.2	46.9	46.9	46.9	47.2	483.85200000000003
490.414	0	245207	wait	13.177999999999997	1	0	1	0	2.0	0.0	2.0	0.0						564.972308299999	570.0142587000009	570.0142587000009	1.0	['1', 'return']	[4.123581499996362, 6.379027599992696]	5.04	5.06	2.0	40hz	low_pain	48.5				sub-pilot012	250	1	47	48.5	COM11	COM7	COM3	2023-10-20_09h49.16.361	001-EEG_SVR_Officel	2022.2.5	143.76553566198453		19	sub-pilot012_SVR_EEG_block1-3.protocol.csv	step39	5552	551.441	STIMULATE	46.9	46.9	46.9	47.1	47.2	507.15000000000003
495.454	0	247727	40hz	5.036000000000001	1	0	1	0	2.0	0.0	2.0	0.0						564.972308299999	570.0142587000009	570.0142587000009	1.0	['1', 'return']	[4.123581499996362, 6.379027599992696]	5.04	5.06	2.0	40hz	low_pain	48.5				sub-pilot012	250	1	47	48.5	COM11	COM7	COM3	2023-10-20_09h49.16.361	001-EEG_SVR_Officel	2022.2.5	143.76553566198453		19	sub-pilot012_SVR_EEG_block1-3.protocol.csv	step39	5552	551.441	STIMULATE	46.9	46.9	46.9	47.1	47.2	507.15000000000003
501.264	0	250632	40/Lo	4.918000000000006	1	0	1	0	2.0	0.0	2.0	0.0						564.972308299999	570.0142587000009	570.0142587000009	1.0	['1', 'return']	[4.123581499996362, 6.379027599992696]	5.04	5.06	2.0	40hz	low_pain	48.5				sub-pilot012	250	1	47	48.5	COM11	COM7	COM3	2023-10-20_09h49.16.361	001-EEG_SVR_Officel	2022.2.5	143.76553566198453		19	sub-pilot012_SVR_EEG_block1-3.protocol.csv	step39	5552	551.441	STIMULATE	46.9	46.9	46.9	47.1	47.2	507.15000000000003
514.856	0	257428	wait	0.0	1	0	1	0	3.0	0.0	3.0	0.0						589.412931400002	594.4968272999977	594.4968272999977	5.0	['5', 'return']	[3.545088599988958, 4.193652499991003]	5.08	5.82	3.0	40hz	high_pain	47.0				sub-pilot012	250	1	47	48.5	COM11	COM7	COM3	2023-10-20_09h49.16.361	001-EEG_SVR_Officel	2022.2.5	143.76553566198453		20	sub-pilot012_SVR_EEG_block1-3.protocol.csv	step41	5807	576.727	STIMULATE	48.7	48.4	48.4	48.4	48.5	532.4359999999999
519.936	0	259968	40hz	5.080000000000041	1	0	1	0	3.0	0.0	3.0	0.0						589.412931400002	594.4968272999977	594.4968272999977	5.0	['5', 'return']	[3.545088599988958, 4.193652499991003]	5.08	5.82	3.0	40hz	high_pain	47.0				sub-pilot012	250	1	47	48.5	COM11	COM7	COM3	2023-10-20_09h49.16.361	001-EEG_SVR_Officel	2022.2.5	143.76553566198453		20	sub-pilot012_SVR_EEG_block1-3.protocol.csv	step41	5807	576.727	STIMULATE	48.7	48.4	48.4	48.4	48.5	532.4359999999999
526.502	0	263251	40/Hi	5.675999999999931	1	0	1	0	3.0	0.0	3.0	0.0						589.412931400002	594.4968272999977	594.4968272999977	5.0	['5', 'return']	[3.545088599988958, 4.193652499991003]	5.08	5.82	3.0	40hz	high_pain	47.0				sub-pilot012	250	1	47	48.5	COM11	COM7	COM3	2023-10-20_09h49.16.361	001-EEG_SVR_Officel	2022.2.5	143.76553566198453		20	sub-pilot012_SVR_EEG_block1-3.protocol.csv	step41	5807	576.727	STIMULATE	48.7	48.4	48.4	48.4	48.5	532.4359999999999
537.15	0	268575	wait	11.395999999999958	1	0	1	0	4.0	0.0	4.0	0.0						611.7071130999975	619.3674393999972	619.3674393999972	4.0	['4', 'return']	[3.194226299994625, 3.8338698000006843]	7.66	5.97	0.0	controle	low_pain	48.5				sub-pilot012	250	1	47	48.5	COM11	COM7	COM3	2023-10-20_09h49.16.361	001-EEG_SVR_Officel	2022.2.5	143.76553566198453		21	sub-pilot012_SVR_EEG_block1-3.protocol.csv	step43	6058	601.662	STIMULATE	47.2	46.9	46.9	46.9	47.2	557.3710000000001
544.806	0	272403	CNhz	7.653999999999996	1	0	1	0	4.0	0.0	4.0	0.0						611.7071130999975	619.3674393999972	619.3674393999972	4.0	['4', 'return']	[3.194226299994625, 3.8338698000006843]	7.66	5.97	0.0	controle	low_pain	48.5				sub-pilot012	250	1	47	48.5	COM11	COM7	COM3	2023-10-20_09h49.16.361	001-EEG_SVR_Officel	2022.2.5	143.76553566198453		21	sub-pilot012_SVR_EEG_block1-3.protocol.csv	step43	6058	601.662	STIMULATE	47.2	46.9	46.9	46.9	47.2	557.3710000000001
551.526	0	275763	CN/Lo	5.8279999999999745	1	0	1	0	4.0	0.0	4.0	0.0						611.7071130999975	619.3674393999972	619.3674393999972	4.0	['4', 'return']	[3.194226299994625, 3.8338698000006843]	7.66	5.97	0.0	controle	low_pain	48.5				sub-pilot012	250	1	47	48.5	COM11	COM7	COM3	2023-10-20_09h49.16.361	001-EEG_SVR_Officel	2022.2.5	143.76553566198453		21	sub-pilot012_SVR_EEG_block1-3.protocol.csv	step43	6058	601.662	STIMULATE	47.2	46.9	46.9	46.9	47.2	557.3710000000001
561.666	0	280833	wait	10.888000000000034	1	0	1	0	5.0	0.0	5.0	0.0						636.2237606999988	643.0243194000068	643.0243194000068	3.0	['3', 'return']	[3.9222718000091845, 4.682981800011476]	6.8	6.38	1.0	10hz	low_pain	47.0				sub-pilot012	250	1	47	48.5	COM11	COM7	COM3	2023-10-20_09h49.16.361	001-EEG_SVR_Officel	2022.2.5	143.76553566198453		22	sub-pilot012_SVR_EEG_block1-3.protocol.csv	step45	6302	625.819	STIMULATE	47.0	46.9	46.9	47.0	47.2	581.528
568.462	0	284231	10hz	6.793999999999983	1	0	1	0	5.0	0.0	5.0	0.0						636.2237606999988	643.0243194000068	643.0243194000068	3.0	['3', 'return']	[3.9222718000091845, 4.682981800011476]	6.8	6.38	1.0	10hz	low_pain	47.0				sub-pilot012	250	1	47	48.5	COM11	COM7	COM3	2023-10-20_09h49.16.361	001-EEG_SVR_Officel	2022.2.5	143.76553566198453		22	sub-pilot012_SVR_EEG_block1-3.protocol.csv	step45	6302	625.819	STIMULATE	47.0	46.9	46.9	47.0	47.2	581.528
575.59	0	287795	10/Lo	6.238000000000056	1	0	1	0	5.0	0.0	5.0	0.0						636.2237606999988	643.0243194000068	643.0243194000068	3.0	['3', 'return']	[3.9222718000091845, 4.682981800011476]	6.8	6.38	1.0	10hz	low_pain	47.0				sub-pilot012	250	1	47	48.5	COM11	COM7	COM3	2023-10-20_09h49.16.361	001-EEG_SVR_Officel	2022.2.5	143.76553566198453		22	sub-pilot012_SVR_EEG_block1-3.protocol.csv	step45	6302	625.819	STIMULATE	47.0	46.9	46.9	47.0	47.2	581.528
586.168	0	293084	wait	11.323999999999955	1	0	1	0	6.0	0.0	6.0	0.0						660.7271263000002	668.6112896999985	668.6112896999985	5.0	['5', 'return']	[2.984162099994137, 3.6316022999963025]	7.88	5.46	2.0	10hz	high_pain	48.5				sub-pilot012	250	1	47	48.5	COM11	COM7	COM3	2023-10-20_09h49.16.361	001-EEG_SVR_Officel	2022.2.5	143.76553566198453		23	sub-pilot012_SVR_EEG_block1-3.protocol.csv	step47	6550	650.445	STIMULATE	48.6	48.4	48.4	48.5	48.7	606.1540000000001
594.048	0	297024	10hz	7.875999999999976	1	0	1	0	6.0	0.0	6.0	0.0						660.7271263000002	668.6112896999985	668.6112896999985	5.0	['5', 'return']	[2.984162099994137, 3.6316022999963025]	7.88	5.46	2.0	10hz	high_pain	48.5				sub-pilot012	250	1	47	48.5	COM11	COM7	COM3	2023-10-20_09h49.16.361	001-EEG_SVR_Officel	2022.2.5	143.76553566198453		23	sub-pilot012_SVR_EEG_block1-3.protocol.csv	step47	6550	650.445	STIMULATE	48.6	48.4	48.4	48.5	48.7	606.1540000000001
600.262	0	300131	10/Hi	5.323999999999955	1	0	1	0	6.0	0.0	6.0	0.0						660.7271263000002	668.6112896999985	668.6112896999985	5.0	['5', 'return']	[2.984162099994137, 3.6316022999963025]	7.88	5.46	2.0	10hz	high_pain	48.5				sub-pilot012	250	1	47	48.5	COM11	COM7	COM3	2023-10-20_09h49.16.361	001-EEG_SVR_Officel	2022.2.5	143.76553566198453		23	sub-pilot012_SVR_EEG_block1-3.protocol.csv	step47	6550	650.445	STIMULATE	48.6	48.4	48.4	48.5	48.7	606.1540000000001
610.698	0	305349	wait	11.183999999999969	1	0	1	0	7.0	0.0	7.0	0.0						685.2573881999997	690.4642641999963	690.4642641999963	4.5	['4', 'a', '5', 'return']	[3.373526099996525, 3.8057558000000427, 4.00573859999713, 4.741846000004443]	5.2	5.07	3.0	20hz	high_pain	48.5				sub-pilot012	250	1	47	48.5	COM11	COM7	COM3	2023-10-20_09h49.16.361	001-EEG_SVR_Officel	2022.2.5	143.76553566198453		24	sub-pilot012_SVR_EEG_block1-3.protocol.csv	step49	6766	671.85	STIMULATE	48.5	48.4	48.4	48.5	48.5	627.5590000000001
615.898	0	307949	20hz	5.196000000000026	1	0	1	0	7.0	0.0	7.0	0.0						685.2573881999997	690.4642641999963	690.4642641999963	4.5	['4', 'a', '5', 'return']	[3.373526099996525, 3.8057558000000427, 4.00573859999713, 4.741846000004443]	5.2	5.07	3.0	20hz	high_pain	48.5				sub-pilot012	250	1	47	48.5	COM11	COM7	COM3	2023-10-20_09h49.16.361	001-EEG_SVR_Officel	2022.2.5	143.76553566198453		24	sub-pilot012_SVR_EEG_block1-3.protocol.csv	step49	6766	671.85	STIMULATE	48.5	48.4	48.4	48.5	48.5	627.5590000000001
621.714	0	310857	20/Hi	4.926000000000045	1	0	1	0	7.0	0.0	7.0	0.0						685.2573881999997	690.4642641999963	690.4642641999963	4.5	['4', 'a', '5', 'return']	[3.373526099996525, 3.8057558000000427, 4.00573859999713, 4.741846000004443]	5.2	5.07	3.0	20hz	high_pain	48.5				sub-pilot012	250	1	47	48.5	COM11	COM7	COM3	2023-10-20_09h49.16.361	001-EEG_SVR_Officel	2022.2.5	143.76553566198453		24	sub-pilot012_SVR_EEG_block1-3.protocol.csv	step49	6766	671.85	STIMULATE	48.5	48.4	48.4	48.5	48.5	627.5590000000001
633.66	0	316830	wait	12.692000000000007	1	0	1	0	8.0	0.0	8.0	0.0						708.2187603000057	713.726931199999	713.726931199999	4.0	['4', 'return']	[4.986653600004502, 5.762061400004313]	5.5	5.15	0.0	10hz	low_pain	47.0				sub-pilot012	250	1	47	48.5	COM11	COM7	COM3	2023-10-20_09h49.16.361	001-EEG_SVR_Officel	2022.2.5	143.76553566198453		25	sub-pilot012_SVR_EEG_block1-3.protocol.csv	step51	7003	695.334	STIMULATE	46.9	46.9	46.9	47.1	47.2	651.043
639.156	0	319578	10hz	5.4939999999999145	1	0	1	0	8.0	0.0	8.0	0.0						708.2187603000057	713.726931199999	713.726931199999	4.0	['4', 'return']	[4.986653600004502, 5.762061400004313]	5.5	5.15	0.0	10hz	low_pain	47.0				sub-pilot012	250	1	47	48.5	COM11	COM7	COM3	2023-10-20_09h49.16.361	001-EEG_SVR_Officel	2022.2.5	143.76553566198453		25	sub-pilot012_SVR_EEG_block1-3.protocol.csv	step51	7003	695.334	STIMULATE	46.9	46.9	46.9	47.1	47.2	651.043
645.058	0	322529	10/Lo	5.001999999999953	1	0	1	0	8.0	0.0	8.0	0.0						708.2187603000057	713.726931199999	713.726931199999	4.0	['4', 'return']	[4.986653600004502, 5.762061400004313]	5.5	5.15	0.0	10hz	low_pain	47.0				sub-pilot012	250	1	47	48.5	COM11	COM7	COM3	2023-10-20_09h49.16.361	001-EEG_SVR_Officel	2022.2.5	143.76553566198453		25	sub-pilot012_SVR_EEG_block1-3.protocol.csv	step51	7003	695.334	STIMULATE	46.9	46.9	46.9	47.1	47.2	651.043
657.942	0	328971	wait	13.632000000000062	1	0	1	0	9.0	0.0	9.0	0.0						732.4995191000053	740.1848586999986	740.1848586999986	3.0	['3', 'return']	[3.652486199993291, 4.2931217000004835]	7.68	5.89	1.0	40hz	low_pain	47.0				sub-pilot012	250	1	47	48.5	COM11	COM7	COM3	2023-10-20_09h49.16.361	001-EEG_SVR_Officel	2022.2.5	143.76553566198453		26	sub-pilot012_SVR_EEG_block1-3.protocol.csv	step53	7276	722.477	STIMULATE	47.0	46.9	46.9	46.9	47.2	678.186
665.618	0	332809	40hz	7.674000000000092	1	0	1	0	9.0	0.0	9.0	0.0						732.4995191000053	740.1848586999986	740.1848586999986	3.0	['3', 'return']	[3.652486199993291, 4.2931217000004835]	7.68	5.89	1.0	40hz	low_pain	47.0				sub-pilot012	250	1	47	48.5	COM11	COM7	COM3	2023-10-20_09h49.16.361	001-EEG_SVR_Officel	2022.2.5	143.76553566198453		26	sub-pilot012_SVR_EEG_block1-3.protocol.csv	step53	7276	722.477	STIMULATE	47.0	46.9	46.9	46.9	47.2	678.186
672.262	0	336131	40/Lo	5.751999999999953	1	0	1	0	9.0	0.0	9.0	0.0						732.4995191000053	740.1848586999986	740.1848586999986	3.0	['3', 'return']	[3.652486199993291, 4.2931217000004835]	7.68	5.89	1.0	40hz	low_pain	47.0				sub-pilot012	250	1	47	48.5	COM11	COM7	COM3	2023-10-20_09h49.16.361	001-EEG_SVR_Officel	2022.2.5	143.76553566198453		26	sub-pilot012_SVR_EEG_block1-3.protocol.csv	step53	7276	722.477	STIMULATE	47.0	46.9	46.9	46.9	47.2	678.186
682.936	0	341468	wait	11.422000000000025	1	0	1	0	10.0	0.0	10.0	0.0						757.4952100000082	763.037860299999	763.037860299999	5.0	['5', 'return']	[3.1968723999889335, 3.8602268999966327]	5.54	5.27	2.0	10hz	high_pain	47.0				sub-pilot012	250	1	47	48.5	COM11	COM7	COM3	2023-10-20_09h49.16.361	001-EEG_SVR_Officel	2022.2.5	143.76553566198453		27	sub-pilot012_SVR_EEG_block1-3.protocol.csv	step55	7500	744.672	STIMULATE	48.7	48.4	48.4	48.5	48.8	700.3810000000001
688.474	0	344237	10hz	5.536000000000058	1	0	1	0	10.0	0.0	10.0	0.0						757.4952100000082	763.037860299999	763.037860299999	5.0	['5', 'return']	[3.1968723999889335, 3.8602268999966327]	5.54	5.27	2.0	10hz	high_pain	47.0				sub-pilot012	250	1	47	48.5	COM11	COM7	COM3	2023-10-20_09h49.16.361	001-EEG_SVR_Officel	2022.2.5	143.76553566198453		27	sub-pilot012_SVR_EEG_block1-3.protocol.csv	step55	7500	744.672	STIMULATE	48.7	48.4	48.4	48.5	48.8	700.3810000000001
694.494	0	347247	10/Hi	5.128000000000043	1	0	1	0	10.0	0.0	10.0	0.0						757.4952100000082	763.037860299999	763.037860299999	5.0	['5', 'return']	[3.1968723999889335, 3.8602268999966327]	5.54	5.27	2.0	10hz	high_pain	47.0				sub-pilot012	250	1	47	48.5	COM11	COM7	COM3	2023-10-20_09h49.16.361	001-EEG_SVR_Officel	2022.2.5	143.76553566198453		27	sub-pilot012_SVR_EEG_block1-3.protocol.csv	step55	7500	744.672	STIMULATE	48.7	48.4	48.4	48.5	48.8	700.3810000000001
705.356	0	352678	wait	11.610000000000014	1	0	1	0	11.0	0.0	11.0	0.0						779.9145434999955	787.6869617000048	787.6869617000048	2.0	['2', 'return']	[3.2995114999939688, 4.002838300002622]	7.77	6.12	3.0	10hz	low_pain	48.5				sub-pilot012	250	1	47	48.5	COM11	COM7	COM3	2023-10-20_09h49.16.361	001-EEG_SVR_Officel	2022.2.5	143.76553566198453		28	sub-pilot012_SVR_EEG_block1-3.protocol.csv	step57	7758	770.269	STIMULATE	47.0	46.9	46.9	46.9	47.1	725.9780000000001
713.124	0	356562	10hz	7.766000000000076	1	0	1	0	11.0	0.0	11.0	0.0						779.9145434999955	787.6869617000048	787.6869617000048	2.0	['2', 'return']	[3.2995114999939688, 4.002838300002622]	7.77	6.12	3.0	10hz	low_pain	48.5				sub-pilot012	250	1	47	48.5	COM11	COM7	COM3	2023-10-20_09h49.16.361	001-EEG_SVR_Officel	2022.2.5	143.76553566198453		28	sub-pilot012_SVR_EEG_block1-3.protocol.csv	step57	7758	770.269	STIMULATE	47.0	46.9	46.9	46.9	47.1	725.9780000000001
719.996	0	359998	10/Lo	5.981999999999971	1	0	1	0	11.0	0.0	11.0	0.0						779.9145434999955	787.6869617000048	787.6869617000048	2.0	['2', 'return']	[3.2995114999939688, 4.002838300002622]	7.77	6.12	3.0	10hz	low_pain	48.5				sub-pilot012	250	1	47	48.5	COM11	COM7	COM3	2023-10-20_09h49.16.361	001-EEG_SVR_Officel	2022.2.5	143.76553566198453		28	sub-pilot012_SVR_EEG_block1-3.protocol.csv	step57	7758	770.269	STIMULATE	47.0	46.9	46.9	46.9	47.1	725.9780000000001
730.154	0	365077	wait	0.0	1	0	1	0	12.0	0.0	12.0	0.0						804.7120961000037	811.2177120999986	811.2177120999986	5.0	['5', 'return']	[4.247509200009517, 4.734903600008693]	6.5	6.36	0.0	10hz	low_pain	48.5				sub-pilot012	250	1	47	48.5	COM11	COM7	COM3	2023-10-20_09h49.16.361	001-EEG_SVR_Officel	2022.2.5	143.76553566198453		29	sub-pilot012_SVR_EEG_block1-3.protocol.csv	step59	7993	793.962	STIMULATE	47.1	46.9	46.9	46.9	47.2	749.671
736.654	0	368327	10hz	6.5	1	0	1	0	12.0	0.0	12.0	0.0						804.7120961000037	811.2177120999986	811.2177120999986	5.0	['5', 'return']	[4.247509200009517, 4.734903600008693]	6.5	6.36	0.0	10hz	low_pain	48.5				sub-pilot012	250	1	47	48.5	COM11	COM7	COM3	2023-10-20_09h49.16.361	001-EEG_SVR_Officel	2022.2.5	143.76553566198453		29	sub-pilot012_SVR_EEG_block1-3.protocol.csv	step59	7993	793.962	STIMULATE	47.1	46.9	46.9	46.9	47.2	749.671
743.762	0	371881	10/Lo	6.217999999999961	1	0	1	0	12.0	0.0	12.0	0.0						804.7120961000037	811.2177120999986	811.2177120999986	5.0	['5', 'return']	[4.247509200009517, 4.734903600008693]	6.5	6.36	0.0	10hz	low_pain	48.5				sub-pilot012	250	1	47	48.5	COM11	COM7	COM3	2023-10-20_09h49.16.361	001-EEG_SVR_Officel	2022.2.5	143.76553566198453		29	sub-pilot012_SVR_EEG_block1-3.protocol.csv	step59	7993	793.962	STIMULATE	47.1	46.9	46.9	46.9	47.2	749.671
754.41	0	377205	wait	11.395999999999958	1	0	1	0	13.0	0.0	13.0	0.0						828.9693132999964	836.8029958999978	836.8029958999978	6.5	['6', 'a', '5', 'return']	[3.702181600005133, 4.189975500004948, 4.389930800010916, 5.166500899998937]	7.83	5.79	1.0	controle	high_pain	48.5				sub-pilot012	250	1	47	48.5	COM11	COM7	COM3	2023-10-20_09h49.16.361	001-EEG_SVR_Officel	2022.2.5	143.76553566198453		30	sub-pilot012_SVR_EEG_block1-3.protocol.csv	step61	8237	819.008	STIMULATE	48.7	48.4	48.4	48.4	48.7	774.7170000000001
762.24	0	381120	CNhz	7.8279999999999745	1	0	1	0	13.0	0.0	13.0	0.0						828.9693132999964	836.8029958999978	836.8029958999978	6.5	['6', 'a', '5', 'return']	[3.702181600005133, 4.189975500004948, 4.389930800010916, 5.166500899998937]	7.83	5.79	1.0	controle	high_pain	48.5				sub-pilot012	250	1	47	48.5	COM11	COM7	COM3	2023-10-20_09h49.16.361	001-EEG_SVR_Officel	2022.2.5	143.76553566198453		30	sub-pilot012_SVR_EEG_block1-3.protocol.csv	step61	8237	819.008	STIMULATE	48.7	48.4	48.4	48.4	48.7	774.7170000000001
768.78	0	384390	CN/Hi	5.648000000000025	1	0	1	0	13.0	0.0	13.0	0.0						828.9693132999964	836.8029958999978	836.8029958999978	6.5	['6', 'a', '5', 'return']	[3.702181600005133, 4.189975500004948, 4.389930800010916, 5.166500899998937]	7.83	5.79	1.0	controle	high_pain	48.5				sub-pilot012	250	1	47	48.5	COM11	COM7	COM3	2023-10-20_09h49.16.361	001-EEG_SVR_Officel	2022.2.5	143.76553566198453		30	sub-pilot012_SVR_EEG_block1-3.protocol.csv	step61	8237	819.008	STIMULATE	48.7	48.4	48.4	48.4	48.7	774.7170000000001
780.426	0	390213	wait	12.394000000000005	1	0	1	0	14.0	0.0	14.0	0.0						854.9859116000007	862.0390700999997	862.0390700999997	5.5	['5', 'a', '5', 'return']	[3.9423794000031194, 4.270301299999119, 4.414430599994375, 5.045772900004522]	7.05	6.2	2.0	controle	high_pain	47.0				sub-pilot012	250	1	47	48.5	COM11	COM7	COM3	2023-10-20_09h49.16.361	001-EEG_SVR_Officel	2022.2.5	143.76553566198453		31	sub-pilot012_SVR_EEG_block1-3.protocol.csv	step63	8484	844.653	STIMULATE	48.5	48.4	48.4	48.5	48.7	800.3620000000001
787.472	0	393736	CNhz	7.04200000000003	1	0	1	0	14.0	0.0	14.0	0.0						854.9859116000007	862.0390700999997	862.0390700999997	5.5	['5', 'a', '5', 'return']	[3.9423794000031194, 4.270301299999119, 4.414430599994375, 5.045772900004522]	7.05	6.2	2.0	controle	high_pain	47.0				sub-pilot012	250	1	47	48.5	COM11	COM7	COM3	2023-10-20_09h49.16.361	001-EEG_SVR_Officel	2022.2.5	143.76553566198453		31	sub-pilot012_SVR_EEG_block1-3.protocol.csv	step63	8484	844.653	STIMULATE	48.5	48.4	48.4	48.5	48.7	800.3620000000001
794.422	0	397211	CN/Hi	6.060000000000059	1	0	1	0	14.0	0.0	14.0	0.0						854.9859116000007	862.0390700999997	862.0390700999997	5.5	['5', 'a', '5', 'return']	[3.9423794000031194, 4.270301299999119, 4.414430599994375, 5.045772900004522]	7.05	6.2	2.0	controle	high_pain	47.0				sub-pilot012	250	1	47	48.5	COM11	COM7	COM3	2023-10-20_09h49.16.361	001-EEG_SVR_Officel	2022.2.5	143.76553566198453		31	sub-pilot012_SVR_EEG_block1-3.protocol.csv	step63	8484	844.653	STIMULATE	48.5	48.4	48.4	48.5	48.7	800.3620000000001
805.54	0	402770	wait	11.865999999999985	1	0	1	0	15.0	0.0	15.0	0.0						880.0999888000078	885.6214622999978	885.6214622999978	5.0	['5', 'return']	[3.44355500000529, 4.067306600001757]	5.52	5.31	3.0	10hz	high_pain	47.0				sub-pilot012	250	1	47	48.5	COM11	COM7	COM3	2023-10-20_09h49.16.361	001-EEG_SVR_Officel	2022.2.5	143.76553566198453		32	sub-pilot012_SVR_EEG_block1-3.protocol.csv	step65	8701	867.41	STIMULATE	48.5	48.4	48.4	48.5	48.5	823.119
811.058	0	405529	10hz	5.51400000000001	1	0	1	0	15.0	0.0	15.0	0.0						880.0999888000078	885.6214622999978	885.6214622999978	5.0	['5', 'return']	[3.44355500000529, 4.067306600001757]	5.52	5.31	3.0	10hz	high_pain	47.0				sub-pilot012	250	1	47	48.5	COM11	COM7	COM3	2023-10-20_09h49.16.361	001-EEG_SVR_Officel	2022.2.5	143.76553566198453		32	sub-pilot012_SVR_EEG_block1-3.protocol.csv	step65	8701	867.41	STIMULATE	48.5	48.4	48.4	48.5	48.5	823.119
817.118	0	408559	10/Hi	5.168000000000006	1	0	1	0	15.0	0.0	15.0	0.0						880.0999888000078	885.6214622999978	885.6214622999978	5.0	['5', 'return']	[3.44355500000529, 4.067306600001757]	5.52	5.31	3.0	10hz	high_pain	47.0				sub-pilot012	250	1	47	48.5	COM11	COM7	COM3	2023-10-20_09h49.16.361	001-EEG_SVR_Officel	2022.2.5	143.76553566198453		32	sub-pilot012_SVR_EEG_block1-3.protocol.csv	step65	8701	867.41	STIMULATE	48.5	48.4	48.4	48.5	48.5	823.119
863.86	0	431930	wait	47.488000000000056	2	0	2	0	0.0	0.0	0.0	0.0				p	1.22834819999116	938.4190827999992	944.732864400008	944.732864400008	3.0	['3', 'return']	[3.8506790999963414, 4.48206460000074]	6.31	5.82	0.0	10hz	low_pain	47.0				sub-pilot012	250	1	47	48.5	COM11	COM7	COM3	2023-10-20_09h49.16.361	001-EEG_SVR_Officel	2022.2.5	143.76553566198453		33	sub-pilot012_SVR_EEG_block1-3.protocol.csv	step67	9261	926.985	STIMULATE	47.2	46.9	46.9	47.0	47.2	882.6940000000001
870.168	0	435084	10hz	6.30600000000004	2	0	2	0	0.0	0.0	0.0	0.0				p	1.22834819999116	938.4190827999992	944.732864400008	944.732864400008	3.0	['3', 'return']	[3.8506790999963414, 4.48206460000074]	6.31	5.82	0.0	10hz	low_pain	47.0				sub-pilot012	250	1	47	48.5	COM11	COM7	COM3	2023-10-20_09h49.16.361	001-EEG_SVR_Officel	2022.2.5	143.76553566198453		33	sub-pilot012_SVR_EEG_block1-3.protocol.csv	step67	9261	926.985	STIMULATE	47.2	46.9	46.9	47.0	47.2	882.6940000000001
876.736	0	438368	10/Lo	5.676000000000045	2	0	2	0	0.0	0.0	0.0	0.0				p	1.22834819999116	938.4190827999992	944.732864400008	944.732864400008	3.0	['3', 'return']	[3.8506790999963414, 4.48206460000074]	6.31	5.82	0.0	10hz	low_pain	47.0				sub-pilot012	250	1	47	48.5	COM11	COM7	COM3	2023-10-20_09h49.16.361	001-EEG_SVR_Officel	2022.2.5	143.76553566198453		33	sub-pilot012_SVR_EEG_block1-3.protocol.csv	step67	9261	926.985	STIMULATE	47.2	46.9	46.9	47.0	47.2	882.6940000000001
887.674	0	443837	wait	11.685999999999922	2	0	2	0	1.0	0.0	1.0	0.0						962.2346582000029	967.9096131999976	967.9096131999976	6.0	['6', 'return']	[3.6600922999932664, 4.380695800005924]	5.67	5.05	1.0	10hz	high_pain	47.0				sub-pilot012	250	1	47	48.5	COM11	COM7	COM3	2023-10-20_09h49.16.361	001-EEG_SVR_Officel	2022.2.5	143.76553566198453		34	sub-pilot012_SVR_EEG_block1-3.protocol.csv	step69	9467	949.33	STIMULATE	48.6	48.4	48.4	48.4	48.8	905.0390000000001
893.338	0	446669	10hz	5.661999999999921	2	0	2	0	1.0	0.0	1.0	0.0						962.2346582000029	967.9096131999976	967.9096131999976	6.0	['6', 'return']	[3.6600922999932664, 4.380695800005924]	5.67	5.05	1.0	10hz	high_pain	47.0				sub-pilot012	250	1	47	48.5	COM11	COM7	COM3	2023-10-20_09h49.16.361	001-EEG_SVR_Officel	2022.2.5	143.76553566198453		34	sub-pilot012_SVR_EEG_block1-3.protocol.csv	step69	9467	949.33	STIMULATE	48.6	48.4	48.4	48.4	48.8	905.0390000000001
899.142	0	449571	10/Hi	4.906000000000063	2	0	2	0	1.0	0.0	1.0	0.0						962.2346582000029	967.9096131999976	967.9096131999976	6.0	['6', 'return']	[3.6600922999932664, 4.380695800005924]	5.67	5.05	1.0	10hz	high_pain	47.0				sub-pilot012	250	1	47	48.5	COM11	COM7	COM3	2023-10-20_09h49.16.361	001-EEG_SVR_Officel	2022.2.5	143.76553566198453		34	sub-pilot012_SVR_EEG_block1-3.protocol.csv	step69	9467	949.33	STIMULATE	48.6	48.4	48.4	48.4	48.8	905.0390000000001
910.746	0	455373	wait	12.351999999999975	2	0	2	0	2.0	0.0	2.0	0.0						985.3069335000037	992.4685338999988	992.4685338999988	5.0	['5', 'return']	[3.214044599997578, 4.159070199995767]	7.16	6.44	2.0	20hz	high_pain	48.5				sub-pilot012	250	1	47	48.5	COM11	COM7	COM3	2023-10-20_09h49.16.361	001-EEG_SVR_Officel	2022.2.5	143.76553566198453		35	sub-pilot012_SVR_EEG_block1-3.protocol.csv	step71	9705	975.275	STIMULATE	48.6	48.4	48.4	48.4	48.8	930.984
917.904	0	458952	20hz	7.155999999999949	2	0	2	0	2.0	0.0	2.0	0.0						985.3069335000037	992.4685338999988	992.4685338999988	5.0	['5', 'return']	[3.214044599997578, 4.159070199995767]	7.16	6.44	2.0	20hz	high_pain	48.5				sub-pilot012	250	1	47	48.5	COM11	COM7	COM3	2023-10-20_09h49.16.361	001-EEG_SVR_Officel	2022.2.5	143.76553566198453		35	sub-pilot012_SVR_EEG_block1-3.protocol.csv	step71	9705	975.275	STIMULATE	48.6	48.4	48.4	48.4	48.8	930.984
925.096	0	462548	20/Hi	6.302000000000021	2	0	2	0	2.0	0.0	2.0	0.0						985.3069335000037	992.4685338999988	992.4685338999988	5.0	['5', 'return']	[3.214044599997578, 4.159070199995767]	7.16	6.44	2.0	20hz	high_pain	48.5				sub-pilot012	250	1	47	48.5	COM11	COM7	COM3	2023-10-20_09h49.16.361	001-EEG_SVR_Officel	2022.2.5	143.76553566198453		35	sub-pilot012_SVR_EEG_block1-3.protocol.csv	step71	9705	975.275	STIMULATE	48.6	48.4	48.4	48.4	48.8	930.984
935.084	0	467542	wait	0.0	2	0	2	0	3.0	0.0	3.0	0.0						1009.6431224999978	1016.7363337999996	1016.7363337999996	2.0	['2', 'return']	[4.00297529999807, 4.859639100002823]	7.09	6.33	3.0	10hz	low_pain	48.5				sub-pilot012	250	1	47	48.5	COM11	COM7	COM3	2023-10-20_09h49.16.361	001-EEG_SVR_Officel	2022.2.5	143.76553566198453		36	sub-pilot012_SVR_EEG_block1-3.protocol.csv	step73	9924	999.496	STIMULATE	47.1	46.9	46.9	46.9	46.9	955.205
942.17	0	471085	10hz	7.086000000000013	2	0	2	0	3.0	0.0	3.0	0.0						1009.6431224999978	1016.7363337999996	1016.7363337999996	2.0	['2', 'return']	[4.00297529999807, 4.859639100002823]	7.09	6.33	3.0	10hz	low_pain	48.5				sub-pilot012	250	1	47	48.5	COM11	COM7	COM3	2023-10-20_09h49.16.361	001-EEG_SVR_Officel	2022.2.5	143.76553566198453		36	sub-pilot012_SVR_EEG_block1-3.protocol.csv	step73	9924	999.496	STIMULATE	47.1	46.9	46.9	46.9	46.9	955.205
949.252	0	474626	10/Lo	6.192000000000007	2	0	2	0	3.0	0.0	3.0	0.0						1009.6431224999978	1016.7363337999996	1016.7363337999996	2.0	['2', 'return']	[4.00297529999807, 4.859639100002823]	7.09	6.33	3.0	10hz	low_pain	48.5				sub-pilot012	250	1	47	48.5	COM11	COM7	COM3	2023-10-20_09h49.16.361	001-EEG_SVR_Officel	2022.2.5	143.76553566198453		36	sub-pilot012_SVR_EEG_block1-3.protocol.csv	step73	9924	999.496	STIMULATE	47.1	46.9	46.9	46.9	46.9	955.205
960.052	0	480026	wait	0.0	2	0	2	0	4.0	0.0	4.0	0.0						1034.6113617000085	1041.997967800009	1041.997967800009	6.0	['6', 'return']	[2.447646700005862, 2.928535800005193]	7.38	5.75	0.0	controle	high_pain	48.5				sub-pilot012	250	1	47	48.5	COM11	COM7	COM3	2023-10-20_09h49.16.361	001-EEG_SVR_Officel	2022.2.5	143.76553566198453		37	sub-pilot012_SVR_EEG_block1-3.protocol.csv	step75	10146	1024.218	STIMULATE	48.8	48.4	48.4	48.4	48.8	979.9270000000001
967.43	0	483715	CNhz	7.377999999999929	2	0	2	0	4.0	0.0	4.0	0.0						1034.6113617000085	1041.997967800009	1041.997967800009	6.0	['6', 'return']	[2.447646700005862, 2.928535800005193]	7.38	5.75	0.0	controle	high_pain	48.5				sub-pilot012	250	1	47	48.5	COM11	COM7	COM3	2023-10-20_09h49.16.361	001-EEG_SVR_Officel	2022.2.5	143.76553566198453		37	sub-pilot012_SVR_EEG_block1-3.protocol.csv	step75	10146	1024.218	STIMULATE	48.8	48.4	48.4	48.4	48.8	979.9270000000001
973.928	0	486964	CN/Hi	5.607999999999947	2	0	2	0	4.0	0.0	4.0	0.0						1034.6113617000085	1041.997967800009	1041.997967800009	6.0	['6', 'return']	[2.447646700005862, 2.928535800005193]	7.38	5.75	0.0	controle	high_pain	48.5				sub-pilot012	250	1	47	48.5	COM11	COM7	COM3	2023-10-20_09h49.16.361	001-EEG_SVR_Officel	2022.2.5	143.76553566198453		37	sub-pilot012_SVR_EEG_block1-3.protocol.csv	step75	10146	1024.218	STIMULATE	48.8	48.4	48.4	48.4	48.8	979.9270000000001
983.38	0	491690	wait	10.200000000000045	2	0	2	0	5.0	0.0	5.0	0.0						1057.940589699996	1063.226483899998	1063.226483899998	6.0	['6', 'return']	[4.007683999996516, 4.695620500002406]	5.28	5.86	1.0	40hz	high_pain	47.0				sub-pilot012	250	1	47	48.5	COM11	COM7	COM3	2023-10-20_09h49.16.361	001-EEG_SVR_Officel	2022.2.5	143.76553566198453		38	sub-pilot012_SVR_EEG_block1-3.protocol.csv	step77	10336	1045.591	STIMULATE	48.6	48.4	48.4	48.4	48.7	1001.3
988.662	0	494331	40hz	0.0	2	0	2	0	5.0	0.0	5.0	0.0						1057.940589699996	1063.226483899998	1063.226483899998	6.0	['6', 'return']	[4.007683999996516, 4.695620500002406]	5.28	5.86	1.0	40hz	high_pain	47.0				sub-pilot012	250	1	47	48.5	COM11	COM7	COM3	2023-10-20_09h49.16.361	001-EEG_SVR_Officel	2022.2.5	143.76553566198453		38	sub-pilot012_SVR_EEG_block1-3.protocol.csv	step77	10336	1045.591	STIMULATE	48.6	48.4	48.4	48.4	48.7	1001.3
995.27	0	497635	40/Hi	5.717999999999961	2	0	2	0	5.0	0.0	5.0	0.0						1057.940589699996	1063.226483899998	1063.226483899998	6.0	['6', 'return']	[4.007683999996516, 4.695620500002406]	5.28	5.86	1.0	40hz	high_pain	47.0				sub-pilot012	250	1	47	48.5	COM11	COM7	COM3	2023-10-20_09h49.16.361	001-EEG_SVR_Officel	2022.2.5	143.76553566198453		38	sub-pilot012_SVR_EEG_block1-3.protocol.csv	step77	10336	1045.591	STIMULATE	48.6	48.4	48.4	48.4	48.7	1001.3
1006.376	0	503188	wait	11.853999999999928	2	0	2	0	6.0	0.0	6.0	0.0						1080.936950000003	1088.5096188000025	1088.5096188000025	5.0	['5', 'return']	[2.8224936999904457, 3.3984161999978824]	7.57	5.34	2.0	20hz	high_pain	47.0				sub-pilot012	250	1	47	48.5	COM11	COM7	COM3	2023-10-20_09h49.16.361	001-EEG_SVR_Officel	2022.2.5	143.76553566198453		39	sub-pilot012_SVR_EEG_block1-3.protocol.csv	step79	10554	1070.285	STIMULATE	48.5	48.4	48.4	48.5	48.7	1025.9940000000001
1013.94	0	506970	20hz	7.562000000000012	2	0	2	0	6.0	0.0	6.0	0.0						1080.936950000003	1088.5096188000025	1088.5096188000025	5.0	['5', 'return']	[2.8224936999904457, 3.3984161999978824]	7.57	5.34	2.0	20hz	high_pain	47.0				sub-pilot012	250	1	47	48.5	COM11	COM7	COM3	2023-10-20_09h49.16.361	001-EEG_SVR_Officel	2022.2.5	143.76553566198453		39	sub-pilot012_SVR_EEG_block1-3.protocol.csv	step79	10554	1070.285	STIMULATE	48.5	48.4	48.4	48.5	48.7	1025.9940000000001
1020.028	0	510014	20/Hi	5.196000000000026	2	0	2	0	6.0	0.0	6.0	0.0						1080.936950000003	1088.5096188000025	1088.5096188000025	5.0	['5', 'return']	[2.8224936999904457, 3.3984161999978824]	7.57	5.34	2.0	20hz	high_pain	47.0				sub-pilot012	250	1	47	48.5	COM11	COM7	COM3	2023-10-20_09h49.16.361	001-EEG_SVR_Officel	2022.2.5	143.76553566198453		39	sub-pilot012_SVR_EEG_block1-3.protocol.csv	step79	10554	1070.285	STIMULATE	48.5	48.4	48.4	48.5	48.7	1025.9940000000001
1030.364	0	515182	wait	11.081999999999994	2	0	2	0	7.0	0.0	7.0	0.0						1104.9252427000029	1110.357399200002	1110.357399200002	2.0	['2', 'return']	[3.1567872000014177, 3.9166395000065677]	5.43	5.84	3.0	controle	low_pain	47.0				sub-pilot012	250	1	47	48.5	COM11	COM7	COM3	2023-10-20_09h49.16.361	001-EEG_SVR_Officel	2022.2.5	143.76553566198453		40	sub-pilot012_SVR_EEG_block1-3.protocol.csv	step81	10748	1092.568	STIMULATE	47.1	46.9	46.9	46.9	47.0	1048.277
1035.792	0	517895	CNhz	5.425999999999931	2	0	2	0	7.0	0.0	7.0	0.0						1104.9252427000029	1110.357399200002	1110.357399200002	2.0	['2', 'return']	[3.1567872000014177, 3.9166395000065677]	5.43	5.84	3.0	controle	low_pain	47.0				sub-pilot012	250	1	47	48.5	COM11	COM7	COM3	2023-10-20_09h49.16.361	001-EEG_SVR_Officel	2022.2.5	143.76553566198453		40	sub-pilot012_SVR_EEG_block1-3.protocol.csv	step81	10748	1092.568	STIMULATE	47.1	46.9	46.9	46.9	47.0	1048.277
1042.38	0	521190	CN/Lo	5.698000000000093	2	0	2	0	7.0	0.0	7.0	0.0						1104.9252427000029	1110.357399200002	1110.357399200002	2.0	['2', 'return']	[3.1567872000014177, 3.9166395000065677]	5.43	5.84	3.0	controle	low_pain	47.0				sub-pilot012	250	1	47	48.5	COM11	COM7	COM3	2023-10-20_09h49.16.361	001-EEG_SVR_Officel	2022.2.5	143.76553566198453		40	sub-pilot012_SVR_EEG_block1-3.protocol.csv	step81	10748	1092.568	STIMULATE	47.1	46.9	46.9	46.9	47.0	1048.277
1052.728	0	526364	wait	11.096000000000004	2	0	2	0	8.0	0.0	8.0	0.0						1127.289148900003	1133.8395955000017	1133.8395955000017	3.0	['3', 'return']	[3.466516700005741, 4.203009000004386]	6.55	5.5	0.0	40hz	low_pain	48.5				sub-pilot012	250	1	47	48.5	COM11	COM7	COM3	2023-10-20_09h49.16.361	001-EEG_SVR_Officel	2022.2.5	143.76553566198453		41	sub-pilot012_SVR_EEG_block1-3.protocol.csv	step83	10952	1115.82	STIMULATE	47.1	46.9	46.9	46.9	47.2	1071.5289999999998
1059.274	0	529637	40hz	0.0	2	0	2	0	8.0	0.0	8.0	0.0						1127.289148900003	1133.8395955000017	1133.8395955000017	3.0	['3', 'return']	[3.466516700005741, 4.203009000004386]	6.55	5.5	0.0	40hz	low_pain	48.5				sub-pilot012	250	1	47	48.5	COM11	COM7	COM3	2023-10-20_09h49.16.361	001-EEG_SVR_Officel	2022.2.5	143.76553566198453		41	sub-pilot012_SVR_EEG_block1-3.protocol.csv	step83	10952	1115.82	STIMULATE	47.1	46.9	46.9	46.9	47.2	1071.5289999999998
1065.522	0	532761	40/Lo	0.0	2	0	2	0	8.0	0.0	8.0	0.0						1127.289148900003	1133.8395955000017	1133.8395955000017	3.0	['3', 'return']	[3.466516700005741, 4.203009000004386]	6.55	5.5	0.0	40hz	low_pain	48.5				sub-pilot012	250	1	47	48.5	COM11	COM7	COM3	2023-10-20_09h49.16.361	001-EEG_SVR_Officel	2022.2.5	143.76553566198453		41	sub-pilot012_SVR_EEG_block1-3.protocol.csv	step83	10952	1115.82	STIMULATE	47.1	46.9	46.9	46.9	47.2	1071.5289999999998
1076.502	0	538251	wait	0.0	2	0	2	0	9.0	0.0	9.0	0.0						1151.0626113000037	1158.9147414000035	1158.9147414000035	5.0	['5', 'return']	[3.8359301000018604, 4.397041499993065]	7.85	5.19	1.0	controle	high_pain	48.5				sub-pilot012	250	1	47	48.5	COM11	COM7	COM3	2023-10-20_09h49.16.361	001-EEG_SVR_Officel	2022.2.5	143.76553566198453		42	sub-pilot012_SVR_EEG_block1-3.protocol.csv	step85	11170	1140.568	STIMULATE	48.6	48.4	48.4	48.4	48.7	1096.2769999999998
1084.348	0	542174	CNhz	0.0	2	0	2	0	9.0	0.0	9.0	0.0						1151.0626113000037	1158.9147414000035	1158.9147414000035	5.0	['5', 'return']	[3.8359301000018604, 4.397041499993065]	7.85	5.19	1.0	controle	high_pain	48.5				sub-pilot012	250	1	47	48.5	COM11	COM7	COM3	2023-10-20_09h49.16.361	001-EEG_SVR_Officel	2022.2.5	143.76553566198453		42	sub-pilot012_SVR_EEG_block1-3.protocol.csv	step85	11170	1140.568	STIMULATE	48.6	48.4	48.4	48.4	48.7	1096.2769999999998
1090.288	0	545144	CN/Hi	5.051999999999907	2	0	2	0	9.0	0.0	9.0	0.0						1151.0626113000037	1158.9147414000035	1158.9147414000035	5.0	['5', 'return']	[3.8359301000018604, 4.397041499993065]	7.85	5.19	1.0	controle	high_pain	48.5				sub-pilot012	250	1	47	48.5	COM11	COM7	COM3	2023-10-20_09h49.16.361	001-EEG_SVR_Officel	2022.2.5	143.76553566198453		42	sub-pilot012_SVR_EEG_block1-3.protocol.csv	step85	11170	1140.568	STIMULATE	48.6	48.4	48.4	48.4	48.7	1096.2769999999998
1101.776	0	550888	wait	12.236000000000104	2	0	2	0	10.0	0.0	10.0	0.0						1176.3365135000058	1183.492946600003	1183.492946600003	4.0	['4', 'return']	[3.0320707999926526, 3.599335799997789]	7.15	5.49	2.0	10hz	high_pain	48.5				sub-pilot012	250	1	47	48.5	COM11	COM7	COM3	2023-10-20_09h49.16.361	001-EEG_SVR_Officel	2022.2.5	143.76553566198453		43	sub-pilot012_SVR_EEG_block1-3.protocol.csv	step87	11381	1165.362	STIMULATE	48.6	48.4	48.4	48.4	48.7	1121.071
1108.924	0	554462	10hz	7.145999999999958	2	0	2	0	10.0	0.0	10.0	0.0						1176.3365135000058	1183.492946600003	1183.492946600003	4.0	['4', 'return']	[3.0320707999926526, 3.599335799997789]	7.15	5.49	2.0	10hz	high_pain	48.5				sub-pilot012	250	1	47	48.5	COM11	COM7	COM3	2023-10-20_09h49.16.361	001-EEG_SVR_Officel	2022.2.5	143.76553566198453		43	sub-pilot012_SVR_EEG_block1-3.protocol.csv	step87	11381	1165.362	STIMULATE	48.6	48.4	48.4	48.4	48.7	1121.071
1115.166	0	557583	10/Hi	5.349999999999909	2	0	2	0	10.0	0.0	10.0	0.0						1176.3365135000058	1183.492946600003	1183.492946600003	4.0	['4', 'return']	[3.0320707999926526, 3.599335799997789]	7.15	5.49	2.0	10hz	high_pain	48.5				sub-pilot012	250	1	47	48.5	COM11	COM7	COM3	2023-10-20_09h49.16.361	001-EEG_SVR_Officel	2022.2.5	143.76553566198453		43	sub-pilot012_SVR_EEG_block1-3.protocol.csv	step87	11381	1165.362	STIMULATE	48.6	48.4	48.4	48.4	48.7	1121.071
1125.548	0	562774	wait	11.13000000000011	2	0	2	0	11.0	0.0	11.0	0.0						1200.1101730000082	1207.819426300004	1207.819426300004	2.0	['2', 'return']	[3.4379190000036033, 4.126149800009443]	7.71	5.38	3.0	40hz	low_pain	47.0				sub-pilot012	250	1	47	48.5	COM11	COM7	COM3	2023-10-20_09h49.16.361	001-EEG_SVR_Officel	2022.2.5	143.76553566198453		44	sub-pilot012_SVR_EEG_block1-3.protocol.csv	step89	11586	1189.638	STIMULATE	46.9	46.9	46.9	46.9	47.0	1145.3469999999998
1133.252	0	566626	40hz	7.701999999999998	2	0	2	0	11.0	0.0	11.0	0.0						1200.1101730000082	1207.819426300004	1207.819426300004	2.0	['2', 'return']	[3.4379190000036033, 4.126149800009443]	7.71	5.38	3.0	40hz	low_pain	47.0				sub-pilot012	250	1	47	48.5	COM11	COM7	COM3	2023-10-20_09h49.16.361	001-EEG_SVR_Officel	2022.2.5	143.76553566198453		44	sub-pilot012_SVR_EEG_block1-3.protocol.csv	step89	11586	1189.638	STIMULATE	46.9	46.9	46.9	46.9	47.0	1145.3469999999998
1139.382	0	569691	40/Lo	5.236000000000104	2	0	2	0	11.0	0.0	11.0	0.0						1200.1101730000082	1207.819426300004	1207.819426300004	2.0	['2', 'return']	[3.4379190000036033, 4.126149800009443]	7.71	5.38	3.0	40hz	low_pain	47.0				sub-pilot012	250	1	47	48.5	COM11	COM7	COM3	2023-10-20_09h49.16.361	001-EEG_SVR_Officel	2022.2.5	143.76553566198453		44	sub-pilot012_SVR_EEG_block1-3.protocol.csv	step89	11586	1189.638	STIMULATE	46.9	46.9	46.9	46.9	47.0	1145.3469999999998
1150.404	0	575202	drop	11.768000000000029	2	0	2	0	12.0	0.0	12.0	0.0						1224.967300000004	1231.1228464000014	1231.1228464000014	99.0	['9', '9', 'return']	[7.4974116999947, 7.857018399998196, 8.280640500001027]	6.15	5.22	0.0	40hz	drop	47.0				sub-pilot012	250	1	47	48.5	COM11	COM7	COM3	2023-10-20_09h49.16.361	001-EEG_SVR_Officel	2022.2.5	143.76553566198453		45	trigger_not_sent	trigger_not_sent	trigger_not_sent	trigger_not_sent	trigger_not_sent	35	35	35	35	35	trigger_not_sent
1156.554	0	578277	drophz	6.1460000000001855	2	0	2	0	12.0	0.0	12.0	0.0						1224.967300000004	1231.1228464000014	1231.1228464000014	99.0	['9', '9', 'return']	[7.4974116999947, 7.857018399998196, 8.280640500001027]	6.15	5.22	0.0	40hz	drop	47.0				sub-pilot012	250	1	47	48.5	COM11	COM7	COM3	2023-10-20_09h49.16.361	001-EEG_SVR_Officel	2022.2.5	143.76553566198453		45	trigger_not_sent	trigger_not_sent	trigger_not_sent	trigger_not_sent	trigger_not_sent	35	35	35	35	35	trigger_not_sent
1161.774	0	580887	drop/	5.0779999999999745	2	0	2	0	12.0	0.0	12.0	0.0						1224.967300000004	1231.1228464000014	1231.1228464000014	99.0	['9', '9', 'return']	[7.4974116999947, 7.857018399998196, 8.280640500001027]	6.15	5.22	0.0	40hz	drop	47.0				sub-pilot012	250	1	47	48.5	COM11	COM7	COM3	2023-10-20_09h49.16.361	001-EEG_SVR_Officel	2022.2.5	143.76553566198453		45	trigger_not_sent	trigger_not_sent	trigger_not_sent	trigger_not_sent	trigger_not_sent	35	35	35	35	35	trigger_not_sent
1177.86	0	588930	wait	16.08199999999988	2	0	2	0	13.0	0.0	13.0	0.0						1252.422256699996	1260.1532800999994	1260.1532800999994	4.0	['4', 'return']	[3.78538970000227, 4.777054500009399]	7.73	5.63	1.0	20hz	high_pain	47.0				sub-pilot012	250	1	47	48.5	COM11	COM7	COM3	2023-10-20_09h49.16.361	001-EEG_SVR_Officel	2022.2.5	143.76553566198453		46	sub-pilot012_SVR_EEG_block1-3.protocol.csv	step91	12026	1242.207	STIMULATE	48.5	48.4	48.4	48.5	48.7	1197.916
1185.586	0	592793	20hz	7.723999999999933	2	0	2	0	13.0	0.0	13.0	0.0						1252.422256699996	1260.1532800999994	1260.1532800999994	4.0	['4', 'return']	[3.78538970000227, 4.777054500009399]	7.73	5.63	1.0	20hz	high_pain	47.0				sub-pilot012	250	1	47	48.5	COM11	COM7	COM3	2023-10-20_09h49.16.361	001-EEG_SVR_Officel	2022.2.5	143.76553566198453		46	sub-pilot012_SVR_EEG_block1-3.protocol.csv	step91	12026	1242.207	STIMULATE	48.5	48.4	48.4	48.5	48.7	1197.916
1191.966	0	595983	20/Hi	5.489999999999782	2	0	2	0	13.0	0.0	13.0	0.0						1252.422256699996	1260.1532800999994	1260.1532800999994	4.0	['4', 'return']	[3.78538970000227, 4.777054500009399]	7.73	5.63	1.0	20hz	high_pain	47.0				sub-pilot012	250	1	47	48.5	COM11	COM7	COM3	2023-10-20_09h49.16.361	001-EEG_SVR_Officel	2022.2.5	143.76553566198453		46	sub-pilot012_SVR_EEG_block1-3.protocol.csv	step91	12026	1242.207	STIMULATE	48.5	48.4	48.4	48.5	48.7	1197.916
1203.384	0	601692	wait	12.16599999999994	2	0	2	0	14.0	0.0	14.0	0.0						1277.9457970000076	1284.4823853999987	1284.4823853999987	2.0	['2', 'return']	[3.648859499997343, 4.66408770000271]	6.53	6.19	2.0	controle	low_pain	48.5				sub-pilot012	250	1	47	48.5	COM11	COM7	COM3	2023-10-20_09h49.16.361	001-EEG_SVR_Officel	2022.2.5	143.76553566198453		47	sub-pilot012_SVR_EEG_block1-3.protocol.csv	step93	12232	1267.118	STIMULATE	47.0	46.9	46.9	46.9	47.2	1222.8269999999998
1209.914	0	604957	CNhz	6.52800000000002	2	0	2	0	14.0	0.0	14.0	0.0						1277.9457970000076	1284.4823853999987	1284.4823853999987	2.0	['2', 'return']	[3.648859499997343, 4.66408770000271]	6.53	6.19	2.0	controle	low_pain	48.5				sub-pilot012	250	1	47	48.5	COM11	COM7	COM3	2023-10-20_09h49.16.361	001-EEG_SVR_Officel	2022.2.5	143.76553566198453		47	sub-pilot012_SVR_EEG_block1-3.protocol.csv	step93	12232	1267.118	STIMULATE	47.0	46.9	46.9	46.9	47.2	1222.8269999999998
1216.858	0	608429	CN/Lo	6.051999999999907	2	0	2	0	14.0	0.0	14.0	0.0						1277.9457970000076	1284.4823853999987	1284.4823853999987	2.0	['2', 'return']	[3.648859499997343, 4.66408770000271]	6.53	6.19	2.0	controle	low_pain	48.5				sub-pilot012	250	1	47	48.5	COM11	COM7	COM3	2023-10-20_09h49.16.361	001-EEG_SVR_Officel	2022.2.5	143.76553566198453		47	sub-pilot012_SVR_EEG_block1-3.protocol.csv	step93	12232	1267.118	STIMULATE	47.0	46.9	46.9	46.9	47.2	1222.8269999999998
1227.602	0	613801	wait	11.49200000000019	2	0	2	0	15.0	0.0	15.0	0.0						1302.1639595000015	1308.7137497000076	1308.7137497000076	3.0	['3', 'return']	[5.7924391999986256, 6.576207999998587]	6.55	5.2	3.0	20hz	low_pain	47.0				sub-pilot012	250	1	47	48.5	COM11	COM7	COM3	2023-10-20_09h49.16.361	001-EEG_SVR_Officel	2022.2.5	143.76553566198453		48	sub-pilot012_SVR_EEG_block1-3.protocol.csv	step95	12423	1290.407	STIMULATE	46.9	46.9	46.9	46.9	47.0	1246.1159999999998
1234.148	0	617074	20hz	6.543999999999869	2	0	2	0	15.0	0.0	15.0	0.0						1302.1639595000015	1308.7137497000076	1308.7137497000076	3.0	['3', 'return']	[5.7924391999986256, 6.576207999998587]	6.55	5.2	3.0	20hz	low_pain	47.0				sub-pilot012	250	1	47	48.5	COM11	COM7	COM3	2023-10-20_09h49.16.361	001-EEG_SVR_Officel	2022.2.5	143.76553566198453		48	sub-pilot012_SVR_EEG_block1-3.protocol.csv	step95	12423	1290.407	STIMULATE	46.9	46.9	46.9	46.9	47.0	1246.1159999999998
1240.096	0	620048	20/Lo	5.057999999999993	2	0	2	0	15.0	0.0	15.0	0.0						1302.1639595000015	1308.7137497000076	1308.7137497000076	3.0	['3', 'return']	[5.7924391999986256, 6.576207999998587]	6.55	5.2	3.0	20hz	low_pain	47.0				sub-pilot012	250	1	47	48.5	COM11	COM7	COM3	2023-10-20_09h49.16.361	001-EEG_SVR_Officel	2022.2.5	143.76553566198453		48	sub-pilot012_SVR_EEG_block1-3.protocol.csv	step95	12423	1290.407	STIMULATE	46.9	46.9	46.9	46.9	47.0	1246.1159999999998
1291.762	0	645881	wait	52.41399999999999	3	0	3	0	0.0	0.0	0.0	0.0				p	0.650228700003936	1366.3243313999992	1373.7494601000071	1373.7494601000071	6.5	['6', 'a', '5', 'return']	[3.3011062999867136, 3.9808854999864707, 4.244986299992888, 5.068912099988665]	7.42	5.13	0.0	controle	high_pain	47.0				sub-pilot012	250	1	47	48.5	COM11	COM7	COM3	2023-10-20_09h49.16.361	001-EEG_SVR_Officel	2022.2.5	143.76553566198453		49	sub-pilot012_SVR_EEG_block4-6.protocol.csv	step3	395	39.309	STIMULATE	48.7	48.4	48.4	48.4	48.8	1310.857
1299.182	0	649591	CNhz	7.41800000000012	3	0	3	0	0.0	0.0	0.0	0.0				p	0.650228700003936	1366.3243313999992	1373.7494601000071	1373.7494601000071	6.5	['6', 'a', '5', 'return']	[3.3011062999867136, 3.9808854999864707, 4.244986299992888, 5.068912099988665]	7.42	5.13	0.0	controle	high_pain	47.0				sub-pilot012	250	1	47	48.5	COM11	COM7	COM3	2023-10-20_09h49.16.361	001-EEG_SVR_Officel	2022.2.5	143.76553566198453		49	sub-pilot012_SVR_EEG_block4-6.protocol.csv	step3	395	39.309	STIMULATE	48.7	48.4	48.4	48.4	48.8	1310.857
1305.06	0	652530	CN/Hi	4.988000000000056	3	0	3	0	0.0	0.0	0.0	0.0				p	0.650228700003936	1366.3243313999992	1373.7494601000071	1373.7494601000071	6.5	['6', 'a', '5', 'return']	[3.3011062999867136, 3.9808854999864707, 4.244986299992888, 5.068912099988665]	7.42	5.13	0.0	controle	high_pain	47.0				sub-pilot012	250	1	47	48.5	COM11	COM7	COM3	2023-10-20_09h49.16.361	001-EEG_SVR_Officel	2022.2.5	143.76553566198453		49	sub-pilot012_SVR_EEG_block4-6.protocol.csv	step3	395	39.309	STIMULATE	48.7	48.4	48.4	48.4	48.8	1310.857
1317.272	0	658636	wait	12.957999999999856	3	0	3	0	1.0	0.0	1.0	0.0						1391.834337399996	1399.7046188999957	1399.7046188999957	2.0	['2', 'return']	[2.475178799999412, 3.0995278999907896]	7.87	5.93	1.0	40hz	low_pain	48.5				sub-pilot012	250	1	47	48.5	COM11	COM7	COM3	2023-10-20_09h49.16.361	001-EEG_SVR_Officel	2022.2.5	143.76553566198453		50	sub-pilot012_SVR_EEG_block4-6.protocol.csv	step5	664	66.004	STIMULATE	47.0	46.9	46.9	46.9	47.2	1337.552
1325.136	0	662568	40hz	7.86200000000008	3	0	3	0	1.0	0.0	1.0	0.0						1391.834337399996	1399.7046188999957	1399.7046188999957	2.0	['2', 'return']	[2.475178799999412, 3.0995278999907896]	7.87	5.93	1.0	40hz	low_pain	48.5				sub-pilot012	250	1	47	48.5	COM11	COM7	COM3	2023-10-20_09h49.16.361	001-EEG_SVR_Officel	2022.2.5	143.76553566198453		50	sub-pilot012_SVR_EEG_block4-6.protocol.csv	step5	664	66.004	STIMULATE	47.0	46.9	46.9	46.9	47.2	1337.552
1331.816	0	665908	40/Lo	0.0	3	0	3	0	1.0	0.0	1.0	0.0						1391.834337399996	1399.7046188999957	1399.7046188999957	2.0	['2', 'return']	[2.475178799999412, 3.0995278999907896]	7.87	5.93	1.0	40hz	low_pain	48.5				sub-pilot012	250	1	47	48.5	COM11	COM7	COM3	2023-10-20_09h49.16.361	001-EEG_SVR_Officel	2022.2.5	143.76553566198453		50	sub-pilot012_SVR_EEG_block4-6.protocol.csv	step5	664	66.004	STIMULATE	47.0	46.9	46.9	46.9	47.2	1337.552
1341.26	0	670630	wait	10.19399999999996	3	0	3	0	2.0	0.0	2.0	0.0						1415.8236957000045	1421.96551010001	1421.96551010001	5.5	['5', 'a', '5', 'return']	[3.063467200001469, 3.430177799993544, 3.5988003999955254, 4.3588353999948595]	6.14	5.52	2.0	10hz	high_pain	47.0				sub-pilot012	250	1	47	48.5	COM11	COM7	COM3	2023-10-20_09h49.16.361	001-EEG_SVR_Officel	2022.2.5	143.76553566198453		51	sub-pilot012_SVR_EEG_block4-6.protocol.csv	step7	886	88.017	STIMULATE	48.5	48.4	48.4	48.4	48.8	1359.565
1347.396	0	673698	10hz	6.132000000000062	3	0	3	0	2.0	0.0	2.0	0.0						1415.8236957000045	1421.96551010001	1421.96551010001	5.5	['5', 'a', '5', 'return']	[3.063467200001469, 3.430177799993544, 3.5988003999955254, 4.3588353999948595]	6.14	5.52	2.0	10hz	high_pain	47.0				sub-pilot012	250	1	47	48.5	COM11	COM7	COM3	2023-10-20_09h49.16.361	001-EEG_SVR_Officel	2022.2.5	143.76553566198453		51	sub-pilot012_SVR_EEG_block4-6.protocol.csv	step7	886	88.017	STIMULATE	48.5	48.4	48.4	48.4	48.8	1359.565
1353.664	0	676832	10/Hi	5.377999999999929	3	0	3	0	2.0	0.0	2.0	0.0						1415.8236957000045	1421.96551010001	1421.96551010001	5.5	['5', 'a', '5', 'return']	[3.063467200001469, 3.430177799993544, 3.5988003999955254, 4.3588353999948595]	6.14	5.52	2.0	10hz	high_pain	47.0				sub-pilot012	250	1	47	48.5	COM11	COM7	COM3	2023-10-20_09h49.16.361	001-EEG_SVR_Officel	2022.2.5	143.76553566198453		51	sub-pilot012_SVR_EEG_block4-6.protocol.csv	step7	886	88.017	STIMULATE	48.5	48.4	48.4	48.4	48.8	1359.565
1364.78	0	682390	wait	11.864000000000033	3	0	3	0	3.0	0.0	3.0	0.0						1439.3430683000042	1446.5148629000032	1446.5148629000032	5.0	['5', 'return']	[3.7502173999964725, 4.69365889999608]	7.16	5.05	3.0	40hz	high_pain	48.5				sub-pilot012	250	1	47	48.5	COM11	COM7	COM3	2023-10-20_09h49.16.361	001-EEG_SVR_Officel	2022.2.5	143.76553566198453		52	sub-pilot012_SVR_EEG_block4-6.protocol.csv	step9	1128	112.066	STIMULATE	48.6	48.4	48.4	48.4	48.5	1383.614
1371.94	0	685970	40hz	7.158000000000129	3	0	3	0	3.0	0.0	3.0	0.0						1439.3430683000042	1446.5148629000032	1446.5148629000032	5.0	['5', 'return']	[3.7502173999964725, 4.69365889999608]	7.16	5.05	3.0	40hz	high_pain	48.5				sub-pilot012	250	1	47	48.5	COM11	COM7	COM3	2023-10-20_09h49.16.361	001-EEG_SVR_Officel	2022.2.5	143.76553566198453		52	sub-pilot012_SVR_EEG_block4-6.protocol.csv	step9	1128	112.066	STIMULATE	48.6	48.4	48.4	48.4	48.5	1383.614
1377.744	0	688872	40/Hi	4.905999999999949	3	0	3	0	3.0	0.0	3.0	0.0						1439.3430683000042	1446.5148629000032	1446.5148629000032	5.0	['5', 'return']	[3.7502173999964725, 4.69365889999608]	7.16	5.05	3.0	40hz	high_pain	48.5				sub-pilot012	250	1	47	48.5	COM11	COM7	COM3	2023-10-20_09h49.16.361	001-EEG_SVR_Officel	2022.2.5	143.76553566198453		52	sub-pilot012_SVR_EEG_block4-6.protocol.csv	step9	1128	112.066	STIMULATE	48.6	48.4	48.4	48.4	48.5	1383.614
1389.654	0	694827	wait	12.657999999999902	3	0	3	0	4.0	0.0	4.0	0.0						1464.217850800007	1470.9207549999992	1470.9207549999992	4.0	['4', 'return']	[3.7460047000058694, 4.321883500000695]	6.7	5.04	0.0	10hz	low_pain	48.5				sub-pilot012	250	1	47	48.5	COM11	COM7	COM3	2023-10-20_09h49.16.361	001-EEG_SVR_Officel	2022.2.5	143.76553566198453		53	sub-pilot012_SVR_EEG_block4-6.protocol.csv	step11	1375	136.519	STIMULATE	47.0	46.9	46.9	46.9	47.2	1408.067
1396.352	0	698176	10hz	6.69600000000014	3	0	3	0	4.0	0.0	4.0	0.0						1464.217850800007	1470.9207549999992	1470.9207549999992	4.0	['4', 'return']	[3.7460047000058694, 4.321883500000695]	6.7	5.04	0.0	10hz	low_pain	48.5				sub-pilot012	250	1	47	48.5	COM11	COM7	COM3	2023-10-20_09h49.16.361	001-EEG_SVR_Officel	2022.2.5	143.76553566198453		53	sub-pilot012_SVR_EEG_block4-6.protocol.csv	step11	1375	136.519	STIMULATE	47.0	46.9	46.9	46.9	47.2	1408.067
1402.142	0	701071	10/Lo	4.898000000000138	3	0	3	0	4.0	0.0	4.0	0.0						1464.217850800007	1470.9207549999992	1470.9207549999992	4.0	['4', 'return']	[3.7460047000058694, 4.321883500000695]	6.7	5.04	0.0	10hz	low_pain	48.5				sub-pilot012	250	1	47	48.5	COM11	COM7	COM3	2023-10-20_09h49.16.361	001-EEG_SVR_Officel	2022.2.5	143.76553566198453		53	sub-pilot012_SVR_EEG_block4-6.protocol.csv	step11	1375	136.519	STIMULATE	47.0	46.9	46.9	46.9	47.2	1408.067
1413.698	0	706849	wait	12.304000000000087	3	0	3	0	5.0	0.0	5.0	0.0						1488.2623541000066	1495.1880858000077	1495.1880858000077	3.0	['3', 'return']	[2.8778203000110807, 3.5025003000046127]	6.92	6.07	1.0	controle	low_pain	47.0				sub-pilot012	250	1	47	48.5	COM11	COM7	COM3	2023-10-20_09h49.16.361	001-EEG_SVR_Officel	2022.2.5	143.76553566198453		54	sub-pilot012_SVR_EEG_block4-6.protocol.csv	step13	1629	161.701	STIMULATE	47.0	46.9	46.9	47.0	47.1	1433.249
1420.618	0	710309	CNhz	6.917999999999893	3	0	3	0	5.0	0.0	5.0	0.0						1488.2623541000066	1495.1880858000077	1495.1880858000077	3.0	['3', 'return']	[2.8778203000110807, 3.5025003000046127]	6.92	6.07	1.0	controle	low_pain	47.0				sub-pilot012	250	1	47	48.5	COM11	COM7	COM3	2023-10-20_09h49.16.361	001-EEG_SVR_Officel	2022.2.5	143.76553566198453		54	sub-pilot012_SVR_EEG_block4-6.protocol.csv	step13	1629	161.701	STIMULATE	47.0	46.9	46.9	47.0	47.1	1433.249
1427.436	0	713718	CN/Lo	5.925999999999931	3	0	3	0	5.0	0.0	5.0	0.0						1488.2623541000066	1495.1880858000077	1495.1880858000077	3.0	['3', 'return']	[2.8778203000110807, 3.5025003000046127]	6.92	6.07	1.0	controle	low_pain	47.0				sub-pilot012	250	1	47	48.5	COM11	COM7	COM3	2023-10-20_09h49.16.361	001-EEG_SVR_Officel	2022.2.5	143.76553566198453		54	sub-pilot012_SVR_EEG_block4-6.protocol.csv	step13	1629	161.701	STIMULATE	47.0	46.9	46.9	47.0	47.1	1433.249
1437.146	0	718573	wait	10.455999999999904	3	0	3	0	6.0	0.0	6.0	0.0						1511.7096084000077	1519.300713100005	1519.300713100005	4.0	['4', 'return']	[3.2846964999916963, 3.837218100001337]	7.59	5.0	2.0	40hz	low_pain	48.5				sub-pilot012	250	1	47	48.5	COM11	COM7	COM3	2023-10-20_09h49.16.361	001-EEG_SVR_Officel	2022.2.5	143.76553566198453		55	sub-pilot012_SVR_EEG_block4-6.protocol.csv	step15	1862	184.804	STIMULATE	46.9	46.9	46.9	46.9	47.2	1456.3519999999999
1444.732	0	722366	40hz	7.58400000000006	3	0	3	0	6.0	0.0	6.0	0.0						1511.7096084000077	1519.300713100005	1519.300713100005	4.0	['4', 'return']	[3.2846964999916963, 3.837218100001337]	7.59	5.0	2.0	40hz	low_pain	48.5				sub-pilot012	250	1	47	48.5	COM11	COM7	COM3	2023-10-20_09h49.16.361	001-EEG_SVR_Officel	2022.2.5	143.76553566198453		55	sub-pilot012_SVR_EEG_block4-6.protocol.csv	step15	1862	184.804	STIMULATE	46.9	46.9	46.9	46.9	47.2	1456.3519999999999
1450.48	0	725240	40/Lo	4.8559999999999945	3	0	3	0	6.0	0.0	6.0	0.0						1511.7096084000077	1519.300713100005	1519.300713100005	4.0	['4', 'return']	[3.2846964999916963, 3.837218100001337]	7.59	5.0	2.0	40hz	low_pain	48.5				sub-pilot012	250	1	47	48.5	COM11	COM7	COM3	2023-10-20_09h49.16.361	001-EEG_SVR_Officel	2022.2.5	143.76553566198453		55	sub-pilot012_SVR_EEG_block4-6.protocol.csv	step15	1862	184.804	STIMULATE	46.9	46.9	46.9	46.9	47.2	1456.3519999999999
1461.592	0	730796	wait	11.858000000000175	3	0	3	0	7.0	0.0	7.0	0.0						1536.1568941000005	1542.9106945000094	1542.9106945000094	5.0	['5', 'return']	[2.664088699995773, 4.119329599998309]	6.75	6.11	3.0	10hz	high_pain	47.0				sub-pilot012	250	1	47	48.5	COM11	COM7	COM3	2023-10-20_09h49.16.361	001-EEG_SVR_Officel	2022.2.5	143.76553566198453		56	sub-pilot012_SVR_EEG_block4-6.protocol.csv	step17	2110	209.425	STIMULATE	48.5	48.4	48.4	48.4	48.5	1480.973
1468.34	0	734170	10hz	6.745999999999867	3	0	3	0	7.0	0.0	7.0	0.0						1536.1568941000005	1542.9106945000094	1542.9106945000094	5.0	['5', 'return']	[2.664088699995773, 4.119329599998309]	6.75	6.11	3.0	10hz	high_pain	47.0				sub-pilot012	250	1	47	48.5	COM11	COM7	COM3	2023-10-20_09h49.16.361	001-EEG_SVR_Officel	2022.2.5	143.76553566198453		56	sub-pilot012_SVR_EEG_block4-6.protocol.csv	step17	2110	209.425	STIMULATE	48.5	48.4	48.4	48.4	48.5	1480.973
1475.206	0	737603	10/Hi	5.973999999999933	3	0	3	0	7.0	0.0	7.0	0.0						1536.1568941000005	1542.9106945000094	1542.9106945000094	5.0	['5', 'return']	[2.664088699995773, 4.119329599998309]	6.75	6.11	3.0	10hz	high_pain	47.0				sub-pilot012	250	1	47	48.5	COM11	COM7	COM3	2023-10-20_09h49.16.361	001-EEG_SVR_Officel	2022.2.5	143.76553566198453		56	sub-pilot012_SVR_EEG_block4-6.protocol.csv	step17	2110	209.425	STIMULATE	48.5	48.4	48.4	48.4	48.5	1480.973
1485.492	0	742746	wait	11.033999999999878	3	0	3	0	8.0	0.0	8.0	0.0						1560.0556020000076	1566.618669500007	1566.618669500007	6.5	['6', 'a', '5', 'return']	[2.168129700003192, 2.5994711999956053, 2.7505878999945708, 3.3908030000020517]	6.56	5.23	0.0	20hz	high_pain	48.5				sub-pilot012	250	1	47	48.5	COM11	COM7	COM3	2023-10-20_09h49.16.361	001-EEG_SVR_Officel	2022.2.5	143.76553566198453		57	sub-pilot012_SVR_EEG_block4-6.protocol.csv	step19	2341	232.317	STIMULATE	48.7	48.4	48.4	48.4	48.8	1503.865
1492.05	0	746025	20hz	6.55600000000004	3	0	3	0	8.0	0.0	8.0	0.0						1560.0556020000076	1566.618669500007	1566.618669500007	6.5	['6', 'a', '5', 'return']	[2.168129700003192, 2.5994711999956053, 2.7505878999945708, 3.3908030000020517]	6.56	5.23	0.0	20hz	high_pain	48.5				sub-pilot012	250	1	47	48.5	COM11	COM7	COM3	2023-10-20_09h49.16.361	001-EEG_SVR_Officel	2022.2.5	143.76553566198453		57	sub-pilot012_SVR_EEG_block4-6.protocol.csv	step19	2341	232.317	STIMULATE	48.7	48.4	48.4	48.4	48.8	1503.865
1498.028	0	749014	20/Hi	5.086000000000013	3	0	3	0	8.0	0.0	8.0	0.0						1560.0556020000076	1566.618669500007	1566.618669500007	6.5	['6', 'a', '5', 'return']	[2.168129700003192, 2.5994711999956053, 2.7505878999945708, 3.3908030000020517]	6.56	5.23	0.0	20hz	high_pain	48.5				sub-pilot012	250	1	47	48.5	COM11	COM7	COM3	2023-10-20_09h49.16.361	001-EEG_SVR_Officel	2022.2.5	143.76553566198453		57	sub-pilot012_SVR_EEG_block4-6.protocol.csv	step19	2341	232.317	STIMULATE	48.7	48.4	48.4	48.4	48.8	1503.865
1508.466	0	754233	wait	11.185999999999922	3	0	3	0	9.0	0.0	9.0	0.0						1583.0304706000024	1588.3056013000023	1588.3056013000023	6.5	['6', 'a', '5', 'return']	[3.331030000001192, 3.547153300009086, 3.7713727000082145, 4.380513500000234]	5.27	5.41	1.0	20hz	high_pain	48.5				sub-pilot012	250	1	47	48.5	COM11	COM7	COM3	2023-10-20_09h49.16.361	001-EEG_SVR_Officel	2022.2.5	143.76553566198453		58	sub-pilot012_SVR_EEG_block4-6.protocol.csv	step21	2562	254.216	STIMULATE	48.7	48.4	48.4	48.4	48.8	1525.764
1513.734	0	756867	20hz	5.265999999999849	3	0	3	0	9.0	0.0	9.0	0.0						1583.0304706000024	1588.3056013000023	1588.3056013000023	6.5	['6', 'a', '5', 'return']	[3.331030000001192, 3.547153300009086, 3.7713727000082145, 4.380513500000234]	5.27	5.41	1.0	20hz	high_pain	48.5				sub-pilot012	250	1	47	48.5	COM11	COM7	COM3	2023-10-20_09h49.16.361	001-EEG_SVR_Officel	2022.2.5	143.76553566198453		58	sub-pilot012_SVR_EEG_block4-6.protocol.csv	step21	2562	254.216	STIMULATE	48.7	48.4	48.4	48.4	48.8	1525.764
1519.89	0	759945	20/Hi	5.266000000000076	3	0	3	0	9.0	0.0	9.0	0.0						1583.0304706000024	1588.3056013000023	1588.3056013000023	6.5	['6', 'a', '5', 'return']	[3.331030000001192, 3.547153300009086, 3.7713727000082145, 4.380513500000234]	5.27	5.41	1.0	20hz	high_pain	48.5				sub-pilot012	250	1	47	48.5	COM11	COM7	COM3	2023-10-20_09h49.16.361	001-EEG_SVR_Officel	2022.2.5	143.76553566198453		58	sub-pilot012_SVR_EEG_block4-6.protocol.csv	step21	2562	254.216	STIMULATE	48.7	48.4	48.4	48.4	48.8	1525.764
1531.134	0	765567	wait	11.990000000000009	3	0	3	0	10.0	0.0	10.0	0.0						1605.6998219000088	1611.2435777000064	1611.2435777000064	3.0	['3', 'return']	[2.2553897999896435, 2.89542449999135]	5.54	5.64	2.0	40hz	low_pain	47.0				sub-pilot012	250	1	47	48.5	COM11	COM7	COM3	2023-10-20_09h49.16.361	001-EEG_SVR_Officel	2022.2.5	143.76553566198453		59	sub-pilot012_SVR_EEG_block4-6.protocol.csv	step23	2796	277.44	STIMULATE	47.2	46.9	46.9	47.0	47.2	1548.9879999999998
1536.674	0	768337	40hz	5.536000000000058	3	0	3	0	10.0	0.0	10.0	0.0						1605.6998219000088	1611.2435777000064	1611.2435777000064	3.0	['3', 'return']	[2.2553897999896435, 2.89542449999135]	5.54	5.64	2.0	40hz	low_pain	47.0				sub-pilot012	250	1	47	48.5	COM11	COM7	COM3	2023-10-20_09h49.16.361	001-EEG_SVR_Officel	2022.2.5	143.76553566198453		59	sub-pilot012_SVR_EEG_block4-6.protocol.csv	step23	2796	277.44	STIMULATE	47.2	46.9	46.9	47.0	47.2	1548.9879999999998
1543.068	0	771534	40/Lo	5.503999999999905	3	0	3	0	10.0	0.0	10.0	0.0						1605.6998219000088	1611.2435777000064	1611.2435777000064	3.0	['3', 'return']	[2.2553897999896435, 2.89542449999135]	5.54	5.64	2.0	40hz	low_pain	47.0				sub-pilot012	250	1	47	48.5	COM11	COM7	COM3	2023-10-20_09h49.16.361	001-EEG_SVR_Officel	2022.2.5	143.76553566198453		59	sub-pilot012_SVR_EEG_block4-6.protocol.csv	step23	2796	277.44	STIMULATE	47.2	46.9	46.9	47.0	47.2	1548.9879999999998
1552.59	0	776295	wait	0.0	3	0	3	0	11.0	0.0	11.0	0.0						1627.1538453999965	1635.0886257999955	1635.0886257999955	5.0	['5', 'return']	[3.203875799998059, 3.9254151999921305]	7.93	5.91	3.0	controle	high_pain	48.5				sub-pilot012	250	1	47	48.5	COM11	COM7	COM3	2023-10-20_09h49.16.361	001-EEG_SVR_Officel	2022.2.5	143.76553566198453		60	sub-pilot012_SVR_EEG_block4-6.protocol.csv	step25	3038	301.455	STIMULATE	48.5	48.4	48.4	48.5	48.4	1573.003
1560.516	0	780258	CNhz	7.926000000000158	3	0	3	0	11.0	0.0	11.0	0.0						1627.1538453999965	1635.0886257999955	1635.0886257999955	5.0	['5', 'return']	[3.203875799998059, 3.9254151999921305]	7.93	5.91	3.0	controle	high_pain	48.5				sub-pilot012	250	1	47	48.5	COM11	COM7	COM3	2023-10-20_09h49.16.361	001-EEG_SVR_Officel	2022.2.5	143.76553566198453		60	sub-pilot012_SVR_EEG_block4-6.protocol.csv	step25	3038	301.455	STIMULATE	48.5	48.4	48.4	48.5	48.4	1573.003
1567.18	0	783590	CN/Hi	5.772000000000162	3	0	3	0	11.0	0.0	11.0	0.0						1627.1538453999965	1635.0886257999955	1635.0886257999955	5.0	['5', 'return']	[3.203875799998059, 3.9254151999921305]	7.93	5.91	3.0	controle	high_pain	48.5				sub-pilot012	250	1	47	48.5	COM11	COM7	COM3	2023-10-20_09h49.16.361	001-EEG_SVR_Officel	2022.2.5	143.76553566198453		60	sub-pilot012_SVR_EEG_block4-6.protocol.csv	step25	3038	301.455	STIMULATE	48.5	48.4	48.4	48.5	48.4	1573.003
1577.468	0	788734	wait	11.036000000000058	3	0	3	0	12.0	0.0	12.0	0.0						1652.0322498000023	1659.9174239999993	1659.9174239999993	5.5	['5', 'a', '5', 'return']	[3.1819283999939216, 3.470624699999462, 3.6057851999939885, 4.231097500000033]	7.88	6.09	0.0	20hz	low_pain	47.0				sub-pilot012	250	1	47	48.5	COM11	COM7	COM3	2023-10-20_09h49.16.361	001-EEG_SVR_Officel	2022.2.5	143.76553566198453		61	sub-pilot012_SVR_EEG_block4-6.protocol.csv	step27	3292	326.616	STIMULATE	47.0	46.9	46.9	47.0	47.2	1598.164
1585.346	0	792673	20hz	7.875999999999976	3	0	3	0	12.0	0.0	12.0	0.0						1652.0322498000023	1659.9174239999993	1659.9174239999993	5.5	['5', 'a', '5', 'return']	[3.1819283999939216, 3.470624699999462, 3.6057851999939885, 4.231097500000033]	7.88	6.09	0.0	20hz	low_pain	47.0				sub-pilot012	250	1	47	48.5	COM11	COM7	COM3	2023-10-20_09h49.16.361	001-EEG_SVR_Officel	2022.2.5	143.76553566198453		61	sub-pilot012_SVR_EEG_block4-6.protocol.csv	step27	3292	326.616	STIMULATE	47.0	46.9	46.9	47.0	47.2	1598.164
1592.184	0	796092	20/Lo	5.947999999999865	3	0	3	0	12.0	0.0	12.0	0.0						1652.0322498000023	1659.9174239999993	1659.9174239999993	5.5	['5', 'a', '5', 'return']	[3.1819283999939216, 3.470624699999462, 3.6057851999939885, 4.231097500000033]	7.88	6.09	0.0	20hz	low_pain	47.0				sub-pilot012	250	1	47	48.5	COM11	COM7	COM3	2023-10-20_09h49.16.361	001-EEG_SVR_Officel	2022.2.5	143.76553566198453		61	sub-pilot012_SVR_EEG_block4-6.protocol.csv	step27	3292	326.616	STIMULATE	47.0	46.9	46.9	47.0	47.2	1598.164
1602.602	0	801301	wait	11.166000000000167	3	0	3	0	13.0	0.0	13.0	0.0						1677.1668387999962	1684.7794486000057	1684.7794486000057	4.0	['4', 'return']	[2.4147845999978017, 2.967228099994827]	7.61	5.2	1.0	10hz	low_pain	48.5				sub-pilot012	250	1	47	48.5	COM11	COM7	COM3	2023-10-20_09h49.16.361	001-EEG_SVR_Officel	2022.2.5	143.76553566198453		62	sub-pilot012_SVR_EEG_block4-6.protocol.csv	step29	3532	350.47	STIMULATE	47.2	46.8	46.9	46.9	47.2	1622.018
1610.208	0	805104	10hz	7.604000000000042	3	0	3	0	13.0	0.0	13.0	0.0						1677.1668387999962	1684.7794486000057	1684.7794486000057	4.0	['4', 'return']	[2.4147845999978017, 2.967228099994827]	7.61	5.2	1.0	10hz	low_pain	48.5				sub-pilot012	250	1	47	48.5	COM11	COM7	COM3	2023-10-20_09h49.16.361	001-EEG_SVR_Officel	2022.2.5	143.76553566198453		62	sub-pilot012_SVR_EEG_block4-6.protocol.csv	step29	3532	350.47	STIMULATE	47.2	46.8	46.9	46.9	47.2	1622.018
1616.158	0	808079	10/Lo	5.057999999999993	3	0	3	0	13.0	0.0	13.0	0.0						1677.1668387999962	1684.7794486000057	1684.7794486000057	4.0	['4', 'return']	[2.4147845999978017, 2.967228099994827]	7.61	5.2	1.0	10hz	low_pain	48.5				sub-pilot012	250	1	47	48.5	COM11	COM7	COM3	2023-10-20_09h49.16.361	001-EEG_SVR_Officel	2022.2.5	143.76553566198453		62	sub-pilot012_SVR_EEG_block4-6.protocol.csv	step29	3532	350.47	STIMULATE	47.2	46.8	46.9	46.9	47.2	1622.018
1626.202	0	813101	wait	10.791999999999916	3	0	3	0	14.0	0.0	14.0	0.0						1700.7672597000055	1705.9205242000023	1705.9205242000023	3.0	['3', 'return']	[2.2180331999988994, 2.8095559000066714]	5.15	5.75	2.0	controle	low_pain	47.0				sub-pilot012	250	1	47	48.5	COM11	COM7	COM3	2023-10-20_09h49.16.361	001-EEG_SVR_Officel	2022.2.5	143.76553566198453		63	sub-pilot012_SVR_EEG_block4-6.protocol.csv	step31	3751	372.118	STIMULATE	46.9	46.9	46.9	46.9	47.2	1643.666
1631.35	0	815675	CNhz	5.145999999999958	3	0	3	0	14.0	0.0	14.0	0.0						1700.7672597000055	1705.9205242000023	1705.9205242000023	3.0	['3', 'return']	[2.2180331999988994, 2.8095559000066714]	5.15	5.75	2.0	controle	low_pain	47.0				sub-pilot012	250	1	47	48.5	COM11	COM7	COM3	2023-10-20_09h49.16.361	001-EEG_SVR_Officel	2022.2.5	143.76553566198453		63	sub-pilot012_SVR_EEG_block4-6.protocol.csv	step31	3751	372.118	STIMULATE	46.9	46.9	46.9	46.9	47.2	1643.666
1637.848	0	818924	CN/Lo	5.6059999999999945	3	0	3	0	14.0	0.0	14.0	0.0						1700.7672597000055	1705.9205242000023	1705.9205242000023	3.0	['3', 'return']	[2.2180331999988994, 2.8095559000066714]	5.15	5.75	2.0	controle	low_pain	47.0				sub-pilot012	250	1	47	48.5	COM11	COM7	COM3	2023-10-20_09h49.16.361	001-EEG_SVR_Officel	2022.2.5	143.76553566198453		63	sub-pilot012_SVR_EEG_block4-6.protocol.csv	step31	3751	372.118	STIMULATE	46.9	46.9	46.9	46.9	47.2	1643.666
1647.182	0	823591	wait	10.082000000000107	3	0	3	0	15.0	0.0	15.0	0.0						1721.7483969000025	1727.123898500009	1727.123898500009	5.5	['5', 'a', '5', 'return']	[2.949628300004406, 3.1892408999992767, 3.4054923999938183, 4.158585900004255]	5.37	6.04	3.0	20hz	high_pain	48.5				sub-pilot012	250	1	47	48.5	COM11	COM7	COM3	2023-10-20_09h49.16.361	001-EEG_SVR_Officel	2022.2.5	143.76553566198453		64	sub-pilot012_SVR_EEG_block4-6.protocol.csv	step33	3968	393.617	STIMULATE	48.5	48.4	48.4	48.5	48.7	1665.165
1652.554	0	826277	20hz	5.370000000000118	3	0	3	0	15.0	0.0	15.0	0.0						1721.7483969000025	1727.123898500009	1727.123898500009	5.5	['5', 'a', '5', 'return']	[2.949628300004406, 3.1892408999992767, 3.4054923999938183, 4.158585900004255]	5.37	6.04	3.0	20hz	high_pain	48.5				sub-pilot012	250	1	47	48.5	COM11	COM7	COM3	2023-10-20_09h49.16.361	001-EEG_SVR_Officel	2022.2.5	143.76553566198453		64	sub-pilot012_SVR_EEG_block4-6.protocol.csv	step33	3968	393.617	STIMULATE	48.5	48.4	48.4	48.5	48.7	1665.165
1659.344	0	829672	20/Hi	5.898000000000138	3	0	3	0	15.0	0.0	15.0	0.0						1721.7483969000025	1727.123898500009	1727.123898500009	5.5	['5', 'a', '5', 'return']	[2.949628300004406, 3.1892408999992767, 3.4054923999938183, 4.158585900004255]	5.37	6.04	3.0	20hz	high_pain	48.5				sub-pilot012	250	1	47	48.5	COM11	COM7	COM3	2023-10-20_09h49.16.361	001-EEG_SVR_Officel	2022.2.5	143.76553566198453		64	sub-pilot012_SVR_EEG_block4-6.protocol.csv	step33	3968	393.617	STIMULATE	48.5	48.4	48.4	48.5	48.7	1665.165
1734.204	0	867102	wait	75.60799999999995	4	0	4	0	0.0	0.0	0.0	0.0				p	0.9206752000027336	1808.7690371000065	1814.0033599000017	1814.0033599000017	6.0	['6', 'return']	[2.6231087000051048, 3.175116500002332]	5.23	6.15	0.0	40hz	high_pain	47.0				sub-pilot012	250	1	47	48.5	COM11	COM7	COM3	2023-10-20_09h49.16.361	001-EEG_SVR_Officel	2022.2.5	143.76553566198453		65	sub-pilot012_SVR_EEG_block4-6.protocol.csv	step35	4841	480.721	STIMULATE	48.7	48.4	48.4	48.4	48.8	1752.269
1739.432	0	869716	40hz	5.226000000000113	4	0	4	0	0.0	0.0	0.0	0.0				p	0.9206752000027336	1808.7690371000065	1814.0033599000017	1814.0033599000017	6.0	['6', 'return']	[2.6231087000051048, 3.175116500002332]	5.23	6.15	0.0	40hz	high_pain	47.0				sub-pilot012	250	1	47	48.5	COM11	COM7	COM3	2023-10-20_09h49.16.361	001-EEG_SVR_Officel	2022.2.5	143.76553566198453		65	sub-pilot012_SVR_EEG_block4-6.protocol.csv	step35	4841	480.721	STIMULATE	48.7	48.4	48.4	48.4	48.8	1752.269
1746.332	0	873166	40/Hi	6.008000000000038	4	0	4	0	0.0	0.0	0.0	0.0				p	0.9206752000027336	1808.7690371000065	1814.0033599000017	1814.0033599000017	6.0	['6', 'return']	[2.6231087000051048, 3.175116500002332]	5.23	6.15	0.0	40hz	high_pain	47.0				sub-pilot012	250	1	47	48.5	COM11	COM7	COM3	2023-10-20_09h49.16.361	001-EEG_SVR_Officel	2022.2.5	143.76553566198453		65	sub-pilot012_SVR_EEG_block4-6.protocol.csv	step35	4841	480.721	STIMULATE	48.7	48.4	48.4	48.4	48.8	1752.269
1755.632	0	877816	wait	10.04600000000005	4	0	4	0	1.0	0.0	1.0	0.0						1830.199158000003	1835.2240343000008	1835.2240343000008	6.0	['6', 'return']	[2.318149300001096, 2.6858729000086896]	5.02	6.04	1.0	40hz	high_pain	47.0				sub-pilot012	250	1	47	48.5	COM11	COM7	COM3	2023-10-20_09h49.16.361	001-EEG_SVR_Officel	2022.2.5	143.76553566198453		66	sub-pilot012_SVR_EEG_block4-6.protocol.csv	step37	5054	501.827	STIMULATE	48.7	48.4	48.4	48.5	48.8	1773.375
1760.65	0	880325	40hz	5.014000000000124	4	0	4	0	1.0	0.0	1.0	0.0						1830.199158000003	1835.2240343000008	1835.2240343000008	6.0	['6', 'return']	[2.318149300001096, 2.6858729000086896]	5.02	6.04	1.0	40hz	high_pain	47.0				sub-pilot012	250	1	47	48.5	COM11	COM7	COM3	2023-10-20_09h49.16.361	001-EEG_SVR_Officel	2022.2.5	143.76553566198453		66	sub-pilot012_SVR_EEG_block4-6.protocol.csv	step37	5054	501.827	STIMULATE	48.7	48.4	48.4	48.5	48.8	1773.375
1767.44	0	883720	40/Hi	5.900000000000091	4	0	4	0	1.0	0.0	1.0	0.0						1830.199158000003	1835.2240343000008	1835.2240343000008	6.0	['6', 'return']	[2.318149300001096, 2.6858729000086896]	5.02	6.04	1.0	40hz	high_pain	47.0				sub-pilot012	250	1	47	48.5	COM11	COM7	COM3	2023-10-20_09h49.16.361	001-EEG_SVR_Officel	2022.2.5	143.76553566198453		66	sub-pilot012_SVR_EEG_block4-6.protocol.csv	step37	5054	501.827	STIMULATE	48.7	48.4	48.4	48.5	48.8	1773.375
1776.356	0	888178	wait	9.663999999999987	4	0	4	0	2.0	0.0	2.0	0.0						1850.9239069000032	1856.716668299996	1856.716668299996	3.0	['3', 'return']	[2.17397489999712, 2.9415741999982856]	5.79	5.02	2.0	20hz	low_pain	47.0				sub-pilot012	250	1	47	48.5	COM11	COM7	COM3	2023-10-20_09h49.16.361	001-EEG_SVR_Officel	2022.2.5	143.76553566198453		67	sub-pilot012_SVR_EEG_block4-6.protocol.csv	step39	5260	522.244	STIMULATE	47.1	46.9	46.9	46.9	47.2	1793.792
1782.146	0	891073	20hz	5.786000000000058	4	0	4	0	2.0	0.0	2.0	0.0						1850.9239069000032	1856.716668299996	1856.716668299996	3.0	['3', 'return']	[2.17397489999712, 2.9415741999982856]	5.79	5.02	2.0	20hz	low_pain	47.0				sub-pilot012	250	1	47	48.5	COM11	COM7	COM3	2023-10-20_09h49.16.361	001-EEG_SVR_Officel	2022.2.5	143.76553566198453		67	sub-pilot012_SVR_EEG_block4-6.protocol.csv	step39	5260	522.244	STIMULATE	47.1	46.9	46.9	46.9	47.2	1793.792
1787.914	0	893957	20/Lo	4.877999999999929	4	0	4	0	2.0	0.0	2.0	0.0						1850.9239069000032	1856.716668299996	1856.716668299996	3.0	['3', 'return']	[2.17397489999712, 2.9415741999982856]	5.79	5.02	2.0	20hz	low_pain	47.0				sub-pilot012	250	1	47	48.5	COM11	COM7	COM3	2023-10-20_09h49.16.361	001-EEG_SVR_Officel	2022.2.5	143.76553566198453		67	sub-pilot012_SVR_EEG_block4-6.protocol.csv	step39	5260	522.244	STIMULATE	47.1	46.9	46.9	46.9	47.2	1793.792
1798.11	0	899055	wait	10.94399999999996	4	0	4	0	3.0	0.0	3.0	0.0						1872.6763827999969	1879.6250434999963	1879.6250434999963	5.0	['5', 'return']	[2.4925749999965774, 3.139800999997533]	6.94	5.53	3.0	40hz	high_pain	48.5				sub-pilot012	250	1	47	48.5	COM11	COM7	COM3	2023-10-20_09h49.16.361	001-EEG_SVR_Officel	2022.2.5	143.76553566198453		68	sub-pilot012_SVR_EEG_block4-6.protocol.csv	step41	5497	545.761	STIMULATE	48.5	48.4	48.4	48.4	48.5	1817.309
1805.05	0	902525	40hz	6.9379999999998745	4	0	4	0	3.0	0.0	3.0	0.0						1872.6763827999969	1879.6250434999963	1879.6250434999963	5.0	['5', 'return']	[2.4925749999965774, 3.139800999997533]	6.94	5.53	3.0	40hz	high_pain	48.5				sub-pilot012	250	1	47	48.5	COM11	COM7	COM3	2023-10-20_09h49.16.361	001-EEG_SVR_Officel	2022.2.5	143.76553566198453		68	sub-pilot012_SVR_EEG_block4-6.protocol.csv	step41	5497	545.761	STIMULATE	48.5	48.4	48.4	48.4	48.5	1817.309
1811.334	0	905667	40/Hi	5.392000000000053	4	0	4	0	3.0	0.0	3.0	0.0						1872.6763827999969	1879.6250434999963	1879.6250434999963	5.0	['5', 'return']	[2.4925749999965774, 3.139800999997533]	6.94	5.53	3.0	40hz	high_pain	48.5				sub-pilot012	250	1	47	48.5	COM11	COM7	COM3	2023-10-20_09h49.16.361	001-EEG_SVR_Officel	2022.2.5	143.76553566198453		68	sub-pilot012_SVR_EEG_block4-6.protocol.csv	step41	5497	545.761	STIMULATE	48.5	48.4	48.4	48.4	48.5	1817.309
1821.216	0	910608	wait	10.627999999999929	4	0	4	0	4.0	0.0	4.0	0.0						1895.783498500008	1902.847176700001	1902.847176700001	6.5	['6', 'a', '5', 'return']	[1.9796612999925856, 2.4833129000035115, 2.619434699998237, 3.2830229999963194]	7.06	5.99	0.0	20hz	high_pain	48.5				sub-pilot012	250	1	47	48.5	COM11	COM7	COM3	2023-10-20_09h49.16.361	001-EEG_SVR_Officel	2022.2.5	143.76553566198453		69	sub-pilot012_SVR_EEG_block4-6.protocol.csv	step43	5735	569.331	STIMULATE	48.7	48.4	48.4	48.4	48.7	1840.879
1828.274	0	914137	20hz	7.055999999999813	4	0	4	0	4.0	0.0	4.0	0.0						1895.783498500008	1902.847176700001	1902.847176700001	6.5	['6', 'a', '5', 'return']	[1.9796612999925856, 2.4833129000035115, 2.619434699998237, 3.2830229999963194]	7.06	5.99	0.0	20hz	high_pain	48.5				sub-pilot012	250	1	47	48.5	COM11	COM7	COM3	2023-10-20_09h49.16.361	001-EEG_SVR_Officel	2022.2.5	143.76553566198453		69	sub-pilot012_SVR_EEG_block4-6.protocol.csv	step43	5735	569.331	STIMULATE	48.7	48.4	48.4	48.4	48.7	1840.879
1835.016	0	917508	20/Hi	5.850000000000136	4	0	4	0	4.0	0.0	4.0	0.0						1895.783498500008	1902.847176700001	1902.847176700001	6.5	['6', 'a', '5', 'return']	[1.9796612999925856, 2.4833129000035115, 2.619434699998237, 3.2830229999963194]	7.06	5.99	0.0	20hz	high_pain	48.5				sub-pilot012	250	1	47	48.5	COM11	COM7	COM3	2023-10-20_09h49.16.361	001-EEG_SVR_Officel	2022.2.5	143.76553566198453		69	sub-pilot012_SVR_EEG_block4-6.protocol.csv	step43	5735	569.331	STIMULATE	48.7	48.4	48.4	48.4	48.7	1840.879
1844.58	0	922290	wait	10.311999999999898	4	0	4	0	5.0	0.0	5.0	0.0						1919.146763800003	1925.1633412000083	1925.1633412000083	3.0	['3', 'return']	[2.4003083999996306, 2.9924389999941923]	6.01	5.89	1.0	10hz	low_pain	47.0				sub-pilot012	250	1	47	48.5	COM11	COM7	COM3	2023-10-20_09h49.16.361	001-EEG_SVR_Officel	2022.2.5	143.76553566198453		70	sub-pilot012_SVR_EEG_block4-6.protocol.csv	step45	5960	591.614	STIMULATE	47.1	46.9	46.9	46.9	47.2	1863.162
1850.59	0	925295	10hz	6.007999999999811	4	0	4	0	5.0	0.0	5.0	0.0						1919.146763800003	1925.1633412000083	1925.1633412000083	3.0	['3', 'return']	[2.4003083999996306, 2.9924389999941923]	6.01	5.89	1.0	10hz	low_pain	47.0				sub-pilot012	250	1	47	48.5	COM11	COM7	COM3	2023-10-20_09h49.16.361	001-EEG_SVR_Officel	2022.2.5	143.76553566198453		70	sub-pilot012_SVR_EEG_block4-6.protocol.csv	step45	5960	591.614	STIMULATE	47.1	46.9	46.9	46.9	47.2	1863.162
1857.234	0	928617	10/Lo	5.751999999999953	4	0	4	0	5.0	0.0	5.0	0.0						1919.146763800003	1925.1633412000083	1925.1633412000083	3.0	['3', 'return']	[2.4003083999996306, 2.9924389999941923]	6.01	5.89	1.0	10hz	low_pain	47.0				sub-pilot012	250	1	47	48.5	COM11	COM7	COM3	2023-10-20_09h49.16.361	001-EEG_SVR_Officel	2022.2.5	143.76553566198453		70	sub-pilot012_SVR_EEG_block4-6.protocol.csv	step45	5960	591.614	STIMULATE	47.1	46.9	46.9	46.9	47.2	1863.162
1866.602	0	933301	wait	10.115999999999985	4	0	4	0	6.0	0.0	6.0	0.0						1941.1701723000008	1949.1648168999964	1949.1648168999964	5.5	['5', 'a', '5', 'return']	[2.381335499987472, 2.8054322999960277, 2.949545699986629, 3.622173699986888]	7.99	5.72	2.0	40hz	high_pain	47.0				sub-pilot012	250	1	47	48.5	COM11	COM7	COM3	2023-10-20_09h49.16.361	001-EEG_SVR_Officel	2022.2.5	143.76553566198453		71	sub-pilot012_SVR_EEG_block4-6.protocol.csv	step47	6199	615.392	STIMULATE	48.6	48.4	48.4	48.4	48.6	1886.94
1874.592	0	937296	40hz	7.988000000000056	4	0	4	0	6.0	0.0	6.0	0.0						1941.1701723000008	1949.1648168999964	1949.1648168999964	5.5	['5', 'a', '5', 'return']	[2.381335499987472, 2.8054322999960277, 2.949545699986629, 3.622173699986888]	7.99	5.72	2.0	40hz	high_pain	47.0				sub-pilot012	250	1	47	48.5	COM11	COM7	COM3	2023-10-20_09h49.16.361	001-EEG_SVR_Officel	2022.2.5	143.76553566198453		71	sub-pilot012_SVR_EEG_block4-6.protocol.csv	step47	6199	615.392	STIMULATE	48.6	48.4	48.4	48.4	48.6	1886.94
1881.062	0	940531	40/Hi	5.5779999999999745	4	0	4	0	6.0	0.0	6.0	0.0						1941.1701723000008	1949.1648168999964	1949.1648168999964	5.5	['5', 'a', '5', 'return']	[2.381335499987472, 2.8054322999960277, 2.949545699986629, 3.622173699986888]	7.99	5.72	2.0	40hz	high_pain	47.0				sub-pilot012	250	1	47	48.5	COM11	COM7	COM3	2023-10-20_09h49.16.361	001-EEG_SVR_Officel	2022.2.5	143.76553566198453		71	sub-pilot012_SVR_EEG_block4-6.protocol.csv	step47	6199	615.392	STIMULATE	48.6	48.4	48.4	48.4	48.6	1886.94
1891.238	0	945619	wait	10.922000000000025	4	0	4	0	7.0	0.0	7.0	0.0						1965.8051173999995	1971.7538140999968	1971.7538140999968	1.5	['1', 'a', '5', 'return']	[4.308241899998393, 4.763137799993274, 5.955131900002016, 6.884036599993124]	5.94	5.08	3.0	20hz	low_pain	48.5				sub-pilot012	250	1	47	48.5	COM11	COM7	COM3	2023-10-20_09h49.16.361	001-EEG_SVR_Officel	2022.2.5	143.76553566198453		72	sub-pilot012_SVR_EEG_block4-6.protocol.csv	step49	6422	637.447	STIMULATE	47.0	46.9	46.9	46.9	46.9	1908.995
