onset	duration	sample	trial_type	value	block.thisRepN	block.thisTrialN	block.thisN	block.thisIndex	reps.thisRepN	reps.thisTrialN	reps.thisN	reps.thisIndex	afrec_start	rec_start	rec_start_egi	key_resp.keys	key_resp.rt	wait_time_text.started	wait_time_text.stopped	therm_loca_text.started	subResponse	keyResp.keys	keyResp.rt	ITI_wait	wait_trigger	loca_thermode	Hz_condition	temp_condition	temp_valeur	text.started	text.stopped	participant	brightness	num_part	low	high	com_svr	com_thermode	com_eeg	date	expName	psychopyVersion	frameRate	Unnamed: 39	distance_from_previous	file	step	index	time	type	temp1	temp2	temp3	temp4	temp5	step_num	time_sync
10.098	0	5049	wait	20	0	0	0	0	0.0	0.0	0.0	0.0	205.9869390000001	205.78201310000009	1699639973.7448175	p	9.85026199999993	215.88071390000005	221.8812414000001	221.8812414000001	1.0	['1', 'return']	[3.3481177999999545, 4.699086800000032]	5.99	5.93	0.0	20hz	low_pain	43.9			sub-pilot017	250	17	43.9	44.9	COM11	COM7	COM3	2023-11-10_13h09.56.900	001-EEG_SVR_Officel	2022.2.5	144.1038469963728		10.098	0_sub-pilot017_SVR_EEG_block1-2.protocol.csv	step3	2303	230.165	STIMULATE	44.0	43.8	43.8	43.8	43.9	3	28.598999999999997
16.086	0	8042	20hz	6	0	0	0	0	0.0	0.0	0.0	0.0	205.9869390000001	205.78201310000009	1699639973.7448175	p	9.85026199999993	215.88071390000005	221.8812414000001	221.8812414000001	1.0	['1', 'return']	[3.3481177999999545, 4.699086800000032]	5.99	5.93	0.0	20hz	low_pain	43.9			sub-pilot017	250	17	43.9	44.9	COM11	COM7	COM3	2023-11-10_13h09.56.900	001-EEG_SVR_Officel	2022.2.5	144.1038469963728		5.987999999999998	0_sub-pilot017_SVR_EEG_block1-2.protocol.csv	step3	2303	230.165	STIMULATE	44.0	43.8	43.8	43.8	43.9	3	28.598999999999997
22.766	0	11383	20/Lo	5	0	0	0	0	0.0	0.0	0.0	0.0	205.9869390000001	205.78201310000009	1699639973.7448175	p	9.85026199999993	215.88071390000005	221.8812414000001	221.8812414000001	1.0	['1', 'return']	[3.3481177999999545, 4.699086800000032]	5.99	5.93	0.0	20hz	low_pain	43.9			sub-pilot017	250	17	43.9	44.9	COM11	COM7	COM3	2023-11-10_13h09.56.900	001-EEG_SVR_Officel	2022.2.5	144.1038469963728		5.93	0_sub-pilot017_SVR_EEG_block1-2.protocol.csv	step3	2303	230.165	STIMULATE	44.0	43.8	43.8	43.8	43.9	3	28.598999999999997
33.814	0	16907	wait	20	0	0	0	0	1.0	0.0	1.0	0.0						239.5990577	245.40530940000008	245.40530940000008	2.0	['2', 'return']	[3.8971576999999797, 11.128915400000096]	5.8	5.71	1.0	10hz	low_pain	43.9			sub-pilot017	250	17	43.9	44.9	COM11	COM7	COM3	2023-11-10_13h09.56.900	001-EEG_SVR_Officel	2022.2.5	144.1038469963728		11.798000000000002	0_sub-pilot017_SVR_EEG_block1-2.protocol.csv	step5	2539	253.522	STIMULATE	43.9	43.8	43.8	43.8	44.0	5	51.955999999999996
39.61	0	19805	10hz	3	0	0	0	0	1.0	0.0	1.0	0.0						239.5990577	245.40530940000008	245.40530940000008	2.0	['2', 'return']	[3.8971576999999797, 11.128915400000096]	5.8	5.71	1.0	10hz	low_pain	43.9			sub-pilot017	250	17	43.9	44.9	COM11	COM7	COM3	2023-11-10_13h09.56.900	001-EEG_SVR_Officel	2022.2.5	144.1038469963728		5.795999999999999	0_sub-pilot017_SVR_EEG_block1-2.protocol.csv	step5	2539	253.522	STIMULATE	43.9	43.8	43.8	43.8	44.0	5	51.955999999999996
46.074	0	23037	10/Lo	2	0	0	0	0	1.0	0.0	1.0	0.0						239.5990577	245.40530940000008	245.40530940000008	2.0	['2', 'return']	[3.8971576999999797, 11.128915400000096]	5.8	5.71	1.0	10hz	low_pain	43.9			sub-pilot017	250	17	43.9	44.9	COM11	COM7	COM3	2023-11-10_13h09.56.900	001-EEG_SVR_Officel	2022.2.5	144.1038469963728		5.713999999999999	0_sub-pilot017_SVR_EEG_block1-2.protocol.csv	step5	2539	253.522	STIMULATE	43.9	43.8	43.8	43.8	44.0	5	51.955999999999996
63.762	0	31881	wait	20	0	0	0	0	2.0	0.0	2.0	0.0						269.5466511	276.83919360000004	276.83919360000004	4.5	['4', 'a', '5', 'return']	[2.93484350000017, 3.240207499999997, 3.4309798000001592, 4.127386099999967]	7.28	5.35	2.0	20hz	high_pain	44.9			sub-pilot017	250	17	43.9	44.9	COM11	COM7	COM3	2023-11-10_13h09.56.900	001-EEG_SVR_Officel	2022.2.5	144.1038469963728		18.438000000000002	0_sub-pilot017_SVR_EEG_block1-2.protocol.csv	step7	2851	284.578	STIMULATE	44.9	44.8	44.8	44.8	44.9	7	83.01199999999997
71.042	0	35521	20hz	6	0	0	0	0	2.0	0.0	2.0	0.0						269.5466511	276.83919360000004	276.83919360000004	4.5	['4', 'a', '5', 'return']	[2.93484350000017, 3.240207499999997, 3.4309798000001592, 4.127386099999967]	7.28	5.35	2.0	20hz	high_pain	44.9			sub-pilot017	250	17	43.9	44.9	COM11	COM7	COM3	2023-11-10_13h09.56.900	001-EEG_SVR_Officel	2022.2.5	144.1038469963728		7.280000000000001	0_sub-pilot017_SVR_EEG_block1-2.protocol.csv	step7	2851	284.578	STIMULATE	44.9	44.8	44.8	44.8	44.9	7	83.01199999999997
77.146	0	38573	20/Hi	4	0	0	0	0	2.0	0.0	2.0	0.0						269.5466511	276.83919360000004	276.83919360000004	4.5	['4', 'a', '5', 'return']	[2.93484350000017, 3.240207499999997, 3.4309798000001592, 4.127386099999967]	7.28	5.35	2.0	20hz	high_pain	44.9			sub-pilot017	250	17	43.9	44.9	COM11	COM7	COM3	2023-11-10_13h09.56.900	001-EEG_SVR_Officel	2022.2.5	144.1038469963728		5.353999999999999	0_sub-pilot017_SVR_EEG_block1-2.protocol.csv	step7	2851	284.578	STIMULATE	44.9	44.8	44.8	44.8	44.9	7	83.01199999999997
88.204	0	44102	wait	20	0	0	0	0	3.0	0.0	3.0	0.0						293.98710670000014	300.6894761000001	300.6894761000001	6.5	['6', 'a', '5', 'return']	[2.860890599999948, 3.299767900000006, 3.6833767999999054, 4.428415800000039]	6.69	5.44	3.0	10hz	high_pain	44.9			sub-pilot017	250	17	43.9	44.9	COM11	COM7	COM3	2023-11-10_13h09.56.900	001-EEG_SVR_Officel	2022.2.5	144.1038469963728		11.807999999999993	0_sub-pilot017_SVR_EEG_block1-2.protocol.csv	step9	3093	308.516	STIMULATE	44.9	44.8	44.8	44.8	44.8	9	106.95000000000002
94.892	0	47446	10hz	3	0	0	0	0	3.0	0.0	3.0	0.0						293.98710670000014	300.6894761000001	300.6894761000001	6.5	['6', 'a', '5', 'return']	[2.860890599999948, 3.299767900000006, 3.6833767999999054, 4.428415800000039]	6.69	5.44	3.0	10hz	high_pain	44.9			sub-pilot017	250	17	43.9	44.9	COM11	COM7	COM3	2023-11-10_13h09.56.900	001-EEG_SVR_Officel	2022.2.5	144.1038469963728		6.688000000000002	0_sub-pilot017_SVR_EEG_block1-2.protocol.csv	step9	3093	308.516	STIMULATE	44.9	44.8	44.8	44.8	44.8	9	106.95000000000002
101.084	0	50542	10/Hi	1	0	0	0	0	3.0	0.0	3.0	0.0						293.98710670000014	300.6894761000001	300.6894761000001	6.5	['6', 'a', '5', 'return']	[2.860890599999948, 3.299767900000006, 3.6833767999999054, 4.428415800000039]	6.69	5.44	3.0	10hz	high_pain	44.9			sub-pilot017	250	17	43.9	44.9	COM11	COM7	COM3	2023-11-10_13h09.56.900	001-EEG_SVR_Officel	2022.2.5	144.1038469963728		5.442000000000007	0_sub-pilot017_SVR_EEG_block1-2.protocol.csv	step9	3093	308.516	STIMULATE	44.9	44.8	44.8	44.8	44.8	9	106.95000000000002
112.344	0	56172	wait	20	0	0	0	0	4.0	0.0	4.0	0.0						318.12852250000014	324.4562306	324.4562306	5.5	['5', 'a', '5', 'return']	[3.0925524000001587, 3.6141571000000567, 3.8291834000001472, 4.710194499999943]	6.32	5.29	0.0	10hz	high_pain	44.9			sub-pilot017	250	17	43.9	44.9	COM11	COM7	COM3	2023-11-10_13h09.56.900	001-EEG_SVR_Officel	2022.2.5	144.1038469963728		12.009999999999991	0_sub-pilot017_SVR_EEG_block1-2.protocol.csv	step11	3331	332.137	STIMULATE	44.9	44.7	44.8	44.8	45.0	11	130.571
118.66	0	59330	10hz	3	0	0	0	0	4.0	0.0	4.0	0.0						318.12852250000014	324.4562306	324.4562306	5.5	['5', 'a', '5', 'return']	[3.0925524000001587, 3.6141571000000567, 3.8291834000001472, 4.710194499999943]	6.32	5.29	0.0	10hz	high_pain	44.9			sub-pilot017	250	17	43.9	44.9	COM11	COM7	COM3	2023-11-10_13h09.56.900	001-EEG_SVR_Officel	2022.2.5	144.1038469963728		6.3160000000000025	0_sub-pilot017_SVR_EEG_block1-2.protocol.csv	step11	3331	332.137	STIMULATE	44.9	44.7	44.8	44.8	45.0	11	130.571
124.7	0	62350	10/Hi	1	0	0	0	0	4.0	0.0	4.0	0.0						318.12852250000014	324.4562306	324.4562306	5.5	['5', 'a', '5', 'return']	[3.0925524000001587, 3.6141571000000567, 3.8291834000001472, 4.710194499999943]	6.32	5.29	0.0	10hz	high_pain	44.9			sub-pilot017	250	17	43.9	44.9	COM11	COM7	COM3	2023-11-10_13h09.56.900	001-EEG_SVR_Officel	2022.2.5	144.1038469963728		5.290000000000006	0_sub-pilot017_SVR_EEG_block1-2.protocol.csv	step11	3331	332.137	STIMULATE	44.9	44.7	44.8	44.8	45.0	11	130.571
136.396	0	68198	wait	20	0	0	0	0	5.0	0.0	5.0	0.0						342.1803781000001	348.5015263	348.5015263	2.0	['2', 'return']	[3.711787700000059, 4.655060100000128]	6.31	5.79	1.0	20hz	low_pain	43.9			sub-pilot017	250	17	43.9	44.9	COM11	COM7	COM3	2023-11-10_13h09.56.900	001-EEG_SVR_Officel	2022.2.5	144.1038469963728		12.445999999999984	0_sub-pilot017_SVR_EEG_block1-2.protocol.csv	step13	3579	356.774	STIMULATE	43.9	43.8	43.8	43.8	43.9	13	155.208
142.704	0	71352	20hz	6	0	0	0	0	5.0	0.0	5.0	0.0						342.1803781000001	348.5015263	348.5015263	2.0	['2', 'return']	[3.711787700000059, 4.655060100000128]	6.31	5.79	1.0	20hz	low_pain	43.9			sub-pilot017	250	17	43.9	44.9	COM11	COM7	COM3	2023-11-10_13h09.56.900	001-EEG_SVR_Officel	2022.2.5	144.1038469963728		6.308000000000021	0_sub-pilot017_SVR_EEG_block1-2.protocol.csv	step13	3579	356.774	STIMULATE	43.9	43.8	43.8	43.8	43.9	13	155.208
149.244	0	74622	20/Lo	5	0	0	0	0	5.0	0.0	5.0	0.0						342.1803781000001	348.5015263	348.5015263	2.0	['2', 'return']	[3.711787700000059, 4.655060100000128]	6.31	5.79	1.0	20hz	low_pain	43.9			sub-pilot017	250	17	43.9	44.9	COM11	COM7	COM3	2023-11-10_13h09.56.900	001-EEG_SVR_Officel	2022.2.5	144.1038469963728		5.789999999999992	0_sub-pilot017_SVR_EEG_block1-2.protocol.csv	step13	3579	356.774	STIMULATE	43.9	43.8	43.8	43.8	43.9	13	155.208
160.392	0	80196	wait	20	0	0	0	0	6.0	0.0	6.0	0.0						366.17646460000014	372.47660280000014	372.47660280000014	5.0	['5', 'return']	[2.9291556000000583, 3.4891146999998455]	6.29	5.71	2.0	40hz	high_pain	44.9			sub-pilot017	250	17	43.9	44.9	COM11	COM7	COM3	2023-11-10_13h09.56.900	001-EEG_SVR_Officel	2022.2.5	144.1038469963728		11.897999999999996	0_sub-pilot017_SVR_EEG_block1-2.protocol.csv	step15	3820	380.624	STIMULATE	44.9	44.8	44.8	44.8	44.9	15	179.05800000000002
166.678	0	83339	40hz	9	0	0	0	0	6.0	0.0	6.0	0.0						366.17646460000014	372.47660280000014	372.47660280000014	5.0	['5', 'return']	[2.9291556000000583, 3.4891146999998455]	6.29	5.71	2.0	40hz	high_pain	44.9			sub-pilot017	250	17	43.9	44.9	COM11	COM7	COM3	2023-11-10_13h09.56.900	001-EEG_SVR_Officel	2022.2.5	144.1038469963728		6.286000000000001	0_sub-pilot017_SVR_EEG_block1-2.protocol.csv	step15	3820	380.624	STIMULATE	44.9	44.8	44.8	44.8	44.9	15	179.05800000000002
173.142	0	86571	40/Hi	7	0	0	0	0	6.0	0.0	6.0	0.0						366.17646460000014	372.47660280000014	372.47660280000014	5.0	['5', 'return']	[2.9291556000000583, 3.4891146999998455]	6.29	5.71	2.0	40hz	high_pain	44.9			sub-pilot017	250	17	43.9	44.9	COM11	COM7	COM3	2023-11-10_13h09.56.900	001-EEG_SVR_Officel	2022.2.5	144.1038469963728		5.713999999999999	0_sub-pilot017_SVR_EEG_block1-2.protocol.csv	step15	3820	380.624	STIMULATE	44.9	44.8	44.8	44.8	44.9	15	179.05800000000002
183.192	0	91596	wait	20	0	0	0	0	7.0	0.0	7.0	0.0						388.97817780000014	396.3606512000001	396.3606512000001	6.5	['6', 'a', '5', 'return']	[3.413617899999963, 3.9820165999999517, 4.6371226999999635, 5.581237500000043]	7.37	5.42	3.0	20hz	high_pain	44.9			sub-pilot017	250	17	43.9	44.9	COM11	COM7	COM3	2023-11-10_13h09.56.900	001-EEG_SVR_Officel	2022.2.5	144.1038469963728		10.800000000000011	0_sub-pilot017_SVR_EEG_block1-2.protocol.csv	step17	4058	404.243	STIMULATE	44.9	44.8	44.8	44.8	44.8	17	202.677
190.564	0	95282	20hz	6	0	0	0	0	7.0	0.0	7.0	0.0						388.97817780000014	396.3606512000001	396.3606512000001	6.5	['6', 'a', '5', 'return']	[3.413617899999963, 3.9820165999999517, 4.6371226999999635, 5.581237500000043]	7.37	5.42	3.0	20hz	high_pain	44.9			sub-pilot017	250	17	43.9	44.9	COM11	COM7	COM3	2023-11-10_13h09.56.900	001-EEG_SVR_Officel	2022.2.5	144.1038469963728		7.371999999999986	0_sub-pilot017_SVR_EEG_block1-2.protocol.csv	step17	4058	404.243	STIMULATE	44.9	44.8	44.8	44.8	44.8	17	202.677
196.736	0	98368	20/Hi	4	0	0	0	0	7.0	0.0	7.0	0.0						388.97817780000014	396.3606512000001	396.3606512000001	6.5	['6', 'a', '5', 'return']	[3.413617899999963, 3.9820165999999517, 4.6371226999999635, 5.581237500000043]	7.37	5.42	3.0	20hz	high_pain	44.9			sub-pilot017	250	17	43.9	44.9	COM11	COM7	COM3	2023-11-10_13h09.56.900	001-EEG_SVR_Officel	2022.2.5	144.1038469963728		5.421999999999997	0_sub-pilot017_SVR_EEG_block1-2.protocol.csv	step17	4058	404.243	STIMULATE	44.9	44.8	44.8	44.8	44.8	17	202.677
209.176	0	104588	wait	20	0	0	0	0	8.0	0.0	8.0	0.0						414.9600664	421.3914658000001	421.3914658000001	4.0	['4', 'return']	[3.3896462000000156, 3.9987509000000045]	6.42	6.06	0.0	40hz	low_pain	43.9			sub-pilot017	250	17	43.9	44.9	COM11	COM7	COM3	2023-11-10_13h09.56.900	001-EEG_SVR_Officel	2022.2.5	144.1038469963728		13.189999999999998	0_sub-pilot017_SVR_EEG_block1-2.protocol.csv	step19	4315	429.718	STIMULATE	44.0	43.8	43.8	43.8	44.0	19	228.15200000000002
215.594	0	107797	40hz	9	0	0	0	0	8.0	0.0	8.0	0.0						414.9600664	421.3914658000001	421.3914658000001	4.0	['4', 'return']	[3.3896462000000156, 3.9987509000000045]	6.42	6.06	0.0	40hz	low_pain	43.9			sub-pilot017	250	17	43.9	44.9	COM11	COM7	COM3	2023-11-10_13h09.56.900	001-EEG_SVR_Officel	2022.2.5	144.1038469963728		6.418000000000006	0_sub-pilot017_SVR_EEG_block1-2.protocol.csv	step19	4315	429.718	STIMULATE	44.0	43.8	43.8	43.8	44.0	19	228.15200000000002
222.406	0	111203	40/Lo	8	0	0	0	0	8.0	0.0	8.0	0.0						414.9600664	421.3914658000001	421.3914658000001	4.0	['4', 'return']	[3.3896462000000156, 3.9987509000000045]	6.42	6.06	0.0	40hz	low_pain	43.9			sub-pilot017	250	17	43.9	44.9	COM11	COM7	COM3	2023-11-10_13h09.56.900	001-EEG_SVR_Officel	2022.2.5	144.1038469963728		6.062000000000012	0_sub-pilot017_SVR_EEG_block1-2.protocol.csv	step19	4315	429.718	STIMULATE	44.0	43.8	43.8	43.8	44.0	19	228.15200000000002
232.622	0	116311	wait	20	0	0	0	0	9.0	0.0	9.0	0.0						438.4073215000001	443.789931	443.789931	4.0	['4', 'return']	[2.9925828000000365, 3.569190899999967]	5.37	6.35	1.0	10hz	high_pain	44.9			sub-pilot017	250	17	43.9	44.9	COM11	COM7	COM3	2023-11-10_13h09.56.900	001-EEG_SVR_Officel	2022.2.5	144.1038469963728		10.966000000000008	0_sub-pilot017_SVR_EEG_block1-2.protocol.csv	step21	4545	452.555	STIMULATE	44.9	44.8	44.8	44.8	45.0	21	250.989
237.992	0	118996	10hz	3	0	0	0	0	9.0	0.0	9.0	0.0						438.4073215000001	443.789931	443.789931	4.0	['4', 'return']	[2.9925828000000365, 3.569190899999967]	5.37	6.35	1.0	10hz	high_pain	44.9			sub-pilot017	250	17	43.9	44.9	COM11	COM7	COM3	2023-11-10_13h09.56.900	001-EEG_SVR_Officel	2022.2.5	144.1038469963728		5.369999999999976	0_sub-pilot017_SVR_EEG_block1-2.protocol.csv	step21	4545	452.555	STIMULATE	44.9	44.8	44.8	44.8	45.0	21	250.989
245.096	0	122548	10/Hi	1	0	0	0	0	9.0	0.0	9.0	0.0						438.4073215000001	443.789931	443.789931	4.0	['4', 'return']	[2.9925828000000365, 3.569190899999967]	5.37	6.35	1.0	10hz	high_pain	44.9			sub-pilot017	250	17	43.9	44.9	COM11	COM7	COM3	2023-11-10_13h09.56.900	001-EEG_SVR_Officel	2022.2.5	144.1038469963728		6.354000000000013	0_sub-pilot017_SVR_EEG_block1-2.protocol.csv	step21	4545	452.555	STIMULATE	44.9	44.8	44.8	44.8	45.0	21	250.989
254.59	0	127295	wait	20	0	0	0	0	10.0	0.0	10.0	0.0						460.37541940000006	466.02202349999993	466.02202349999993	2.0	['2', 'return']	[3.2147641000001386, 3.96709850000002]	5.64	5.74	2.0	10hz	low_pain	43.9			sub-pilot017	250	17	43.9	44.9	COM11	COM7	COM3	2023-11-10_13h09.56.900	001-EEG_SVR_Officel	2022.2.5	144.1038469963728		10.244	0_sub-pilot017_SVR_EEG_block1-2.protocol.csv	step23	4764	474.236	STIMULATE	43.8	43.8	43.8	43.8	43.8	23	272.67
260.224	0	130112	10hz	3	0	0	0	0	10.0	0.0	10.0	0.0						460.37541940000006	466.02202349999993	466.02202349999993	2.0	['2', 'return']	[3.2147641000001386, 3.96709850000002]	5.64	5.74	2.0	10hz	low_pain	43.9			sub-pilot017	250	17	43.9	44.9	COM11	COM7	COM3	2023-11-10_13h09.56.900	001-EEG_SVR_Officel	2022.2.5	144.1038469963728		5.633999999999986	0_sub-pilot017_SVR_EEG_block1-2.protocol.csv	step23	4764	474.236	STIMULATE	43.8	43.8	43.8	43.8	43.8	23	272.67
266.718	0	133359	10/Lo	2	0	0	0	0	10.0	0.0	10.0	0.0						460.37541940000006	466.02202349999993	466.02202349999993	2.0	['2', 'return']	[3.2147641000001386, 3.96709850000002]	5.64	5.74	2.0	10hz	low_pain	43.9			sub-pilot017	250	17	43.9	44.9	COM11	COM7	COM3	2023-11-10_13h09.56.900	001-EEG_SVR_Officel	2022.2.5	144.1038469963728		5.744000000000028	0_sub-pilot017_SVR_EEG_block1-2.protocol.csv	step23	4764	474.236	STIMULATE	43.8	43.8	43.8	43.8	43.8	23	272.67
277.224	0	138612	wait	20	0	0	0	0	11.0	0.0	11.0	0.0						483.0103885000001	488.62936660000014	488.62936660000014	3.5	['3', 'a', '5', 'return']	[2.9370476999999937, 3.2168759000001046, 3.520378599999958, 4.128485700000056]	5.61	5.76	3.0	40hz	low_pain	43.9			sub-pilot017	250	17	43.9	44.9	COM11	COM7	COM3	2023-11-10_13h09.56.900	001-EEG_SVR_Officel	2022.2.5	144.1038469963728		11.255999999999972	0_sub-pilot017_SVR_EEG_block1-2.protocol.csv	step25	4992	496.88	STIMULATE	43.8	43.8	43.8	43.8	43.8	25	295.314
282.83	0	141415	40hz	9	0	0	0	0	11.0	0.0	11.0	0.0						483.0103885000001	488.62936660000014	488.62936660000014	3.5	['3', 'a', '5', 'return']	[2.9370476999999937, 3.2168759000001046, 3.520378599999958, 4.128485700000056]	5.61	5.76	3.0	40hz	low_pain	43.9			sub-pilot017	250	17	43.9	44.9	COM11	COM7	COM3	2023-11-10_13h09.56.900	001-EEG_SVR_Officel	2022.2.5	144.1038469963728		5.6059999999999945	0_sub-pilot017_SVR_EEG_block1-2.protocol.csv	step25	4992	496.88	STIMULATE	43.8	43.8	43.8	43.8	43.8	25	295.314
289.344	0	144672	40/Lo	8	0	0	0	0	11.0	0.0	11.0	0.0						483.0103885000001	488.62936660000014	488.62936660000014	3.5	['3', 'a', '5', 'return']	[2.9370476999999937, 3.2168759000001046, 3.520378599999958, 4.128485700000056]	5.61	5.76	3.0	40hz	low_pain	43.9			sub-pilot017	250	17	43.9	44.9	COM11	COM7	COM3	2023-11-10_13h09.56.900	001-EEG_SVR_Officel	2022.2.5	144.1038469963728		5.76400000000001	0_sub-pilot017_SVR_EEG_block1-2.protocol.csv	step25	4992	496.88	STIMULATE	43.8	43.8	43.8	43.8	43.8	25	295.314
299.99	0	149995	wait	20	0	0	0	0	12.0	0.0	12.0	0.0						505.7765946	511.4439453	511.4439453	5.5	['5', 'a', '5', 'return']	[2.9690286000000015, 3.3136040000001685, 3.697055300000102, 4.56174840000017]	5.66	5.13	0.0	controle	high_pain	44.9			sub-pilot017	250	17	43.9	44.9	COM11	COM7	COM3	2023-11-10_13h09.56.900	001-EEG_SVR_Officel	2022.2.5	144.1038469963728		11.396000000000015	0_sub-pilot017_SVR_EEG_block1-2.protocol.csv	step27	5216	519.049	STIMULATE	44.9	44.8	44.8	44.8	44.9	27	317.483
305.646	0	152823	CNhz	12	0	0	0	0	12.0	0.0	12.0	0.0						505.7765946	511.4439453	511.4439453	5.5	['5', 'a', '5', 'return']	[2.9690286000000015, 3.3136040000001685, 3.697055300000102, 4.56174840000017]	5.66	5.13	0.0	controle	high_pain	44.9			sub-pilot017	250	17	43.9	44.9	COM11	COM7	COM3	2023-11-10_13h09.56.900	001-EEG_SVR_Officel	2022.2.5	144.1038469963728		5.656000000000006	0_sub-pilot017_SVR_EEG_block1-2.protocol.csv	step27	5216	519.049	STIMULATE	44.9	44.8	44.8	44.8	44.9	27	317.483
311.526	0	155763	CN/Hi	10	0	0	0	0	12.0	0.0	12.0	0.0						505.7765946	511.4439453	511.4439453	5.5	['5', 'a', '5', 'return']	[2.9690286000000015, 3.3136040000001685, 3.697055300000102, 4.56174840000017]	5.66	5.13	0.0	controle	high_pain	44.9			sub-pilot017	250	17	43.9	44.9	COM11	COM7	COM3	2023-11-10_13h09.56.900	001-EEG_SVR_Officel	2022.2.5	144.1038469963728		5.1299999999999955	0_sub-pilot017_SVR_EEG_block1-2.protocol.csv	step27	5216	519.049	STIMULATE	44.9	44.8	44.8	44.8	44.9	27	317.483
323.236	0	161618	wait	20	0	0	0	0	13.0	0.0	13.0	0.0						529.0224381	534.3134372	534.3134372	5.5	['5', 'a', '5', 'return']	[2.6675930999999764, 3.019711000000143, 3.179833400000007, 3.892226599999958]	5.29	5.63	1.0	20hz	high_pain	44.9			sub-pilot017	250	17	43.9	44.9	COM11	COM7	COM3	2023-11-10_13h09.56.900	001-EEG_SVR_Officel	2022.2.5	144.1038469963728		12.45999999999998	0_sub-pilot017_SVR_EEG_block1-2.protocol.csv	step29	5451	542.373	STIMULATE	44.8	44.8	44.8	44.8	45.0	29	340.8070000000001
328.522	0	164261	20hz	6	0	0	0	0	13.0	0.0	13.0	0.0						529.0224381	534.3134372	534.3134372	5.5	['5', 'a', '5', 'return']	[2.6675930999999764, 3.019711000000143, 3.179833400000007, 3.892226599999958]	5.29	5.63	1.0	20hz	high_pain	44.9			sub-pilot017	250	17	43.9	44.9	COM11	COM7	COM3	2023-11-10_13h09.56.900	001-EEG_SVR_Officel	2022.2.5	144.1038469963728		5.286000000000001	0_sub-pilot017_SVR_EEG_block1-2.protocol.csv	step29	5451	542.373	STIMULATE	44.8	44.8	44.8	44.8	45.0	29	340.8070000000001
334.904	0	167452	20/Hi	4	0	0	0	0	13.0	0.0	13.0	0.0						529.0224381	534.3134372	534.3134372	5.5	['5', 'a', '5', 'return']	[2.6675930999999764, 3.019711000000143, 3.179833400000007, 3.892226599999958]	5.29	5.63	1.0	20hz	high_pain	44.9			sub-pilot017	250	17	43.9	44.9	COM11	COM7	COM3	2023-11-10_13h09.56.900	001-EEG_SVR_Officel	2022.2.5	144.1038469963728		5.632000000000005	0_sub-pilot017_SVR_EEG_block1-2.protocol.csv	step29	5451	542.373	STIMULATE	44.8	44.8	44.8	44.8	45.0	29	340.8070000000001
345.44	0	172720	wait	20	0	0	0	0	14.0	0.0	14.0	0.0						551.2262743000001	557.6584091	557.6584091	4.0	['4', 'return']	[3.5790036000000782, 4.227027200000066]	6.42	5.17	2.0	controle	high_pain	44.9			sub-pilot017	250	17	43.9	44.9	COM11	COM7	COM3	2023-11-10_13h09.56.900	001-EEG_SVR_Officel	2022.2.5	144.1038469963728		11.286000000000001	0_sub-pilot017_SVR_EEG_block1-2.protocol.csv	step31	5682	565.242	STIMULATE	44.8	44.8	44.8	44.8	44.8	31	363.676
351.86	0	175930	CNhz	12	0	0	0	0	14.0	0.0	14.0	0.0						551.2262743000001	557.6584091	557.6584091	4.0	['4', 'return']	[3.5790036000000782, 4.227027200000066]	6.42	5.17	2.0	controle	high_pain	44.9			sub-pilot017	250	17	43.9	44.9	COM11	COM7	COM3	2023-11-10_13h09.56.900	001-EEG_SVR_Officel	2022.2.5	144.1038469963728		6.420000000000016	0_sub-pilot017_SVR_EEG_block1-2.protocol.csv	step31	5682	565.242	STIMULATE	44.8	44.8	44.8	44.8	44.8	31	363.676
357.782	0	178891	CN/Hi	10	0	0	0	0	14.0	0.0	14.0	0.0						551.2262743000001	557.6584091	557.6584091	4.0	['4', 'return']	[3.5790036000000782, 4.227027200000066]	6.42	5.17	2.0	controle	high_pain	44.9			sub-pilot017	250	17	43.9	44.9	COM11	COM7	COM3	2023-11-10_13h09.56.900	001-EEG_SVR_Officel	2022.2.5	144.1038469963728		5.171999999999969	0_sub-pilot017_SVR_EEG_block1-2.protocol.csv	step31	5682	565.242	STIMULATE	44.8	44.8	44.8	44.8	44.8	31	363.676
369.11	0	184555	wait	20	0	0	0	0	15.0	0.0	15.0	0.0						574.8956542000001	581.2024774000001	581.2024774000001	4.0	['4', 'return']	[3.52343350000001, 4.250618900000063]	6.3	5.14	3.0	20hz	low_pain	43.9			sub-pilot017	250	17	43.9	44.9	COM11	COM7	COM3	2023-11-10_13h09.56.900	001-EEG_SVR_Officel	2022.2.5	144.1038469963728		12.078000000000031	0_sub-pilot017_SVR_EEG_block1-2.protocol.csv	step33	5919	588.725	STIMULATE	43.9	43.8	43.8	43.8	43.8	33	387.15900000000005
375.404	0	187702	20hz	6	0	0	0	0	15.0	0.0	15.0	0.0						574.8956542000001	581.2024774000001	581.2024774000001	4.0	['4', 'return']	[3.52343350000001, 4.250618900000063]	6.3	5.14	3.0	20hz	low_pain	43.9			sub-pilot017	250	17	43.9	44.9	COM11	COM7	COM3	2023-11-10_13h09.56.900	001-EEG_SVR_Officel	2022.2.5	144.1038469963728		6.293999999999983	0_sub-pilot017_SVR_EEG_block1-2.protocol.csv	step33	5919	588.725	STIMULATE	43.9	43.8	43.8	43.8	43.8	33	387.15900000000005
381.298	0	190649	20/Lo	5	0	0	0	0	15.0	0.0	15.0	0.0						574.8956542000001	581.2024774000001	581.2024774000001	4.0	['4', 'return']	[3.52343350000001, 4.250618900000063]	6.3	5.14	3.0	20hz	low_pain	43.9			sub-pilot017	250	17	43.9	44.9	COM11	COM7	COM3	2023-11-10_13h09.56.900	001-EEG_SVR_Officel	2022.2.5	144.1038469963728		5.1440000000000055	0_sub-pilot017_SVR_EEG_block1-2.protocol.csv	step33	5919	588.725	STIMULATE	43.9	43.8	43.8	43.8	43.8	33	387.15900000000005
422.906	0	211453	wait	20	1	0	1	0	0.0	0.0	0.0	0.0				p	0.2719657000000097	628.6935463	635.9107235000001	635.9107235000001	5.5	['5', 'a', '5', 'return']	[2.7754218000000037, 3.10345459999985, 3.23847899999987, 3.847648599999957]	7.21	5.59	0.0	40hz	high_pain	44.9			sub-pilot017	250	17	43.9	44.9	COM11	COM7	COM3	2023-11-10_13h09.56.900	001-EEG_SVR_Officel	2022.2.5	144.1038469963728		42.358000000000004	0_sub-pilot017_SVR_EEG_block1-2.protocol.csv	step35	6472	643.851	STIMULATE	44.9	44.8	44.8	44.8	45.0	35	442.299
430.112	0	215056	40hz	9	1	0	1	0	0.0	0.0	0.0	0.0				p	0.2719657000000097	628.6935463	635.9107235000001	635.9107235000001	5.5	['5', 'a', '5', 'return']	[2.7754218000000037, 3.10345459999985, 3.23847899999987, 3.847648599999957]	7.21	5.59	0.0	40hz	high_pain	44.9			sub-pilot017	250	17	43.9	44.9	COM11	COM7	COM3	2023-11-10_13h09.56.900	001-EEG_SVR_Officel	2022.2.5	144.1038469963728		7.206000000000017	0_sub-pilot017_SVR_EEG_block1-2.protocol.csv	step35	6472	643.851	STIMULATE	44.9	44.8	44.8	44.8	45.0	35	442.299
436.452	0	218226	40/Hi	7	1	0	1	0	0.0	0.0	0.0	0.0				p	0.2719657000000097	628.6935463	635.9107235000001	635.9107235000001	5.5	['5', 'a', '5', 'return']	[2.7754218000000037, 3.10345459999985, 3.23847899999987, 3.847648599999957]	7.21	5.59	0.0	40hz	high_pain	44.9			sub-pilot017	250	17	43.9	44.9	COM11	COM7	COM3	2023-11-10_13h09.56.900	001-EEG_SVR_Officel	2022.2.5	144.1038469963728		5.589999999999975	0_sub-pilot017_SVR_EEG_block1-2.protocol.csv	step35	6472	643.851	STIMULATE	44.9	44.8	44.8	44.8	45.0	35	442.299
446.994	0	223497	wait	20	1	0	1	0	1.0	0.0	1.0	0.0						652.7805072000001	658.5589072	658.5589072	4.0	['4', 'return']	[2.5582005999999637, 3.1183529999998427]	5.77	6.28	1.0	controle	low_pain	43.9			sub-pilot017	250	17	43.9	44.9	COM11	COM7	COM3	2023-11-10_13h09.56.900	001-EEG_SVR_Officel	2022.2.5	144.1038469963728		11.29200000000003	0_sub-pilot017_SVR_EEG_block1-2.protocol.csv	step37	6709	667.316	STIMULATE	43.8	43.8	43.8	43.8	43.9	37	465.764
452.76	0	226380	CNhz	12	1	0	1	0	1.0	0.0	1.0	0.0						652.7805072000001	658.5589072	658.5589072	4.0	['4', 'return']	[2.5582005999999637, 3.1183529999998427]	5.77	6.28	1.0	controle	low_pain	43.9			sub-pilot017	250	17	43.9	44.9	COM11	COM7	COM3	2023-11-10_13h09.56.900	001-EEG_SVR_Officel	2022.2.5	144.1038469963728		5.765999999999963	0_sub-pilot017_SVR_EEG_block1-2.protocol.csv	step37	6709	667.316	STIMULATE	43.8	43.8	43.8	43.8	43.9	37	465.764
459.794	0	229897	CN/Lo	11	1	0	1	0	1.0	0.0	1.0	0.0						652.7805072000001	658.5589072	658.5589072	4.0	['4', 'return']	[2.5582005999999637, 3.1183529999998427]	5.77	6.28	1.0	controle	low_pain	43.9			sub-pilot017	250	17	43.9	44.9	COM11	COM7	COM3	2023-11-10_13h09.56.900	001-EEG_SVR_Officel	2022.2.5	144.1038469963728		6.283999999999992	0_sub-pilot017_SVR_EEG_block1-2.protocol.csv	step37	6709	667.316	STIMULATE	43.8	43.8	43.8	43.8	43.9	37	465.764
468.912	0	234456	wait	20	1	0	1	0	2.0	0.0	2.0	0.0						674.6997780000002	681.4506652	681.4506652	2.0	['2', 'return']	[2.466597300000103, 3.29916900000012]	6.74	6.2	2.0	40hz	low_pain	43.9			sub-pilot017	250	17	43.9	44.9	COM11	COM7	COM3	2023-11-10_13h09.56.900	001-EEG_SVR_Officel	2022.2.5	144.1038469963728		9.867999999999995	0_sub-pilot017_SVR_EEG_block1-2.protocol.csv	step39	6938	690.078	STIMULATE	43.8	43.7	43.8	43.8	43.8	39	488.52599999999995
475.65	0	237825	40hz	9	1	0	1	0	2.0	0.0	2.0	0.0						674.6997780000002	681.4506652	681.4506652	2.0	['2', 'return']	[2.466597300000103, 3.29916900000012]	6.74	6.2	2.0	40hz	low_pain	43.9			sub-pilot017	250	17	43.9	44.9	COM11	COM7	COM3	2023-11-10_13h09.56.900	001-EEG_SVR_Officel	2022.2.5	144.1038469963728		6.7379999999999995	0_sub-pilot017_SVR_EEG_block1-2.protocol.csv	step39	6938	690.078	STIMULATE	43.8	43.7	43.8	43.8	43.8	39	488.52599999999995
482.602	0	241301	40/Lo	8	1	0	1	0	2.0	0.0	2.0	0.0						674.6997780000002	681.4506652	681.4506652	2.0	['2', 'return']	[2.466597300000103, 3.29916900000012]	6.74	6.2	2.0	40hz	low_pain	43.9			sub-pilot017	250	17	43.9	44.9	COM11	COM7	COM3	2023-11-10_13h09.56.900	001-EEG_SVR_Officel	2022.2.5	144.1038469963728		6.201999999999998	0_sub-pilot017_SVR_EEG_block1-2.protocol.csv	step39	6938	690.078	STIMULATE	43.8	43.7	43.8	43.8	43.8	39	488.52599999999995
491.984	0	245992	wait	20	1	0	1	0	3.0	0.0	3.0	0.0						697.7719650000001	704.7937968000001	704.7937968000001	3.5	['3', 'a', '5', 'return']	[3.1717200999999022, 3.4431079999999383, 3.8434425999998894, 4.555460799999992]	7.01	6.02	3.0	controle	low_pain	43.9			sub-pilot017	250	17	43.9	44.9	COM11	COM7	COM3	2023-11-10_13h09.56.900	001-EEG_SVR_Officel	2022.2.5	144.1038469963728		10.132000000000005	0_sub-pilot017_SVR_EEG_block1-2.protocol.csv	step41	7172	713.279	STIMULATE	43.8	43.8	43.8	43.8	43.8	41	511.727
498.994	0	249497	CNhz	12	1	0	1	0	3.0	0.0	3.0	0.0						697.7719650000001	704.7937968000001	704.7937968000001	3.5	['3', 'a', '5', 'return']	[3.1717200999999022, 3.4431079999999383, 3.8434425999998894, 4.555460799999992]	7.01	6.02	3.0	controle	low_pain	43.9			sub-pilot017	250	17	43.9	44.9	COM11	COM7	COM3	2023-11-10_13h09.56.900	001-EEG_SVR_Officel	2022.2.5	144.1038469963728		7.010000000000048	0_sub-pilot017_SVR_EEG_block1-2.protocol.csv	step41	7172	713.279	STIMULATE	43.8	43.8	43.8	43.8	43.8	41	511.727
505.764	0	252882	CN/Lo	11	1	0	1	0	3.0	0.0	3.0	0.0						697.7719650000001	704.7937968000001	704.7937968000001	3.5	['3', 'a', '5', 'return']	[3.1717200999999022, 3.4431079999999383, 3.8434425999998894, 4.555460799999992]	7.01	6.02	3.0	controle	low_pain	43.9			sub-pilot017	250	17	43.9	44.9	COM11	COM7	COM3	2023-11-10_13h09.56.900	001-EEG_SVR_Officel	2022.2.5	144.1038469963728		6.019999999999982	0_sub-pilot017_SVR_EEG_block1-2.protocol.csv	step41	7172	713.279	STIMULATE	43.8	43.8	43.8	43.8	43.8	41	511.727
516.572	0	258286	wait	20	1	0	1	0	4.0	0.0	4.0	0.0						722.3582196	727.6375806000001	727.6375806000001	5.0	['5', 'return']	[2.6405432999999903, 3.329728100000011]	5.27	5.11	0.0	20hz	high_pain	44.9			sub-pilot017	250	17	43.9	44.9	COM11	COM7	COM3	2023-11-10_13h09.56.900	001-EEG_SVR_Officel	2022.2.5	144.1038469963728		11.557999999999993	0_sub-pilot017_SVR_EEG_block1-2.protocol.csv	step43	7393	735.21	STIMULATE	45.1	44.8	44.8	44.8	45.0	43	533.658
521.838	0	260918	20hz	6	1	0	1	0	4.0	0.0	4.0	0.0						722.3582196	727.6375806000001	727.6375806000001	5.0	['5', 'return']	[2.6405432999999903, 3.329728100000011]	5.27	5.11	0.0	20hz	high_pain	44.9			sub-pilot017	250	17	43.9	44.9	COM11	COM7	COM3	2023-11-10_13h09.56.900	001-EEG_SVR_Officel	2022.2.5	144.1038469963728		5.265999999999963	0_sub-pilot017_SVR_EEG_block1-2.protocol.csv	step43	7393	735.21	STIMULATE	45.1	44.8	44.8	44.8	45.0	43	533.658
527.698	0	263849	20/Hi	4	1	0	1	0	4.0	0.0	4.0	0.0						722.3582196	727.6375806000001	727.6375806000001	5.0	['5', 'return']	[2.6405432999999903, 3.329728100000011]	5.27	5.11	0.0	20hz	high_pain	44.9			sub-pilot017	250	17	43.9	44.9	COM11	COM7	COM3	2023-11-10_13h09.56.900	001-EEG_SVR_Officel	2022.2.5	144.1038469963728		5.110000000000014	0_sub-pilot017_SVR_EEG_block1-2.protocol.csv	step43	7393	735.21	STIMULATE	45.1	44.8	44.8	44.8	45.0	43	533.658
538.192	0	269096	wait	20	1	0	1	0	5.0	0.0	5.0	0.0						743.9791184000001	751.6884198	751.6884198	2.0	['2', 'return']	[3.0295052999999825, 3.8212334999998347]	7.7	5.91	1.0	40hz	low_pain	43.9			sub-pilot017	250	17	43.9	44.9	COM11	COM7	COM3	2023-11-10_13h09.56.900	001-EEG_SVR_Officel	2022.2.5	144.1038469963728		11.244000000000028	0_sub-pilot017_SVR_EEG_block1-2.protocol.csv	step45	7644	760.056	STIMULATE	43.9	43.8	43.8	43.8	43.9	45	558.504
545.888	0	272944	40hz	9	1	0	1	0	5.0	0.0	5.0	0.0						743.9791184000001	751.6884198	751.6884198	2.0	['2', 'return']	[3.0295052999999825, 3.8212334999998347]	7.7	5.91	1.0	40hz	low_pain	43.9			sub-pilot017	250	17	43.9	44.9	COM11	COM7	COM3	2023-11-10_13h09.56.900	001-EEG_SVR_Officel	2022.2.5	144.1038469963728		7.696000000000026	0_sub-pilot017_SVR_EEG_block1-2.protocol.csv	step45	7644	760.056	STIMULATE	43.9	43.8	43.8	43.8	43.9	45	558.504
552.548	0	276274	40/Lo	8	1	0	1	0	5.0	0.0	5.0	0.0						743.9791184000001	751.6884198	751.6884198	2.0	['2', 'return']	[3.0295052999999825, 3.8212334999998347]	7.7	5.91	1.0	40hz	low_pain	43.9			sub-pilot017	250	17	43.9	44.9	COM11	COM7	COM3	2023-11-10_13h09.56.900	001-EEG_SVR_Officel	2022.2.5	144.1038469963728		5.909999999999968	0_sub-pilot017_SVR_EEG_block1-2.protocol.csv	step45	7644	760.056	STIMULATE	43.9	43.8	43.8	43.8	43.9	45	558.504
562.736	0	281368	wait	20	1	0	1	0	6.0	0.0	6.0	0.0						768.5231753999999	774.7395850999999	774.7395850999999	5.0	['5', 'return']	[2.6812229999995907, 3.242736199999854]	6.21	6.15	2.0	10hz	high_pain	44.9			sub-pilot017	250	17	43.9	44.9	COM11	COM7	COM3	2023-11-10_13h09.56.900	001-EEG_SVR_Officel	2022.2.5	144.1038469963728		10.937999999999988	0_sub-pilot017_SVR_EEG_block1-2.protocol.csv	step47	7878	783.293	STIMULATE	44.9	44.8	44.8	44.8	44.8	47	581.741
568.94	0	284470	10hz	3	1	0	1	0	6.0	0.0	6.0	0.0						768.5231753999999	774.7395850999999	774.7395850999999	5.0	['5', 'return']	[2.6812229999995907, 3.242736199999854]	6.21	6.15	2.0	10hz	high_pain	44.9			sub-pilot017	250	17	43.9	44.9	COM11	COM7	COM3	2023-11-10_13h09.56.900	001-EEG_SVR_Officel	2022.2.5	144.1038469963728		6.204000000000065	0_sub-pilot017_SVR_EEG_block1-2.protocol.csv	step47	7878	783.293	STIMULATE	44.9	44.8	44.8	44.8	44.8	47	581.741
575.84	0	287920	10/Hi	1	1	0	1	0	6.0	0.0	6.0	0.0						768.5231753999999	774.7395850999999	774.7395850999999	5.0	['5', 'return']	[2.6812229999995907, 3.242736199999854]	6.21	6.15	2.0	10hz	high_pain	44.9			sub-pilot017	250	17	43.9	44.9	COM11	COM7	COM3	2023-11-10_13h09.56.900	001-EEG_SVR_Officel	2022.2.5	144.1038469963728		6.149999999999977	0_sub-pilot017_SVR_EEG_block1-2.protocol.csv	step47	7878	783.293	STIMULATE	44.9	44.8	44.8	44.8	44.8	47	581.741
585.204	0	292602	wait	20	1	0	1	0	7.0	0.0	7.0	0.0						790.9916045000002	797.3325723999999	797.3325723999999	6.5	['6', 'a', '5', 'return']	[3.017692099999749, 3.3856722999998965, 3.56233949999978, 4.30545230000007]	6.33	5.92	3.0	40hz	high_pain	44.9			sub-pilot017	250	17	43.9	44.9	COM11	COM7	COM3	2023-11-10_13h09.56.900	001-EEG_SVR_Officel	2022.2.5	144.1038469963728		10.113999999999919	0_sub-pilot017_SVR_EEG_block1-2.protocol.csv	step49	8099	805.633	STIMULATE	44.9	44.8	44.8	44.8	44.8	49	604.081
591.532	0	295766	40hz	9	1	0	1	0	7.0	0.0	7.0	0.0						790.9916045000002	797.3325723999999	797.3325723999999	6.5	['6', 'a', '5', 'return']	[3.017692099999749, 3.3856722999998965, 3.56233949999978, 4.30545230000007]	6.33	5.92	3.0	40hz	high_pain	44.9			sub-pilot017	250	17	43.9	44.9	COM11	COM7	COM3	2023-11-10_13h09.56.900	001-EEG_SVR_Officel	2022.2.5	144.1038469963728		6.328000000000088	0_sub-pilot017_SVR_EEG_block1-2.protocol.csv	step49	8099	805.633	STIMULATE	44.9	44.8	44.8	44.8	44.8	49	604.081
598.204	0	299102	40/Hi	7	1	0	1	0	7.0	0.0	7.0	0.0						790.9916045000002	797.3325723999999	797.3325723999999	6.5	['6', 'a', '5', 'return']	[3.017692099999749, 3.3856722999998965, 3.56233949999978, 4.30545230000007]	6.33	5.92	3.0	40hz	high_pain	44.9			sub-pilot017	250	17	43.9	44.9	COM11	COM7	COM3	2023-11-10_13h09.56.900	001-EEG_SVR_Officel	2022.2.5	144.1038469963728		5.921999999999912	0_sub-pilot017_SVR_EEG_block1-2.protocol.csv	step49	8099	805.633	STIMULATE	44.9	44.8	44.8	44.8	44.8	49	604.081
608.858	0	304429	wait	20	1	0	1	0	8.0	0.0	8.0	0.0						814.6470763	822.3565864	822.3565864	1.0	['1', 'return']	[3.184506000000056, 4.521615099999963]	7.7	5.14	0.0	10hz	low_pain	43.9			sub-pilot017	250	17	43.9	44.9	COM11	COM7	COM3	2023-11-10_13h09.56.900	001-EEG_SVR_Officel	2022.2.5	144.1038469963728		11.403999999999996	0_sub-pilot017_SVR_EEG_block1-2.protocol.csv	step51	8335	829.918	STIMULATE	43.9	43.8	43.7	43.8	43.9	51	628.366
616.556	0	308278	10hz	3	1	0	1	0	8.0	0.0	8.0	0.0						814.6470763	822.3565864	822.3565864	1.0	['1', 'return']	[3.184506000000056, 4.521615099999963]	7.7	5.14	0.0	10hz	low_pain	43.9			sub-pilot017	250	17	43.9	44.9	COM11	COM7	COM3	2023-11-10_13h09.56.900	001-EEG_SVR_Officel	2022.2.5	144.1038469963728		7.698000000000093	0_sub-pilot017_SVR_EEG_block1-2.protocol.csv	step51	8335	829.918	STIMULATE	43.9	43.8	43.7	43.8	43.9	51	628.366
622.45	0	311225	10/Lo	2	1	0	1	0	8.0	0.0	8.0	0.0						814.6470763	822.3565864	822.3565864	1.0	['1', 'return']	[3.184506000000056, 4.521615099999963]	7.7	5.14	0.0	10hz	low_pain	43.9			sub-pilot017	250	17	43.9	44.9	COM11	COM7	COM3	2023-11-10_13h09.56.900	001-EEG_SVR_Officel	2022.2.5	144.1038469963728		5.1440000000000055	0_sub-pilot017_SVR_EEG_block1-2.protocol.csv	step51	8335	829.918	STIMULATE	43.9	43.8	43.7	43.8	43.9	51	628.366
634.106	0	317053	wait	20	1	0	1	0	9.0	0.0	9.0	0.0						839.8936249000001	847.0818944999999	847.0818944999999	5.0	['5', 'return']	[3.0669996999999967, 3.788291400000162]	7.18	5.99	1.0	controle	high_pain	44.9			sub-pilot017	250	17	43.9	44.9	COM11	COM7	COM3	2023-11-10_13h09.56.900	001-EEG_SVR_Officel	2022.2.5	144.1038469963728		12.405999999999949	0_sub-pilot017_SVR_EEG_block1-2.protocol.csv	step53	8582	855.529	STIMULATE	44.9	44.8	44.8	44.8	44.9	53	653.977
641.282	0	320641	CNhz	12	1	0	1	0	9.0	0.0	9.0	0.0						839.8936249000001	847.0818944999999	847.0818944999999	5.0	['5', 'return']	[3.0669996999999967, 3.788291400000162]	7.18	5.99	1.0	controle	high_pain	44.9			sub-pilot017	250	17	43.9	44.9	COM11	COM7	COM3	2023-11-10_13h09.56.900	001-EEG_SVR_Officel	2022.2.5	144.1038469963728		7.176000000000045	0_sub-pilot017_SVR_EEG_block1-2.protocol.csv	step53	8582	855.529	STIMULATE	44.9	44.8	44.8	44.8	44.9	53	653.977
648.024	0	324012	CN/Hi	10	1	0	1	0	9.0	0.0	9.0	0.0						839.8936249000001	847.0818944999999	847.0818944999999	5.0	['5', 'return']	[3.0669996999999967, 3.788291400000162]	7.18	5.99	1.0	controle	high_pain	44.9			sub-pilot017	250	17	43.9	44.9	COM11	COM7	COM3	2023-11-10_13h09.56.900	001-EEG_SVR_Officel	2022.2.5	144.1038469963728		5.991999999999962	0_sub-pilot017_SVR_EEG_block1-2.protocol.csv	step53	8582	855.529	STIMULATE	44.9	44.8	44.8	44.8	44.9	53	653.977
658.094	0	329047	wait	20	1	0	1	0	10.0	0.0	10.0	0.0						863.8822943000002	869.4796147	869.4796147	3.0	['3', 'return']	[2.91714280000042, 3.5731825000002573]	5.59	6.45	2.0	20hz	low_pain	43.9			sub-pilot017	250	17	43.9	44.9	COM11	COM7	COM3	2023-11-10_13h09.56.900	001-EEG_SVR_Officel	2022.2.5	144.1038469963728		10.82000000000005	0_sub-pilot017_SVR_EEG_block1-2.protocol.csv	step55	8800	878.358	STIMULATE	43.9	43.8	43.8	43.8	43.8	55	676.8059999999999
663.68	0	331840	20hz	6	1	0	1	0	10.0	0.0	10.0	0.0						863.8822943000002	869.4796147	869.4796147	3.0	['3', 'return']	[2.91714280000042, 3.5731825000002573]	5.59	6.45	2.0	20hz	low_pain	43.9			sub-pilot017	250	17	43.9	44.9	COM11	COM7	COM3	2023-11-10_13h09.56.900	001-EEG_SVR_Officel	2022.2.5	144.1038469963728		5.585999999999899	0_sub-pilot017_SVR_EEG_block1-2.protocol.csv	step55	8800	878.358	STIMULATE	43.9	43.8	43.8	43.8	43.8	55	676.8059999999999
670.88	0	335440	20/Lo	5	1	0	1	0	10.0	0.0	10.0	0.0						863.8822943000002	869.4796147	869.4796147	3.0	['3', 'return']	[2.91714280000042, 3.5731825000002573]	5.59	6.45	2.0	20hz	low_pain	43.9			sub-pilot017	250	17	43.9	44.9	COM11	COM7	COM3	2023-11-10_13h09.56.900	001-EEG_SVR_Officel	2022.2.5	144.1038469963728		6.4500000000000455	0_sub-pilot017_SVR_EEG_block1-2.protocol.csv	step55	8800	878.358	STIMULATE	43.9	43.8	43.8	43.8	43.8	55	676.8059999999999
680.278	0	340139	wait	20	1	0	1	0	11.0	0.0	11.0	0.0						886.0654949000002	892.5664431000002	892.5664431000002	4.0	['4', 'return']	[3.0155918000000383, 3.4561616000000868]	6.49	6.1	3.0	10hz	low_pain	43.9			sub-pilot017	250	17	43.9	44.9	COM11	COM7	COM3	2023-11-10_13h09.56.900	001-EEG_SVR_Officel	2022.2.5	144.1038469963728		10.148000000000025	0_sub-pilot017_SVR_EEG_block1-2.protocol.csv	step57	9015	901.069	STIMULATE	43.9	43.8	43.8	43.8	43.8	57	699.5169999999999
686.766	0	343383	10hz	3	1	0	1	0	11.0	0.0	11.0	0.0						886.0654949000002	892.5664431000002	892.5664431000002	4.0	['4', 'return']	[3.0155918000000383, 3.4561616000000868]	6.49	6.1	3.0	10hz	low_pain	43.9			sub-pilot017	250	17	43.9	44.9	COM11	COM7	COM3	2023-11-10_13h09.56.900	001-EEG_SVR_Officel	2022.2.5	144.1038469963728		6.487999999999943	0_sub-pilot017_SVR_EEG_block1-2.protocol.csv	step57	9015	901.069	STIMULATE	43.9	43.8	43.8	43.8	43.8	57	699.5169999999999
693.62	0	346810	10/Lo	2	1	0	1	0	11.0	0.0	11.0	0.0						886.0654949000002	892.5664431000002	892.5664431000002	4.0	['4', 'return']	[3.0155918000000383, 3.4561616000000868]	6.49	6.1	3.0	10hz	low_pain	43.9			sub-pilot017	250	17	43.9	44.9	COM11	COM7	COM3	2023-11-10_13h09.56.900	001-EEG_SVR_Officel	2022.2.5	144.1038469963728		6.104000000000042	0_sub-pilot017_SVR_EEG_block1-2.protocol.csv	step57	9015	901.069	STIMULATE	43.9	43.8	43.8	43.8	43.8	57	699.5169999999999
703.252	0	351626	wait	20	1	0	1	0	12.0	0.0	12.0	0.0						909.0406321000004	916.2776216	916.2776216	4.5	['4', 'a', '5', 'return']	[3.152463599999919, 3.7039857999998276, 3.887977899999896, 4.641015599999719]	7.23	6.04	0.0	controle	low_pain	43.9			sub-pilot017	250	17	43.9	44.9	COM11	COM7	COM3	2023-11-10_13h09.56.900	001-EEG_SVR_Officel	2022.2.5	144.1038469963728		10.381999999999948	0_sub-pilot017_SVR_EEG_block1-2.protocol.csv	step59	9237	924.788	STIMULATE	44.0	43.8	43.8	43.8	44.0	59	723.236
710.478	0	355239	CNhz	12	1	0	1	0	12.0	0.0	12.0	0.0						909.0406321000004	916.2776216	916.2776216	4.5	['4', 'a', '5', 'return']	[3.152463599999919, 3.7039857999998276, 3.887977899999896, 4.641015599999719]	7.23	6.04	0.0	controle	low_pain	43.9			sub-pilot017	250	17	43.9	44.9	COM11	COM7	COM3	2023-11-10_13h09.56.900	001-EEG_SVR_Officel	2022.2.5	144.1038469963728		7.225999999999999	0_sub-pilot017_SVR_EEG_block1-2.protocol.csv	step59	9237	924.788	STIMULATE	44.0	43.8	43.8	43.8	44.0	59	723.236
717.268	0	358634	CN/Lo	11	1	0	1	0	12.0	0.0	12.0	0.0						909.0406321000004	916.2776216	916.2776216	4.5	['4', 'a', '5', 'return']	[3.152463599999919, 3.7039857999998276, 3.887977899999896, 4.641015599999719]	7.23	6.04	0.0	controle	low_pain	43.9			sub-pilot017	250	17	43.9	44.9	COM11	COM7	COM3	2023-11-10_13h09.56.900	001-EEG_SVR_Officel	2022.2.5	144.1038469963728		6.040000000000077	0_sub-pilot017_SVR_EEG_block1-2.protocol.csv	step59	9237	924.788	STIMULATE	44.0	43.8	43.8	43.8	44.0	59	723.236
728.15	0	364075	wait	20	1	0	1	0	13.0	0.0	13.0	0.0						933.9394368	941.3083276	941.3083276	3.0	['3', 'return']	[3.2003089999998338, 4.12934069999983]	7.36	5.01	1.0	40hz	high_pain	44.9			sub-pilot017	250	17	43.9	44.9	COM11	COM7	COM3	2023-11-10_13h09.56.900	001-EEG_SVR_Officel	2022.2.5	144.1038469963728		11.631999999999948	0_sub-pilot017_SVR_EEG_block1-2.protocol.csv	step61	9460	948.755	STIMULATE	44.9	44.8	44.8	44.8	44.9	61	747.203
735.508	0	367754	40hz	9	1	0	1	0	13.0	0.0	13.0	0.0						933.9394368	941.3083276	941.3083276	3.0	['3', 'return']	[3.2003089999998338, 4.12934069999983]	7.36	5.01	1.0	40hz	high_pain	44.9			sub-pilot017	250	17	43.9	44.9	COM11	COM7	COM3	2023-11-10_13h09.56.900	001-EEG_SVR_Officel	2022.2.5	144.1038469963728		7.358000000000061	0_sub-pilot017_SVR_EEG_block1-2.protocol.csv	step61	9460	948.755	STIMULATE	44.9	44.8	44.8	44.8	44.9	61	747.203
741.27	0	370635	40/Hi	7	1	0	1	0	13.0	0.0	13.0	0.0						933.9394368	941.3083276	941.3083276	3.0	['3', 'return']	[3.2003089999998338, 4.12934069999983]	7.36	5.01	1.0	40hz	high_pain	44.9			sub-pilot017	250	17	43.9	44.9	COM11	COM7	COM3	2023-11-10_13h09.56.900	001-EEG_SVR_Officel	2022.2.5	144.1038469963728		5.011999999999944	0_sub-pilot017_SVR_EEG_block1-2.protocol.csv	step61	9460	948.755	STIMULATE	44.9	44.8	44.8	44.8	44.9	61	747.203
752.668	0	376334	wait	20	1	0	1	0	14.0	0.0	14.0	0.0						958.4569434000002	965.4369832	965.4369832	2.0	['2', 'return']	[3.5051484999999047, 4.137245899999925]	6.97	6.04	2.0	controle	low_pain	43.9			sub-pilot017	250	17	43.9	44.9	COM11	COM7	COM3	2023-11-10_13h09.56.900	001-EEG_SVR_Officel	2022.2.5	144.1038469963728		12.148000000000025	0_sub-pilot017_SVR_EEG_block1-2.protocol.csv	step63	9692	973.954	STIMULATE	44.0	43.8	43.8	43.8	43.8	63	772.4019999999999
759.636	0	379818	CNhz	12	1	0	1	0	14.0	0.0	14.0	0.0						958.4569434000002	965.4369832	965.4369832	2.0	['2', 'return']	[3.5051484999999047, 4.137245899999925]	6.97	6.04	2.0	controle	low_pain	43.9			sub-pilot017	250	17	43.9	44.9	COM11	COM7	COM3	2023-11-10_13h09.56.900	001-EEG_SVR_Officel	2022.2.5	144.1038469963728		6.967999999999961	0_sub-pilot017_SVR_EEG_block1-2.protocol.csv	step63	9692	973.954	STIMULATE	44.0	43.8	43.8	43.8	43.8	63	772.4019999999999
766.426	0	383213	CN/Lo	11	1	0	1	0	14.0	0.0	14.0	0.0						958.4569434000002	965.4369832	965.4369832	2.0	['2', 'return']	[3.5051484999999047, 4.137245899999925]	6.97	6.04	2.0	controle	low_pain	43.9			sub-pilot017	250	17	43.9	44.9	COM11	COM7	COM3	2023-11-10_13h09.56.900	001-EEG_SVR_Officel	2022.2.5	144.1038469963728		6.040000000000077	0_sub-pilot017_SVR_EEG_block1-2.protocol.csv	step63	9692	973.954	STIMULATE	44.0	43.8	43.8	43.8	43.8	63	772.4019999999999
776.794	0	388397	wait	20	1	0	1	0	15.0	0.0	15.0	0.0						982.5842575	989.2864551	989.2864551	4.5	['4', 'a', '5', 'return']	[3.7030384000004233, 4.103872700000011, 4.272374100000434, 5.0725288000003275]	6.69	5.62	3.0	controle	high_pain	44.9			sub-pilot017	250	17	43.9	44.9	COM11	COM7	COM3	2023-11-10_13h09.56.900	001-EEG_SVR_Officel	2022.2.5	144.1038469963728		11.117999999999938	0_sub-pilot017_SVR_EEG_block1-2.protocol.csv	step65	9906	997.391	STIMULATE	45.0	44.8	44.8	44.8	44.8	65	795.8389999999999
783.484	0	391742	CNhz	12	1	0	1	0	15.0	0.0	15.0	0.0						982.5842575	989.2864551	989.2864551	4.5	['4', 'a', '5', 'return']	[3.7030384000004233, 4.103872700000011, 4.272374100000434, 5.0725288000003275]	6.69	5.62	3.0	controle	high_pain	44.9			sub-pilot017	250	17	43.9	44.9	COM11	COM7	COM3	2023-11-10_13h09.56.900	001-EEG_SVR_Officel	2022.2.5	144.1038469963728		6.690000000000055	0_sub-pilot017_SVR_EEG_block1-2.protocol.csv	step65	9906	997.391	STIMULATE	45.0	44.8	44.8	44.8	44.8	65	795.8389999999999
789.858	0	394929	CN/Hi	10	1	0	1	0	15.0	0.0	15.0	0.0						982.5842575	989.2864551	989.2864551	4.5	['4', 'a', '5', 'return']	[3.7030384000004233, 4.103872700000011, 4.272374100000434, 5.0725288000003275]	6.69	5.62	3.0	controle	high_pain	44.9			sub-pilot017	250	17	43.9	44.9	COM11	COM7	COM3	2023-11-10_13h09.56.900	001-EEG_SVR_Officel	2022.2.5	144.1038469963728		5.62399999999991	0_sub-pilot017_SVR_EEG_block1-2.protocol.csv	step65	9906	997.391	STIMULATE	45.0	44.8	44.8	44.8	44.8	65	795.8389999999999
832.718	0	416359	wait	20	2	0	2	0	0.0	0.0	0.0	0.0				p	0.3276347999999416	1038.507746	1044.2791779	1044.2791779	2.0	['2', 'return']	[3.030970900000284, 3.695140100000117]	5.76	6.17	0.0	20hz	low_pain	43.9			sub-pilot017	250	17	43.9	44.9	COM11	COM7	COM3	2023-11-10_13h09.56.900	001-EEG_SVR_Officel	2022.2.5	144.1038469963728		43.610000000000014	1_sub-pilot017_SVR_EEG_block3-4.protocol.csv	step3	288	28.633	STIMULATE	43.9	43.8	43.8	43.9	44.0	3	851.151
838.478	0	419239	20hz	6	2	0	2	0	0.0	0.0	0.0	0.0				p	0.3276347999999416	1038.507746	1044.2791779	1044.2791779	2.0	['2', 'return']	[3.030970900000284, 3.695140100000117]	5.76	6.17	0.0	20hz	low_pain	43.9			sub-pilot017	250	17	43.9	44.9	COM11	COM7	COM3	2023-11-10_13h09.56.900	001-EEG_SVR_Officel	2022.2.5	144.1038469963728		5.759999999999991	1_sub-pilot017_SVR_EEG_block3-4.protocol.csv	step3	288	28.633	STIMULATE	43.9	43.8	43.8	43.9	44.0	3	851.151
845.4	0	422700	20/Lo	5	2	0	2	0	0.0	0.0	0.0	0.0				p	0.3276347999999416	1038.507746	1044.2791779	1044.2791779	2.0	['2', 'return']	[3.030970900000284, 3.695140100000117]	5.76	6.17	0.0	20hz	low_pain	43.9			sub-pilot017	250	17	43.9	44.9	COM11	COM7	COM3	2023-11-10_13h09.56.900	001-EEG_SVR_Officel	2022.2.5	144.1038469963728		6.1720000000000255	1_sub-pilot017_SVR_EEG_block3-4.protocol.csv	step3	288	28.633	STIMULATE	43.9	43.8	43.8	43.9	44.0	3	851.151
855.208	0	427604	wait	20	2	0	2	0	1.0	0.0	1.0	0.0						1060.9963839	1068.7484321	1068.7484321	3.5	['3', 'a', '5', 'return']	[2.9616304999999556, 3.193608300000051, 3.5216482000000724, 8.243558599999687]	7.74	6.45	1.0	20hz	high_pain	44.9			sub-pilot017	250	17	43.9	44.9	COM11	COM7	COM3	2023-11-10_13h09.56.900	001-EEG_SVR_Officel	2022.2.5	144.1038469963728		10.557999999999993	1_sub-pilot017_SVR_EEG_block3-4.protocol.csv	step5	538	53.47	STIMULATE	44.9	44.8	44.8	44.8	44.9	5	875.9879999999999
862.946	0	431473	20hz	6	2	0	2	0	1.0	0.0	1.0	0.0						1060.9963839	1068.7484321	1068.7484321	3.5	['3', 'a', '5', 'return']	[2.9616304999999556, 3.193608300000051, 3.5216482000000724, 8.243558599999687]	7.74	6.45	1.0	20hz	high_pain	44.9			sub-pilot017	250	17	43.9	44.9	COM11	COM7	COM3	2023-11-10_13h09.56.900	001-EEG_SVR_Officel	2022.2.5	144.1038469963728		7.738000000000056	1_sub-pilot017_SVR_EEG_block3-4.protocol.csv	step5	538	53.47	STIMULATE	44.9	44.8	44.8	44.8	44.9	5	875.9879999999999
870.146	0	435073	20/Hi	4	2	0	2	0	1.0	0.0	1.0	0.0						1060.9963839	1068.7484321	1068.7484321	3.5	['3', 'a', '5', 'return']	[2.9616304999999556, 3.193608300000051, 3.5216482000000724, 8.243558599999687]	7.74	6.45	1.0	20hz	high_pain	44.9			sub-pilot017	250	17	43.9	44.9	COM11	COM7	COM3	2023-11-10_13h09.56.900	001-EEG_SVR_Officel	2022.2.5	144.1038469963728		6.449999999999932	1_sub-pilot017_SVR_EEG_block3-4.protocol.csv	step5	538	53.47	STIMULATE	44.9	44.8	44.8	44.8	44.9	5	875.9879999999999
884.216	0	442108	wait	20	2	0	2	0	2.0	0.0	2.0	0.0						1090.0072468	1095.2237288	1095.2237288	2.0	['2', 'return']	[2.9191671000003225, 3.5831394000001637]	5.21	5.48	2.0	10hz	low_pain	43.9			sub-pilot017	250	17	43.9	44.9	COM11	COM7	COM3	2023-11-10_13h09.56.900	001-EEG_SVR_Officel	2022.2.5	144.1038469963728		14.82000000000005	1_sub-pilot017_SVR_EEG_block3-4.protocol.csv	step7	796	79.014	STIMULATE	43.9	43.8	43.8	43.8	43.8	7	901.5319999999999
889.422	0	444711	10hz	3	2	0	2	0	2.0	0.0	2.0	0.0						1090.0072468	1095.2237288	1095.2237288	2.0	['2', 'return']	[2.9191671000003225, 3.5831394000001637]	5.21	5.48	2.0	10hz	low_pain	43.9			sub-pilot017	250	17	43.9	44.9	COM11	COM7	COM3	2023-11-10_13h09.56.900	001-EEG_SVR_Officel	2022.2.5	144.1038469963728		5.206000000000017	1_sub-pilot017_SVR_EEG_block3-4.protocol.csv	step7	796	79.014	STIMULATE	43.9	43.8	43.8	43.8	43.8	7	901.5319999999999
895.656	0	447828	10/Lo	2	2	0	2	0	2.0	0.0	2.0	0.0						1090.0072468	1095.2237288	1095.2237288	2.0	['2', 'return']	[2.9191671000003225, 3.5831394000001637]	5.21	5.48	2.0	10hz	low_pain	43.9			sub-pilot017	250	17	43.9	44.9	COM11	COM7	COM3	2023-11-10_13h09.56.900	001-EEG_SVR_Officel	2022.2.5	144.1038469963728		5.483999999999924	1_sub-pilot017_SVR_EEG_block3-4.protocol.csv	step7	796	79.014	STIMULATE	43.9	43.8	43.8	43.8	43.8	7	901.5319999999999
906.032	0	453016	wait	20	2	0	2	0	3.0	0.0	3.0	0.0						1111.8223075	1118.8645253000002	1118.8645253000002	3.0	['3', 'return']	[4.229197900000145, 5.285708200000045]	7.03	5.8	3.0	10hz	low_pain	43.9			sub-pilot017	250	17	43.9	44.9	COM11	COM7	COM3	2023-11-10_13h09.56.900	001-EEG_SVR_Officel	2022.2.5	144.1038469963728		11.12600000000009	1_sub-pilot017_SVR_EEG_block3-4.protocol.csv	step9	1037	102.902	STIMULATE	43.9	43.8	43.8	43.8	43.8	9	925.42
913.062	0	456531	10hz	3	2	0	2	0	3.0	0.0	3.0	0.0						1111.8223075	1118.8645253000002	1118.8645253000002	3.0	['3', 'return']	[4.229197900000145, 5.285708200000045]	7.03	5.8	3.0	10hz	low_pain	43.9			sub-pilot017	250	17	43.9	44.9	COM11	COM7	COM3	2023-11-10_13h09.56.900	001-EEG_SVR_Officel	2022.2.5	144.1038469963728		7.029999999999973	1_sub-pilot017_SVR_EEG_block3-4.protocol.csv	step9	1037	102.902	STIMULATE	43.9	43.8	43.8	43.8	43.8	9	925.42
919.616	0	459808	10/Lo	2	2	0	2	0	3.0	0.0	3.0	0.0						1111.8223075	1118.8645253000002	1118.8645253000002	3.0	['3', 'return']	[4.229197900000145, 5.285708200000045]	7.03	5.8	3.0	10hz	low_pain	43.9			sub-pilot017	250	17	43.9	44.9	COM11	COM7	COM3	2023-11-10_13h09.56.900	001-EEG_SVR_Officel	2022.2.5	144.1038469963728		5.803999999999974	1_sub-pilot017_SVR_EEG_block3-4.protocol.csv	step9	1037	102.902	STIMULATE	43.9	43.8	43.8	43.8	43.8	9	925.42
931.374	0	465687	wait	20	2	0	2	0	4.0	0.0	4.0	0.0						1137.1645322000002	1143.3050357	1143.3050357	6.0	['6', 'return']	[2.693736600000193, 3.22162040000012]	6.13	5.99	0.0	20hz	high_pain	44.9			sub-pilot017	250	17	43.9	44.9	COM11	COM7	COM3	2023-11-10_13h09.56.900	001-EEG_SVR_Officel	2022.2.5	144.1038469963728		12.508000000000038	1_sub-pilot017_SVR_EEG_block3-4.protocol.csv	step11	1286	127.605	STIMULATE	44.9	44.8	44.8	44.8	45.0	11	950.1229999999999
937.502	0	468751	20hz	6	2	0	2	0	4.0	0.0	4.0	0.0						1137.1645322000002	1143.3050357	1143.3050357	6.0	['6', 'return']	[2.693736600000193, 3.22162040000012]	6.13	5.99	0.0	20hz	high_pain	44.9			sub-pilot017	250	17	43.9	44.9	COM11	COM7	COM3	2023-11-10_13h09.56.900	001-EEG_SVR_Officel	2022.2.5	144.1038469963728		6.127999999999929	1_sub-pilot017_SVR_EEG_block3-4.protocol.csv	step11	1286	127.605	STIMULATE	44.9	44.8	44.8	44.8	45.0	11	950.1229999999999
944.244	0	472122	20/Hi	4	2	0	2	0	4.0	0.0	4.0	0.0						1137.1645322000002	1143.3050357	1143.3050357	6.0	['6', 'return']	[2.693736600000193, 3.22162040000012]	6.13	5.99	0.0	20hz	high_pain	44.9			sub-pilot017	250	17	43.9	44.9	COM11	COM7	COM3	2023-11-10_13h09.56.900	001-EEG_SVR_Officel	2022.2.5	144.1038469963728		5.9920000000000755	1_sub-pilot017_SVR_EEG_block3-4.protocol.csv	step11	1286	127.605	STIMULATE	44.9	44.8	44.8	44.8	45.0	11	950.1229999999999
953.744	0	476872	wait	20	2	0	2	0	5.0	0.0	5.0	0.0						1159.5355576	1165.9536049	1165.9536049	3.5	['3', 'a', '5', 'return']	[3.219961599999806, 3.5176197999999204, 3.7650181999997585, 4.581285100000059]	6.41	5.75	1.0	10hz	high_pain	44.9			sub-pilot017	250	17	43.9	44.9	COM11	COM7	COM3	2023-11-10_13h09.56.900	001-EEG_SVR_Officel	2022.2.5	144.1038469963728		10.25	1_sub-pilot017_SVR_EEG_block3-4.protocol.csv	step13	1511	149.904	STIMULATE	44.9	44.8	44.8	44.8	44.9	13	972.422
960.15	0	480075	10hz	3	2	0	2	0	5.0	0.0	5.0	0.0						1159.5355576	1165.9536049	1165.9536049	3.5	['3', 'a', '5', 'return']	[3.219961599999806, 3.5176197999999204, 3.7650181999997585, 4.581285100000059]	6.41	5.75	1.0	10hz	high_pain	44.9			sub-pilot017	250	17	43.9	44.9	COM11	COM7	COM3	2023-11-10_13h09.56.900	001-EEG_SVR_Officel	2022.2.5	144.1038469963728		6.405999999999949	1_sub-pilot017_SVR_EEG_block3-4.protocol.csv	step13	1511	149.904	STIMULATE	44.9	44.8	44.8	44.8	44.9	13	972.422
966.65	0	483325	10/Hi	1	2	0	2	0	5.0	0.0	5.0	0.0						1159.5355576	1165.9536049	1165.9536049	3.5	['3', 'a', '5', 'return']	[3.219961599999806, 3.5176197999999204, 3.7650181999997585, 4.581285100000059]	6.41	5.75	1.0	10hz	high_pain	44.9			sub-pilot017	250	17	43.9	44.9	COM11	COM7	COM3	2023-11-10_13h09.56.900	001-EEG_SVR_Officel	2022.2.5	144.1038469963728		5.75	1_sub-pilot017_SVR_EEG_block3-4.protocol.csv	step13	1511	149.904	STIMULATE	44.9	44.8	44.8	44.8	44.9	13	972.422
977.754	0	488877	wait	20	2	0	2	0	6.0	0.0	6.0	0.0						1183.5458652999998	1189.7551529	1189.7551529	3.0	['3', 'return']	[3.042658599999868, 3.7232175999997708]	6.2	5.23	2.0	controle	low_pain	43.9			sub-pilot017	250	17	43.9	44.9	COM11	COM7	COM3	2023-11-10_13h09.56.900	001-EEG_SVR_Officel	2022.2.5	144.1038469963728		11.854000000000042	1_sub-pilot017_SVR_EEG_block3-4.protocol.csv	step15	1746	173.251	STIMULATE	43.8	43.8	43.8	43.8	43.8	15	995.769
983.952	0	491976	CNhz	12	2	0	2	0	6.0	0.0	6.0	0.0						1183.5458652999998	1189.7551529	1189.7551529	3.0	['3', 'return']	[3.042658599999868, 3.7232175999997708]	6.2	5.23	2.0	controle	low_pain	43.9			sub-pilot017	250	17	43.9	44.9	COM11	COM7	COM3	2023-11-10_13h09.56.900	001-EEG_SVR_Officel	2022.2.5	144.1038469963728		6.197999999999979	1_sub-pilot017_SVR_EEG_block3-4.protocol.csv	step15	1746	173.251	STIMULATE	43.8	43.8	43.8	43.8	43.8	15	995.769
989.936	0	494968	CN/Lo	11	2	0	2	0	6.0	0.0	6.0	0.0						1183.5458652999998	1189.7551529	1189.7551529	3.0	['3', 'return']	[3.042658599999868, 3.7232175999997708]	6.2	5.23	2.0	controle	low_pain	43.9			sub-pilot017	250	17	43.9	44.9	COM11	COM7	COM3	2023-11-10_13h09.56.900	001-EEG_SVR_Officel	2022.2.5	144.1038469963728		5.234000000000037	1_sub-pilot017_SVR_EEG_block3-4.protocol.csv	step15	1746	173.251	STIMULATE	43.8	43.8	43.8	43.8	43.8	15	995.769
1000.708	0	500354	wait	20	2	0	2	0	7.0	0.0	7.0	0.0						1206.5001914000002	1213.4030302	1213.4030302	5.0	['5', 'return']	[3.1307044000000133, 3.6512753000001794]	6.89	5.51	3.0	controle	high_pain	44.9			sub-pilot017	250	17	43.9	44.9	COM11	COM7	COM3	2023-11-10_13h09.56.900	001-EEG_SVR_Officel	2022.2.5	144.1038469963728		11.521999999999935	1_sub-pilot017_SVR_EEG_block3-4.protocol.csv	step17	1988	197.207	STIMULATE	44.9	44.8	44.8	44.8	44.8	17	1019.7249999999999
1007.6	0	503800	CNhz	12	2	0	2	0	7.0	0.0	7.0	0.0						1206.5001914000002	1213.4030302	1213.4030302	5.0	['5', 'return']	[3.1307044000000133, 3.6512753000001794]	6.89	5.51	3.0	controle	high_pain	44.9			sub-pilot017	250	17	43.9	44.9	COM11	COM7	COM3	2023-11-10_13h09.56.900	001-EEG_SVR_Officel	2022.2.5	144.1038469963728		6.892000000000053	1_sub-pilot017_SVR_EEG_block3-4.protocol.csv	step17	1988	197.207	STIMULATE	44.9	44.8	44.8	44.8	44.8	17	1019.7249999999999
1013.864	0	506932	CN/Hi	10	2	0	2	0	7.0	0.0	7.0	0.0						1206.5001914000002	1213.4030302	1213.4030302	5.0	['5', 'return']	[3.1307044000000133, 3.6512753000001794]	6.89	5.51	3.0	controle	high_pain	44.9			sub-pilot017	250	17	43.9	44.9	COM11	COM7	COM3	2023-11-10_13h09.56.900	001-EEG_SVR_Officel	2022.2.5	144.1038469963728		5.51400000000001	1_sub-pilot017_SVR_EEG_block3-4.protocol.csv	step17	1988	197.207	STIMULATE	44.9	44.8	44.8	44.8	44.8	17	1019.7249999999999
1024.282	0	512140	wait	20	2	0	2	0	8.0	0.0	8.0	0.0						1230.0724648000005	1235.4897058	1235.4897058	2.0	['2', 'return']	[3.1168385000000853, 3.91746349999994]	5.41	5.02	0.0	10hz	low_pain	43.9			sub-pilot017	250	17	43.9	44.9	COM11	COM7	COM3	2023-11-10_13h09.56.900	001-EEG_SVR_Officel	2022.2.5	144.1038469963728		11.167999999999893	1_sub-pilot017_SVR_EEG_block3-4.protocol.csv	step19	2206	218.829	STIMULATE	43.9	43.8	43.8	43.7	43.9	19	1041.347
1029.686	0	514842	10hz	3	2	0	2	0	8.0	0.0	8.0	0.0						1230.0724648000005	1235.4897058	1235.4897058	2.0	['2', 'return']	[3.1168385000000853, 3.91746349999994]	5.41	5.02	0.0	10hz	low_pain	43.9			sub-pilot017	250	17	43.9	44.9	COM11	COM7	COM3	2023-11-10_13h09.56.900	001-EEG_SVR_Officel	2022.2.5	144.1038469963728		5.403999999999996	1_sub-pilot017_SVR_EEG_block3-4.protocol.csv	step19	2206	218.829	STIMULATE	43.9	43.8	43.8	43.7	43.9	19	1041.347
1035.454	0	517727	10/Lo	2	2	0	2	0	8.0	0.0	8.0	0.0						1230.0724648000005	1235.4897058	1235.4897058	2.0	['2', 'return']	[3.1168385000000853, 3.91746349999994]	5.41	5.02	0.0	10hz	low_pain	43.9			sub-pilot017	250	17	43.9	44.9	COM11	COM7	COM3	2023-11-10_13h09.56.900	001-EEG_SVR_Officel	2022.2.5	144.1038469963728		5.018000000000029	1_sub-pilot017_SVR_EEG_block3-4.protocol.csv	step19	2206	218.829	STIMULATE	43.9	43.8	43.8	43.7	43.9	19	1041.347
1046.636	0	523318	wait	20	2	0	2	0	9.0	0.0	9.0	0.0						1252.4292293	1259.0691468000002	1259.0691468000002	3.0	['3', 'return']	[3.456532799999877, 4.128693299999668]	6.63	5.02	1.0	40hz	high_pain	44.9			sub-pilot017	250	17	43.9	44.9	COM11	COM7	COM3	2023-11-10_13h09.56.900	001-EEG_SVR_Officel	2022.2.5	144.1038469963728		11.932000000000016	1_sub-pilot017_SVR_EEG_block3-4.protocol.csv	step21	2443	242.381	STIMULATE	44.9	44.8	44.8	44.8	45.0	21	1064.899
1053.266	0	526633	40hz	9	2	0	2	0	9.0	0.0	9.0	0.0						1252.4292293	1259.0691468000002	1259.0691468000002	3.0	['3', 'return']	[3.456532799999877, 4.128693299999668]	6.63	5.02	1.0	40hz	high_pain	44.9			sub-pilot017	250	17	43.9	44.9	COM11	COM7	COM3	2023-11-10_13h09.56.900	001-EEG_SVR_Officel	2022.2.5	144.1038469963728		6.630000000000109	1_sub-pilot017_SVR_EEG_block3-4.protocol.csv	step21	2443	242.381	STIMULATE	44.9	44.8	44.8	44.8	45.0	21	1064.899
1059.036	0	529518	40/Hi	7	2	0	2	0	9.0	0.0	9.0	0.0						1252.4292293	1259.0691468000002	1259.0691468000002	3.0	['3', 'return']	[3.456532799999877, 4.128693299999668]	6.63	5.02	1.0	40hz	high_pain	44.9			sub-pilot017	250	17	43.9	44.9	COM11	COM7	COM3	2023-11-10_13h09.56.900	001-EEG_SVR_Officel	2022.2.5	144.1038469963728		5.019999999999982	1_sub-pilot017_SVR_EEG_block3-4.protocol.csv	step21	2443	242.381	STIMULATE	44.9	44.8	44.8	44.8	45.0	21	1064.899
1070.418	0	535209	wait	20	2	0	2	0	10.0	0.0	10.0	0.0						1276.2096827000005	1284.0089297000002	1284.0089297000002	2.0	['2', 'return']	[2.9336999000001924, 3.565095299999939]	7.79	5.96	2.0	20hz	high_pain	44.9			sub-pilot017	250	17	43.9	44.9	COM11	COM7	COM3	2023-11-10_13h09.56.900	001-EEG_SVR_Officel	2022.2.5	144.1038469963728		12.131999999999834	1_sub-pilot017_SVR_EEG_block3-4.protocol.csv	step23	2704	268.289	STIMULATE	44.9	44.8	44.8	44.8	44.9	23	1090.807
1078.206	0	539103	20hz	6	2	0	2	0	10.0	0.0	10.0	0.0						1276.2096827000005	1284.0089297000002	1284.0089297000002	2.0	['2', 'return']	[2.9336999000001924, 3.565095299999939]	7.79	5.96	2.0	20hz	high_pain	44.9			sub-pilot017	250	17	43.9	44.9	COM11	COM7	COM3	2023-11-10_13h09.56.900	001-EEG_SVR_Officel	2022.2.5	144.1038469963728		7.788000000000011	1_sub-pilot017_SVR_EEG_block3-4.protocol.csv	step23	2704	268.289	STIMULATE	44.9	44.8	44.8	44.8	44.9	23	1090.807
1084.92	0	542460	20/Hi	4	2	0	2	0	10.0	0.0	10.0	0.0						1276.2096827000005	1284.0089297000002	1284.0089297000002	2.0	['2', 'return']	[2.9336999000001924, 3.565095299999939]	7.79	5.96	2.0	20hz	high_pain	44.9			sub-pilot017	250	17	43.9	44.9	COM11	COM7	COM3	2023-11-10_13h09.56.900	001-EEG_SVR_Officel	2022.2.5	144.1038469963728		5.964000000000169	1_sub-pilot017_SVR_EEG_block3-4.protocol.csv	step23	2704	268.289	STIMULATE	44.9	44.8	44.8	44.8	44.9	23	1090.807
1094.796	0	547398	wait	20	2	0	2	0	11.0	0.0	11.0	0.0						1300.5870564	1306.1095701000002	1306.1095701000002	4.0	['4', 'return']	[3.271556000000146, 3.8813798999999563]	5.51	5.19	3.0	20hz	low_pain	43.9			sub-pilot017	250	17	43.9	44.9	COM11	COM7	COM3	2023-11-10_13h09.56.900	001-EEG_SVR_Officel	2022.2.5	144.1038469963728		10.625999999999976	1_sub-pilot017_SVR_EEG_block3-4.protocol.csv	step25	2920	289.667	STIMULATE	43.8	43.8	43.8	43.8	43.8	25	1112.185
1100.306	0	550153	20hz	6	2	0	2	0	11.0	0.0	11.0	0.0						1300.5870564	1306.1095701000002	1306.1095701000002	4.0	['4', 'return']	[3.271556000000146, 3.8813798999999563]	5.51	5.19	3.0	20hz	low_pain	43.9			sub-pilot017	250	17	43.9	44.9	COM11	COM7	COM3	2023-11-10_13h09.56.900	001-EEG_SVR_Officel	2022.2.5	144.1038469963728		5.509999999999991	1_sub-pilot017_SVR_EEG_block3-4.protocol.csv	step25	2920	289.667	STIMULATE	43.8	43.8	43.8	43.8	43.8	25	1112.185
1106.25	0	553125	20/Lo	5	2	0	2	0	11.0	0.0	11.0	0.0						1300.5870564	1306.1095701000002	1306.1095701000002	4.0	['4', 'return']	[3.271556000000146, 3.8813798999999563]	5.51	5.19	3.0	20hz	low_pain	43.9			sub-pilot017	250	17	43.9	44.9	COM11	COM7	COM3	2023-11-10_13h09.56.900	001-EEG_SVR_Officel	2022.2.5	144.1038469963728		5.19399999999996	1_sub-pilot017_SVR_EEG_block3-4.protocol.csv	step25	2920	289.667	STIMULATE	43.8	43.8	43.8	43.8	43.8	25	1112.185
1117.216	0	558608	wait	20	2	0	2	0	12.0	0.0	12.0	0.0						1323.0079377	1329.2866190000002	1329.2866190000002	6.0	['6', 'return']	[2.832274700000198, 4.0005357]	6.27	5.27	0.0	controle	high_pain	44.9			sub-pilot017	250	17	43.9	44.9	COM11	COM7	COM3	2023-11-10_13h09.56.900	001-EEG_SVR_Officel	2022.2.5	144.1038469963728		11.715999999999894	1_sub-pilot017_SVR_EEG_block3-4.protocol.csv	step27	3155	312.97	STIMULATE	44.9	44.8	44.8	44.8	44.9	27	1135.488
1123.482	0	561741	CNhz	12	2	0	2	0	12.0	0.0	12.0	0.0						1323.0079377	1329.2866190000002	1329.2866190000002	6.0	['6', 'return']	[2.832274700000198, 4.0005357]	6.27	5.27	0.0	controle	high_pain	44.9			sub-pilot017	250	17	43.9	44.9	COM11	COM7	COM3	2023-11-10_13h09.56.900	001-EEG_SVR_Officel	2022.2.5	144.1038469963728		6.266000000000076	1_sub-pilot017_SVR_EEG_block3-4.protocol.csv	step27	3155	312.97	STIMULATE	44.9	44.8	44.8	44.8	44.9	27	1135.488
1129.502	0	564751	CN/Hi	10	2	0	2	0	12.0	0.0	12.0	0.0						1323.0079377	1329.2866190000002	1329.2866190000002	6.0	['6', 'return']	[2.832274700000198, 4.0005357]	6.27	5.27	0.0	controle	high_pain	44.9			sub-pilot017	250	17	43.9	44.9	COM11	COM7	COM3	2023-11-10_13h09.56.900	001-EEG_SVR_Officel	2022.2.5	144.1038469963728		5.269999999999982	1_sub-pilot017_SVR_EEG_block3-4.protocol.csv	step27	3155	312.97	STIMULATE	44.9	44.8	44.8	44.8	44.9	27	1135.488
1140.51	0	570255	wait	20	2	0	2	0	13.0	0.0	13.0	0.0						1346.3016912	1352.6080062	1352.6080062	3.0	['3', 'return']	[3.3266458999996757, 4.0938083000000915]	6.3	5.44	1.0	10hz	low_pain	43.9			sub-pilot017	250	17	43.9	44.9	COM11	COM7	COM3	2023-11-10_13h09.56.900	001-EEG_SVR_Officel	2022.2.5	144.1038469963728		11.758000000000038	1_sub-pilot017_SVR_EEG_block3-4.protocol.csv	step29	3392	336.415	STIMULATE	43.8	43.8	43.8	43.8	43.9	29	1158.933
1146.804	0	573402	10hz	3	2	0	2	0	13.0	0.0	13.0	0.0						1346.3016912	1352.6080062	1352.6080062	3.0	['3', 'return']	[3.3266458999996757, 4.0938083000000915]	6.3	5.44	1.0	10hz	low_pain	43.9			sub-pilot017	250	17	43.9	44.9	COM11	COM7	COM3	2023-11-10_13h09.56.900	001-EEG_SVR_Officel	2022.2.5	144.1038469963728		6.294000000000096	1_sub-pilot017_SVR_EEG_block3-4.protocol.csv	step29	3392	336.415	STIMULATE	43.8	43.8	43.8	43.8	43.9	29	1158.933
1152.998	0	576499	10/Lo	2	2	0	2	0	13.0	0.0	13.0	0.0						1346.3016912	1352.6080062	1352.6080062	3.0	['3', 'return']	[3.3266458999996757, 4.0938083000000915]	6.3	5.44	1.0	10hz	low_pain	43.9			sub-pilot017	250	17	43.9	44.9	COM11	COM7	COM3	2023-11-10_13h09.56.900	001-EEG_SVR_Officel	2022.2.5	144.1038469963728		5.44399999999996	1_sub-pilot017_SVR_EEG_block3-4.protocol.csv	step29	3392	336.415	STIMULATE	43.8	43.8	43.8	43.8	43.9	29	1158.933
1163.92	0	581960	wait	20	2	0	2	0	14.0	0.0	14.0	0.0						1369.7134764999998	1377.4446915	1377.4446915	4.5	['4', 'a', '5', 'return']	[3.1298789000002216, 3.4337116000001515, 3.786206199999924, 4.571155900000122]	7.72	6.33	2.0	controle	high_pain	44.9			sub-pilot017	250	17	43.9	44.9	COM11	COM7	COM3	2023-11-10_13h09.56.900	001-EEG_SVR_Officel	2022.2.5	144.1038469963728		11.672000000000025	1_sub-pilot017_SVR_EEG_block3-4.protocol.csv	step31	3650	362.057	STIMULATE	44.9	44.8	44.8	44.8	44.8	31	1184.575
1171.64	0	585820	CNhz	12	2	0	2	0	14.0	0.0	14.0	0.0						1369.7134764999998	1377.4446915	1377.4446915	4.5	['4', 'a', '5', 'return']	[3.1298789000002216, 3.4337116000001515, 3.786206199999924, 4.571155900000122]	7.72	6.33	2.0	controle	high_pain	44.9			sub-pilot017	250	17	43.9	44.9	COM11	COM7	COM3	2023-11-10_13h09.56.900	001-EEG_SVR_Officel	2022.2.5	144.1038469963728		7.720000000000027	1_sub-pilot017_SVR_EEG_block3-4.protocol.csv	step31	3650	362.057	STIMULATE	44.9	44.8	44.8	44.8	44.8	31	1184.575
1178.724	0	589362	CN/Hi	10	2	0	2	0	14.0	0.0	14.0	0.0						1369.7134764999998	1377.4446915	1377.4446915	4.5	['4', 'a', '5', 'return']	[3.1298789000002216, 3.4337116000001515, 3.786206199999924, 4.571155900000122]	7.72	6.33	2.0	controle	high_pain	44.9			sub-pilot017	250	17	43.9	44.9	COM11	COM7	COM3	2023-11-10_13h09.56.900	001-EEG_SVR_Officel	2022.2.5	144.1038469963728		6.333999999999833	1_sub-pilot017_SVR_EEG_block3-4.protocol.csv	step31	3650	362.057	STIMULATE	44.9	44.8	44.8	44.8	44.8	31	1184.575
1189.246	0	594623	wait	20	2	0	2	0	15.0	0.0	15.0	0.0						1395.0374823	1400.6971474	1400.6971474	5.0	['5', 'return']	[3.3499274000000696, 3.893956200000048]	5.65	5.13	3.0	40hz	low_pain	43.9			sub-pilot017	250	17	43.9	44.9	COM11	COM7	COM3	2023-11-10_13h09.56.900	001-EEG_SVR_Officel	2022.2.5	144.1038469963728		11.272000000000162	1_sub-pilot017_SVR_EEG_block3-4.protocol.csv	step33	3873	384.153	STIMULATE	43.8	43.8	43.8	43.8	43.8	33	1206.671
1194.892	0	597446	40hz	9	2	0	2	0	15.0	0.0	15.0	0.0						1395.0374823	1400.6971474	1400.6971474	5.0	['5', 'return']	[3.3499274000000696, 3.893956200000048]	5.65	5.13	3.0	40hz	low_pain	43.9			sub-pilot017	250	17	43.9	44.9	COM11	COM7	COM3	2023-11-10_13h09.56.900	001-EEG_SVR_Officel	2022.2.5	144.1038469963728		5.645999999999958	1_sub-pilot017_SVR_EEG_block3-4.protocol.csv	step33	3873	384.153	STIMULATE	43.8	43.8	43.8	43.8	43.8	33	1206.671
1200.774	0	600387	40/Lo	8	2	0	2	0	15.0	0.0	15.0	0.0						1395.0374823	1400.6971474	1400.6971474	5.0	['5', 'return']	[3.3499274000000696, 3.893956200000048]	5.65	5.13	3.0	40hz	low_pain	43.9			sub-pilot017	250	17	43.9	44.9	COM11	COM7	COM3	2023-11-10_13h09.56.900	001-EEG_SVR_Officel	2022.2.5	144.1038469963728		5.1319999999998345	1_sub-pilot017_SVR_EEG_block3-4.protocol.csv	step33	3873	384.153	STIMULATE	43.8	43.8	43.8	43.8	43.8	33	1206.671
1244.35	0	622175	wait	20	3	0	3	0	0.0	0.0	0.0	0.0				p	0.2925898000003144	1450.1412977000002	1457.162356	1457.162356	4.5	['4', 'a', '5', 'return']	[3.5553030000000945, 3.8682369000002836, 4.052353200000198, 4.668512400000054]	7.01	5.74	0.0	10hz	high_pain	44.9			sub-pilot017	250	17	43.9	44.9	COM11	COM7	COM3	2023-11-10_13h09.56.900	001-EEG_SVR_Officel	2022.2.5	144.1038469963728		44.32600000000002	1_sub-pilot017_SVR_EEG_block3-4.protocol.csv	step35	4446	441.238	STIMULATE	45.0	44.8	44.8	44.8	45.0	35	1263.722
1251.358	0	625679	10hz	3	3	0	3	0	0.0	0.0	0.0	0.0				p	0.2925898000003144	1450.1412977000002	1457.162356	1457.162356	4.5	['4', 'a', '5', 'return']	[3.5553030000000945, 3.8682369000002836, 4.052353200000198, 4.668512400000054]	7.01	5.74	0.0	10hz	high_pain	44.9			sub-pilot017	250	17	43.9	44.9	COM11	COM7	COM3	2023-11-10_13h09.56.900	001-EEG_SVR_Officel	2022.2.5	144.1038469963728		7.008000000000038	1_sub-pilot017_SVR_EEG_block3-4.protocol.csv	step35	4446	441.238	STIMULATE	45.0	44.8	44.8	44.8	45.0	35	1263.722
1257.85	0	628925	10/Hi	1	3	0	3	0	0.0	0.0	0.0	0.0				p	0.2925898000003144	1450.1412977000002	1457.162356	1457.162356	4.5	['4', 'a', '5', 'return']	[3.5553030000000945, 3.8682369000002836, 4.052353200000198, 4.668512400000054]	7.01	5.74	0.0	10hz	high_pain	44.9			sub-pilot017	250	17	43.9	44.9	COM11	COM7	COM3	2023-11-10_13h09.56.900	001-EEG_SVR_Officel	2022.2.5	144.1038469963728		5.741999999999962	1_sub-pilot017_SVR_EEG_block3-4.protocol.csv	step35	4446	441.238	STIMULATE	45.0	44.8	44.8	44.8	45.0	35	1263.722
1269.06	0	634530	wait	20	3	0	3	0	1.0	0.0	1.0	0.0						1474.8520089	1482.6931766	1482.6931766	1.0	['1', 'return']	[3.0891715000002478, 3.8003939000000173]	7.83	5.86	1.0	40hz	low_pain	43.9			sub-pilot017	250	17	43.9	44.9	COM11	COM7	COM3	2023-11-10_13h09.56.900	001-EEG_SVR_Officel	2022.2.5	144.1038469963728		11.960000000000036	1_sub-pilot017_SVR_EEG_block3-4.protocol.csv	step37	4705	466.933	STIMULATE	43.8	43.8	43.8	43.8	43.9	37	1289.417
1276.888	0	638444	40hz	9	3	0	3	0	1.0	0.0	1.0	0.0						1474.8520089	1482.6931766	1482.6931766	1.0	['1', 'return']	[3.0891715000002478, 3.8003939000000173]	7.83	5.86	1.0	40hz	low_pain	43.9			sub-pilot017	250	17	43.9	44.9	COM11	COM7	COM3	2023-11-10_13h09.56.900	001-EEG_SVR_Officel	2022.2.5	144.1038469963728		7.8279999999999745	1_sub-pilot017_SVR_EEG_block3-4.protocol.csv	step37	4705	466.933	STIMULATE	43.8	43.8	43.8	43.8	43.9	37	1289.417
1283.498	0	641749	40/Lo	8	3	0	3	0	1.0	0.0	1.0	0.0						1474.8520089	1482.6931766	1482.6931766	1.0	['1', 'return']	[3.0891715000002478, 3.8003939000000173]	7.83	5.86	1.0	40hz	low_pain	43.9			sub-pilot017	250	17	43.9	44.9	COM11	COM7	COM3	2023-11-10_13h09.56.900	001-EEG_SVR_Officel	2022.2.5	144.1038469963728		5.860000000000127	1_sub-pilot017_SVR_EEG_block3-4.protocol.csv	step37	4705	466.933	STIMULATE	43.8	43.8	43.8	43.8	43.9	37	1289.417
1293.714	0	646857	wait	20	3	0	3	0	2.0	0.0	2.0	0.0						1499.50733	1507.4255183000002	1507.4255183000002	2.5	['2', 'a', '5', 'return']	[3.1721741000001202, 3.6923673000001145, 3.8598588999998356, 4.66809719999992]	7.91	5.22	2.0	40hz	low_pain	43.9			sub-pilot017	250	17	43.9	44.9	COM11	COM7	COM3	2023-11-10_13h09.56.900	001-EEG_SVR_Officel	2022.2.5	144.1038469963728		10.965999999999894	1_sub-pilot017_SVR_EEG_block3-4.protocol.csv	step39	4948	491.058	STIMULATE	43.8	43.8	43.8	43.8	43.8	39	1313.542
1301.62	0	650810	40hz	9	3	0	3	0	2.0	0.0	2.0	0.0						1499.50733	1507.4255183000002	1507.4255183000002	2.5	['2', 'a', '5', 'return']	[3.1721741000001202, 3.6923673000001145, 3.8598588999998356, 4.66809719999992]	7.91	5.22	2.0	40hz	low_pain	43.9			sub-pilot017	250	17	43.9	44.9	COM11	COM7	COM3	2023-11-10_13h09.56.900	001-EEG_SVR_Officel	2022.2.5	144.1038469963728		7.905999999999949	1_sub-pilot017_SVR_EEG_block3-4.protocol.csv	step39	4948	491.058	STIMULATE	43.8	43.8	43.8	43.8	43.8	39	1313.542
1307.592	0	653796	40/Lo	8	3	0	3	0	2.0	0.0	2.0	0.0						1499.50733	1507.4255183000002	1507.4255183000002	2.5	['2', 'a', '5', 'return']	[3.1721741000001202, 3.6923673000001145, 3.8598588999998356, 4.66809719999992]	7.91	5.22	2.0	40hz	low_pain	43.9			sub-pilot017	250	17	43.9	44.9	COM11	COM7	COM3	2023-11-10_13h09.56.900	001-EEG_SVR_Officel	2022.2.5	144.1038469963728		5.222000000000207	1_sub-pilot017_SVR_EEG_block3-4.protocol.csv	step39	4948	491.058	STIMULATE	43.8	43.8	43.8	43.8	43.8	39	1313.542
1319.322	0	659661	wait	20	3	0	3	0	3.0	0.0	3.0	0.0						1525.1151382	1531.9214423	1531.9214423	5.5	['5', 'a', '5', 'return']	[2.691394599999967, 3.0428475999997318, 3.195209099999829, 3.9568265999996584]	6.8	5.66	3.0	20hz	high_pain	44.9			sub-pilot017	250	17	43.9	44.9	COM11	COM7	COM3	2023-11-10_13h09.56.900	001-EEG_SVR_Officel	2022.2.5	144.1038469963728		12.47999999999979	1_sub-pilot017_SVR_EEG_block3-4.protocol.csv	step41	5199	515.954	STIMULATE	44.9	44.8	44.8	44.8	44.8	41	1338.4379999999999
1326.116	0	663058	20hz	6	3	0	3	0	3.0	0.0	3.0	0.0						1525.1151382	1531.9214423	1531.9214423	5.5	['5', 'a', '5', 'return']	[2.691394599999967, 3.0428475999997318, 3.195209099999829, 3.9568265999996584]	6.8	5.66	3.0	20hz	high_pain	44.9			sub-pilot017	250	17	43.9	44.9	COM11	COM7	COM3	2023-11-10_13h09.56.900	001-EEG_SVR_Officel	2022.2.5	144.1038469963728		6.794000000000096	1_sub-pilot017_SVR_EEG_block3-4.protocol.csv	step41	5199	515.954	STIMULATE	44.9	44.8	44.8	44.8	44.8	41	1338.4379999999999
1332.524	0	666262	20/Hi	4	3	0	3	0	3.0	0.0	3.0	0.0						1525.1151382	1531.9214423	1531.9214423	5.5	['5', 'a', '5', 'return']	[2.691394599999967, 3.0428475999997318, 3.195209099999829, 3.9568265999996584]	6.8	5.66	3.0	20hz	high_pain	44.9			sub-pilot017	250	17	43.9	44.9	COM11	COM7	COM3	2023-11-10_13h09.56.900	001-EEG_SVR_Officel	2022.2.5	144.1038469963728		5.657999999999902	1_sub-pilot017_SVR_EEG_block3-4.protocol.csv	step41	5199	515.954	STIMULATE	44.9	44.8	44.8	44.8	44.8	41	1338.4379999999999
1343.102	0	671551	wait	20	3	0	3	0	4.0	0.0	4.0	0.0						1548.8959391	1556.3966382	1556.3966382	5.0	['5', 'return']	[2.905910099999801, 3.472904799999924]	7.49	5.36	0.0	controle	low_pain	43.9			sub-pilot017	250	17	43.9	44.9	COM11	COM7	COM3	2023-11-10_13h09.56.900	001-EEG_SVR_Officel	2022.2.5	144.1038469963728		11.328000000000202	1_sub-pilot017_SVR_EEG_block3-4.protocol.csv	step43	5442	540.098	STIMULATE	43.9	43.8	43.8	43.8	43.9	43	1362.5819999999999
1350.592	0	675296	CNhz	12	3	0	3	0	4.0	0.0	4.0	0.0						1548.8959391	1556.3966382	1556.3966382	5.0	['5', 'return']	[2.905910099999801, 3.472904799999924]	7.49	5.36	0.0	controle	low_pain	43.9			sub-pilot017	250	17	43.9	44.9	COM11	COM7	COM3	2023-11-10_13h09.56.900	001-EEG_SVR_Officel	2022.2.5	144.1038469963728		7.490000000000009	1_sub-pilot017_SVR_EEG_block3-4.protocol.csv	step43	5442	540.098	STIMULATE	43.9	43.8	43.8	43.8	43.9	43	1362.5819999999999
1356.702	0	678351	CN/Lo	11	3	0	3	0	4.0	0.0	4.0	0.0						1548.8959391	1556.3966382	1556.3966382	5.0	['5', 'return']	[2.905910099999801, 3.472904799999924]	7.49	5.36	0.0	controle	low_pain	43.9			sub-pilot017	250	17	43.9	44.9	COM11	COM7	COM3	2023-11-10_13h09.56.900	001-EEG_SVR_Officel	2022.2.5	144.1038469963728		5.3599999999999	1_sub-pilot017_SVR_EEG_block3-4.protocol.csv	step43	5442	540.098	STIMULATE	43.9	43.8	43.8	43.8	43.9	43	1362.5819999999999
1367.09	0	683545	wait	20	3	0	3	0	5.0	0.0	5.0	0.0						1572.8838564	1579.5799210000002	1579.5799210000002	5.5	['5', 'a', '5', 'return']	[3.37791419999985, 3.6096772000000783, 3.7376689000002443, 4.515078200000062]	6.69	5.77	1.0	controle	high_pain	44.9			sub-pilot017	250	17	43.9	44.9	COM11	COM7	COM3	2023-11-10_13h09.56.900	001-EEG_SVR_Officel	2022.2.5	144.1038469963728		11.13799999999992	1_sub-pilot017_SVR_EEG_block3-4.protocol.csv	step45	5681	563.749	STIMULATE	44.9	44.8	44.8	44.8	44.9	45	1386.233
1373.774	0	686887	CNhz	12	3	0	3	0	5.0	0.0	5.0	0.0						1572.8838564	1579.5799210000002	1579.5799210000002	5.5	['5', 'a', '5', 'return']	[3.37791419999985, 3.6096772000000783, 3.7376689000002443, 4.515078200000062]	6.69	5.77	1.0	controle	high_pain	44.9			sub-pilot017	250	17	43.9	44.9	COM11	COM7	COM3	2023-11-10_13h09.56.900	001-EEG_SVR_Officel	2022.2.5	144.1038469963728		6.683999999999969	1_sub-pilot017_SVR_EEG_block3-4.protocol.csv	step45	5681	563.749	STIMULATE	44.9	44.8	44.8	44.8	44.9	45	1386.233
1380.294	0	690147	CN/Hi	10	3	0	3	0	5.0	0.0	5.0	0.0						1572.8838564	1579.5799210000002	1579.5799210000002	5.5	['5', 'a', '5', 'return']	[3.37791419999985, 3.6096772000000783, 3.7376689000002443, 4.515078200000062]	6.69	5.77	1.0	controle	high_pain	44.9			sub-pilot017	250	17	43.9	44.9	COM11	COM7	COM3	2023-11-10_13h09.56.900	001-EEG_SVR_Officel	2022.2.5	144.1038469963728		5.770000000000209	1_sub-pilot017_SVR_EEG_block3-4.protocol.csv	step45	5681	563.749	STIMULATE	44.9	44.8	44.8	44.8	44.9	45	1386.233
1391.322	0	695661	wait	20	3	0	3	0	6.0	0.0	6.0	0.0						1597.1167759000002	1603.7636106000002	1603.7636106000002	5.0	['5', 'return']	[2.7065050000001065, 3.322995600000013]	6.64	6.21	2.0	20hz	low_pain	43.9			sub-pilot017	250	17	43.9	44.9	COM11	COM7	COM3	2023-11-10_13h09.56.900	001-EEG_SVR_Officel	2022.2.5	144.1038469963728		11.777999999999793	1_sub-pilot017_SVR_EEG_block3-4.protocol.csv	step47	5929	588.382	STIMULATE	43.8	43.8	43.8	43.8	43.8	47	1410.866
1397.958	0	698979	20hz	6	3	0	3	0	6.0	0.0	6.0	0.0						1597.1167759000002	1603.7636106000002	1603.7636106000002	5.0	['5', 'return']	[2.7065050000001065, 3.322995600000013]	6.64	6.21	2.0	20hz	low_pain	43.9			sub-pilot017	250	17	43.9	44.9	COM11	COM7	COM3	2023-11-10_13h09.56.900	001-EEG_SVR_Officel	2022.2.5	144.1038469963728		6.636000000000195	1_sub-pilot017_SVR_EEG_block3-4.protocol.csv	step47	5929	588.382	STIMULATE	43.8	43.8	43.8	43.8	43.8	47	1410.866
1404.922	0	702461	20/Lo	5	3	0	3	0	6.0	0.0	6.0	0.0						1597.1167759000002	1603.7636106000002	1603.7636106000002	5.0	['5', 'return']	[2.7065050000001065, 3.322995600000013]	6.64	6.21	2.0	20hz	low_pain	43.9			sub-pilot017	250	17	43.9	44.9	COM11	COM7	COM3	2023-11-10_13h09.56.900	001-EEG_SVR_Officel	2022.2.5	144.1038469963728		6.213999999999942	1_sub-pilot017_SVR_EEG_block3-4.protocol.csv	step47	5929	588.382	STIMULATE	43.8	43.8	43.8	43.8	43.8	47	1410.866
1414.304	0	707152	wait	20	3	0	3	0	7.0	0.0	7.0	0.0						1620.0982291000005	1627.8774237	1627.8774237	7.0	['7', 'return']	[3.008705700000064, 3.7283470000002126]	7.77	5.03	3.0	40hz	high_pain	44.9			sub-pilot017	250	17	43.9	44.9	COM11	COM7	COM3	2023-11-10_13h09.56.900	001-EEG_SVR_Officel	2022.2.5	144.1038469963728		10.132000000000062	1_sub-pilot017_SVR_EEG_block3-4.protocol.csv	step49	6160	611.284	STIMULATE	44.8	44.8	44.8	44.8	44.8	49	1433.768
1422.072	0	711036	40hz	9	3	0	3	0	7.0	0.0	7.0	0.0						1620.0982291000005	1627.8774237	1627.8774237	7.0	['7', 'return']	[3.008705700000064, 3.7283470000002126]	7.77	5.03	3.0	40hz	high_pain	44.9			sub-pilot017	250	17	43.9	44.9	COM11	COM7	COM3	2023-11-10_13h09.56.900	001-EEG_SVR_Officel	2022.2.5	144.1038469963728		7.767999999999802	1_sub-pilot017_SVR_EEG_block3-4.protocol.csv	step49	6160	611.284	STIMULATE	44.8	44.8	44.8	44.8	44.8	49	1433.768
1427.854	0	713927	40/Hi	7	3	0	3	0	7.0	0.0	7.0	0.0						1620.0982291000005	1627.8774237	1627.8774237	7.0	['7', 'return']	[3.008705700000064, 3.7283470000002126]	7.77	5.03	3.0	40hz	high_pain	44.9			sub-pilot017	250	17	43.9	44.9	COM11	COM7	COM3	2023-11-10_13h09.56.900	001-EEG_SVR_Officel	2022.2.5	144.1038469963728		5.032000000000153	1_sub-pilot017_SVR_EEG_block3-4.protocol.csv	step49	6160	611.284	STIMULATE	44.8	44.8	44.8	44.8	44.8	49	1433.768
1438.828	0	719414	wait	20	3	0	3	0	8.0	0.0	8.0	0.0						1644.6226267	1651.3386079	1651.3386079	4.5	['4', 'a', '5', 'return']	[3.555601300000035, 4.107823700000154, 4.2597977000000355, 5.180728299999828]	6.71	6.03	0.0	40hz	high_pain	44.9			sub-pilot017	250	17	43.9	44.9	COM11	COM7	COM3	2023-11-10_13h09.56.900	001-EEG_SVR_Officel	2022.2.5	144.1038469963728		11.723999999999933	1_sub-pilot017_SVR_EEG_block3-4.protocol.csv	step51	6408	635.822	STIMULATE	45.0	44.8	44.8	44.8	44.9	51	1458.306
1445.532	0	722766	40hz	9	3	0	3	0	8.0	0.0	8.0	0.0						1644.6226267	1651.3386079	1651.3386079	4.5	['4', 'a', '5', 'return']	[3.555601300000035, 4.107823700000154, 4.2597977000000355, 5.180728299999828]	6.71	6.03	0.0	40hz	high_pain	44.9			sub-pilot017	250	17	43.9	44.9	COM11	COM7	COM3	2023-11-10_13h09.56.900	001-EEG_SVR_Officel	2022.2.5	144.1038469963728		6.703999999999951	1_sub-pilot017_SVR_EEG_block3-4.protocol.csv	step51	6408	635.822	STIMULATE	45.0	44.8	44.8	44.8	44.9	51	1458.306
1452.316	0	726158	40/Hi	7	3	0	3	0	8.0	0.0	8.0	0.0						1644.6226267	1651.3386079	1651.3386079	4.5	['4', 'a', '5', 'return']	[3.555601300000035, 4.107823700000154, 4.2597977000000355, 5.180728299999828]	6.71	6.03	0.0	40hz	high_pain	44.9			sub-pilot017	250	17	43.9	44.9	COM11	COM7	COM3	2023-11-10_13h09.56.900	001-EEG_SVR_Officel	2022.2.5	144.1038469963728		6.0340000000001055	1_sub-pilot017_SVR_EEG_block3-4.protocol.csv	step51	6408	635.822	STIMULATE	45.0	44.8	44.8	44.8	44.9	51	1458.306
1463.734	0	731867	wait	20	3	0	3	0	9.0	0.0	9.0	0.0						1669.5291159	1676.4883756000002	1676.4883756000002	1.0	['1', 'return']	[3.3266579000001, 4.1508278999999675]	6.95	5.54	1.0	controle	low_pain	43.9			sub-pilot017	250	17	43.9	44.9	COM11	COM7	COM3	2023-11-10_13h09.56.900	001-EEG_SVR_Officel	2022.2.5	144.1038469963728		12.167999999999893	1_sub-pilot017_SVR_EEG_block3-4.protocol.csv	step53	6655	660.401	STIMULATE	43.9	43.8	43.8	43.8	43.8	53	1482.8849999999998
1470.682	0	735341	CNhz	12	3	0	3	0	9.0	0.0	9.0	0.0						1669.5291159	1676.4883756000002	1676.4883756000002	1.0	['1', 'return']	[3.3266579000001, 4.1508278999999675]	6.95	5.54	1.0	controle	low_pain	43.9			sub-pilot017	250	17	43.9	44.9	COM11	COM7	COM3	2023-11-10_13h09.56.900	001-EEG_SVR_Officel	2022.2.5	144.1038469963728		6.948000000000093	1_sub-pilot017_SVR_EEG_block3-4.protocol.csv	step53	6655	660.401	STIMULATE	43.9	43.8	43.8	43.8	43.8	53	1482.8849999999998
1476.972	0	738486	CN/Lo	11	3	0	3	0	9.0	0.0	9.0	0.0						1669.5291159	1676.4883756000002	1676.4883756000002	1.0	['1', 'return']	[3.3266579000001, 4.1508278999999675]	6.95	5.54	1.0	controle	low_pain	43.9			sub-pilot017	250	17	43.9	44.9	COM11	COM7	COM3	2023-11-10_13h09.56.900	001-EEG_SVR_Officel	2022.2.5	144.1038469963728		5.539999999999964	1_sub-pilot017_SVR_EEG_block3-4.protocol.csv	step53	6655	660.401	STIMULATE	43.9	43.8	43.8	43.8	43.8	53	1482.8849999999998
1487.862	0	743931	wait	20	3	0	3	0	10.0	0.0	10.0	0.0						1693.6569707	1700.407116	1700.407116	4.5	['4', 'a', '5', 'return']	[3.246909599999981, 3.6076129999996738, 4.175386099999741, 5.0564040999997815]	6.74	5.08	2.0	10hz	high_pain	44.9			sub-pilot017	250	17	43.9	44.9	COM11	COM7	COM3	2023-11-10_13h09.56.900	001-EEG_SVR_Officel	2022.2.5	144.1038469963728		11.6400000000001	1_sub-pilot017_SVR_EEG_block3-4.protocol.csv	step55	6893	683.944	STIMULATE	44.9	44.8	44.8	44.8	44.9	55	1506.4279999999999
1494.6	0	747300	10hz	3	3	0	3	0	10.0	0.0	10.0	0.0						1693.6569707	1700.407116	1700.407116	4.5	['4', 'a', '5', 'return']	[3.246909599999981, 3.6076129999996738, 4.175386099999741, 5.0564040999997815]	6.74	5.08	2.0	10hz	high_pain	44.9			sub-pilot017	250	17	43.9	44.9	COM11	COM7	COM3	2023-11-10_13h09.56.900	001-EEG_SVR_Officel	2022.2.5	144.1038469963728		6.737999999999829	1_sub-pilot017_SVR_EEG_block3-4.protocol.csv	step55	6893	683.944	STIMULATE	44.9	44.8	44.8	44.8	44.9	55	1506.4279999999999
1500.432	0	750216	10/Hi	1	3	0	3	0	10.0	0.0	10.0	0.0						1693.6569707	1700.407116	1700.407116	4.5	['4', 'a', '5', 'return']	[3.246909599999981, 3.6076129999996738, 4.175386099999741, 5.0564040999997815]	6.74	5.08	2.0	10hz	high_pain	44.9			sub-pilot017	250	17	43.9	44.9	COM11	COM7	COM3	2023-11-10_13h09.56.900	001-EEG_SVR_Officel	2022.2.5	144.1038469963728		5.082000000000107	1_sub-pilot017_SVR_EEG_block3-4.protocol.csv	step55	6893	683.944	STIMULATE	44.9	44.8	44.8	44.8	44.9	55	1506.4279999999999
1512.69	0	756345	wait	20	3	0	3	0	11.0	0.0	11.0	0.0						1718.4857772000005	1724.9989346	1724.9989346	4.0	['4', 'return']	[2.7985524999999143, 3.4636279000001196]	6.51	5.39	3.0	controle	low_pain	43.9			sub-pilot017	250	17	43.9	44.9	COM11	COM7	COM3	2023-11-10_13h09.56.900	001-EEG_SVR_Officel	2022.2.5	144.1038469963728		13.008000000000038	1_sub-pilot017_SVR_EEG_block3-4.protocol.csv	step57	7143	708.767	STIMULATE	43.8	43.8	43.8	43.8	43.8	57	1531.251
1519.2	0	759600	CNhz	12	3	0	3	0	11.0	0.0	11.0	0.0						1718.4857772000005	1724.9989346	1724.9989346	4.0	['4', 'return']	[2.7985524999999143, 3.4636279000001196]	6.51	5.39	3.0	controle	low_pain	43.9			sub-pilot017	250	17	43.9	44.9	COM11	COM7	COM3	2023-11-10_13h09.56.900	001-EEG_SVR_Officel	2022.2.5	144.1038469963728		6.509999999999991	1_sub-pilot017_SVR_EEG_block3-4.protocol.csv	step57	7143	708.767	STIMULATE	43.8	43.8	43.8	43.8	43.8	57	1531.251
1525.338	0	762669	CN/Lo	11	3	0	3	0	11.0	0.0	11.0	0.0						1718.4857772000005	1724.9989346	1724.9989346	4.0	['4', 'return']	[2.7985524999999143, 3.4636279000001196]	6.51	5.39	3.0	controle	low_pain	43.9			sub-pilot017	250	17	43.9	44.9	COM11	COM7	COM3	2023-11-10_13h09.56.900	001-EEG_SVR_Officel	2022.2.5	144.1038469963728		5.38799999999992	1_sub-pilot017_SVR_EEG_block3-4.protocol.csv	step57	7143	708.767	STIMULATE	43.8	43.8	43.8	43.8	43.8	57	1531.251
1535.694	0	767847	wait	20	3	0	3	0	12.0	0.0	12.0	0.0						1741.4884189000002	1746.9474178000005	1746.9474178000005	5.5	['5', 'a', '5', 'return']	[2.6667568000002575, 2.97863499999994, 3.1070592000000943, 3.8343675000000985]	5.45	5.5	0.0	40hz	low_pain	43.9			sub-pilot017	250	17	43.9	44.9	COM11	COM7	COM3	2023-11-10_13h09.56.900	001-EEG_SVR_Officel	2022.2.5	144.1038469963728		11.105999999999995	1_sub-pilot017_SVR_EEG_block3-4.protocol.csv	step59	7366	730.881	STIMULATE	43.9	43.8	43.8	43.8	43.8	59	1553.3649999999998
1541.14	0	770570	40hz	9	3	0	3	0	12.0	0.0	12.0	0.0						1741.4884189000002	1746.9474178000005	1746.9474178000005	5.5	['5', 'a', '5', 'return']	[2.6667568000002575, 2.97863499999994, 3.1070592000000943, 3.8343675000000985]	5.45	5.5	0.0	40hz	low_pain	43.9			sub-pilot017	250	17	43.9	44.9	COM11	COM7	COM3	2023-11-10_13h09.56.900	001-EEG_SVR_Officel	2022.2.5	144.1038469963728		5.44600000000014	1_sub-pilot017_SVR_EEG_block3-4.protocol.csv	step59	7366	730.881	STIMULATE	43.9	43.8	43.8	43.8	43.8	59	1553.3649999999998
1547.39	0	773695	40/Lo	8	3	0	3	0	12.0	0.0	12.0	0.0						1741.4884189000002	1746.9474178000005	1746.9474178000005	5.5	['5', 'a', '5', 'return']	[2.6667568000002575, 2.97863499999994, 3.1070592000000943, 3.8343675000000985]	5.45	5.5	0.0	40hz	low_pain	43.9			sub-pilot017	250	17	43.9	44.9	COM11	COM7	COM3	2023-11-10_13h09.56.900	001-EEG_SVR_Officel	2022.2.5	144.1038469963728		5.5	1_sub-pilot017_SVR_EEG_block3-4.protocol.csv	step59	7366	730.881	STIMULATE	43.9	43.8	43.8	43.8	43.8	59	1553.3649999999998
1558.002	0	779001	wait	20	3	0	3	0	13.0	0.0	13.0	0.0						1763.7966356	1771.7490871000002	1771.7490871000002	4.0	['4', 'return']	[3.401657399999749, 4.049754900000153]	7.94	6.41	1.0	20hz	low_pain	43.9			sub-pilot017	250	17	43.9	44.9	COM11	COM7	COM3	2023-11-10_13h09.56.900	001-EEG_SVR_Officel	2022.2.5	144.1038469963728		11.361999999999853	1_sub-pilot017_SVR_EEG_block3-4.protocol.csv	step61	7624	756.479	STIMULATE	43.9	43.8	43.8	43.8	43.8	61	1578.963
1565.942	0	782971	20hz	6	3	0	3	0	13.0	0.0	13.0	0.0						1763.7966356	1771.7490871000002	1771.7490871000002	4.0	['4', 'return']	[3.401657399999749, 4.049754900000153]	7.94	6.41	1.0	20hz	low_pain	43.9			sub-pilot017	250	17	43.9	44.9	COM11	COM7	COM3	2023-11-10_13h09.56.900	001-EEG_SVR_Officel	2022.2.5	144.1038469963728		7.940000000000055	1_sub-pilot017_SVR_EEG_block3-4.protocol.csv	step61	7624	756.479	STIMULATE	43.9	43.8	43.8	43.8	43.8	61	1578.963
1573.1	0	786550	20/Lo	5	3	0	3	0	13.0	0.0	13.0	0.0						1763.7966356	1771.7490871000002	1771.7490871000002	4.0	['4', 'return']	[3.401657399999749, 4.049754900000153]	7.94	6.41	1.0	20hz	low_pain	43.9			sub-pilot017	250	17	43.9	44.9	COM11	COM7	COM3	2023-11-10_13h09.56.900	001-EEG_SVR_Officel	2022.2.5	144.1038469963728		6.407999999999902	1_sub-pilot017_SVR_EEG_block3-4.protocol.csv	step61	7624	756.479	STIMULATE	43.9	43.8	43.8	43.8	43.8	61	1578.963
1583.02	0	791510	wait	20	3	0	3	0	14.0	0.0	14.0	0.0						1788.8144211	1796.3847004000002	1796.3847004000002	6.0	['6', 'return']	[3.046465299999909, 3.893916199999694]	7.56	6.02	2.0	40hz	high_pain	44.9			sub-pilot017	250	17	43.9	44.9	COM11	COM7	COM3	2023-11-10_13h09.56.900	001-EEG_SVR_Officel	2022.2.5	144.1038469963728		10.670000000000073	1_sub-pilot017_SVR_EEG_block3-4.protocol.csv	step63	7868	780.841	STIMULATE	44.9	44.8	44.8	44.8	44.8	63	1603.3249999999998
1590.576	0	795288	40hz	9	3	0	3	0	14.0	0.0	14.0	0.0						1788.8144211	1796.3847004000002	1796.3847004000002	6.0	['6', 'return']	[3.046465299999909, 3.893916199999694]	7.56	6.02	2.0	40hz	high_pain	44.9			sub-pilot017	250	17	43.9	44.9	COM11	COM7	COM3	2023-11-10_13h09.56.900	001-EEG_SVR_Officel	2022.2.5	144.1038469963728		7.55600000000004	1_sub-pilot017_SVR_EEG_block3-4.protocol.csv	step63	7868	780.841	STIMULATE	44.9	44.8	44.8	44.8	44.8	63	1603.3249999999998
1597.346	0	798673	40/Hi	7	3	0	3	0	14.0	0.0	14.0	0.0						1788.8144211	1796.3847004000002	1796.3847004000002	6.0	['6', 'return']	[3.046465299999909, 3.893916199999694]	7.56	6.02	2.0	40hz	high_pain	44.9			sub-pilot017	250	17	43.9	44.9	COM11	COM7	COM3	2023-11-10_13h09.56.900	001-EEG_SVR_Officel	2022.2.5	144.1038469963728		6.019999999999982	1_sub-pilot017_SVR_EEG_block3-4.protocol.csv	step63	7868	780.841	STIMULATE	44.9	44.8	44.8	44.8	44.8	63	1603.3249999999998
1607.5	0	803750	wait	20	3	0	3	0	15.0	0.0	15.0	0.0						1813.2961743	1821.2839043	1821.2839043	6.5	['6', 'a', '5', 'return']	[3.3067517999998017, 3.6428593000000546, 3.7788668999996844, 4.234102500000063]	7.98	6.23	3.0	10hz	high_pain	44.9			sub-pilot017	250	17	43.9	44.9	COM11	COM7	COM3	2023-11-10_13h09.56.900	001-EEG_SVR_Officel	2022.2.5	144.1038469963728		10.903999999999996	1_sub-pilot017_SVR_EEG_block3-4.protocol.csv	step65	8113	805.915	STIMULATE	44.8	44.8	44.8	44.8	44.8	65	1628.399
1615.474	0	807737	10hz	3	3	0	3	0	15.0	0.0	15.0	0.0						1813.2961743	1821.2839043	1821.2839043	6.5	['6', 'a', '5', 'return']	[3.3067517999998017, 3.6428593000000546, 3.7788668999996844, 4.234102500000063]	7.98	6.23	3.0	10hz	high_pain	44.9			sub-pilot017	250	17	43.9	44.9	COM11	COM7	COM3	2023-11-10_13h09.56.900	001-EEG_SVR_Officel	2022.2.5	144.1038469963728		7.973999999999933	1_sub-pilot017_SVR_EEG_block3-4.protocol.csv	step65	8113	805.915	STIMULATE	44.8	44.8	44.8	44.8	44.8	65	1628.399
1622.456	0	811228	10/Hi	1	3	0	3	0	15.0	0.0	15.0	0.0						1813.2961743	1821.2839043	1821.2839043	6.5	['6', 'a', '5', 'return']	[3.3067517999998017, 3.6428593000000546, 3.7788668999996844, 4.234102500000063]	7.98	6.23	3.0	10hz	high_pain	44.9			sub-pilot017	250	17	43.9	44.9	COM11	COM7	COM3	2023-11-10_13h09.56.900	001-EEG_SVR_Officel	2022.2.5	144.1038469963728		6.231999999999971	1_sub-pilot017_SVR_EEG_block3-4.protocol.csv	step65	8113	805.915	STIMULATE	44.8	44.8	44.8	44.8	44.8	65	1628.399
1664.986	0	832493	wait	20	4	0	4	0	0.0	0.0	0.0	0.0				p	0.2795911000002888	1870.7812354	1877.150761	1877.150761	5.0	['5', 'return']	[2.5990028000001075, 3.287927800000034]	6.36	6.02	0.0	10hz	low_pain	43.9			sub-pilot017	250	17	43.9	44.9	COM11	COM7	COM3	2023-11-10_13h09.56.900	001-EEG_SVR_Officel	2022.2.5	144.1038469963728		43.2800000000002	2_sub-pilot017_SVR_EEG_block5-6.protocol.csv	step3	385	38.303	STIMULATE	44.0	43.8	43.7	43.8	43.9	3	1683.906
1671.344	0	835672	10hz	3	4	0	4	0	0.0	0.0	0.0	0.0				p	0.2795911000002888	1870.7812354	1877.150761	1877.150761	5.0	['5', 'return']	[2.5990028000001075, 3.287927800000034]	6.36	6.02	0.0	10hz	low_pain	43.9			sub-pilot017	250	17	43.9	44.9	COM11	COM7	COM3	2023-11-10_13h09.56.900	001-EEG_SVR_Officel	2022.2.5	144.1038469963728		6.357999999999947	2_sub-pilot017_SVR_EEG_block5-6.protocol.csv	step3	385	38.303	STIMULATE	44.0	43.8	43.7	43.8	43.9	3	1683.906
1678.114	0	839057	10/Lo	2	4	0	4	0	0.0	0.0	0.0	0.0				p	0.2795911000002888	1870.7812354	1877.150761	1877.150761	5.0	['5', 'return']	[2.5990028000001075, 3.287927800000034]	6.36	6.02	0.0	10hz	low_pain	43.9			sub-pilot017	250	17	43.9	44.9	COM11	COM7	COM3	2023-11-10_13h09.56.900	001-EEG_SVR_Officel	2022.2.5	144.1038469963728		6.019999999999982	2_sub-pilot017_SVR_EEG_block5-6.protocol.csv	step3	385	38.303	STIMULATE	44.0	43.8	43.7	43.8	43.9	3	1683.906
1687.662	0	843831	wait	20	4	0	4	0	1.0	0.0	1.0	0.0						1893.4581918	1901.3689531	1901.3689531	3.0	['3', 'return']	[2.7652705000000424, 3.4691938999999365]	7.9	5.93	1.0	40hz	low_pain	43.9			sub-pilot017	250	17	43.9	44.9	COM11	COM7	COM3	2023-11-10_13h09.56.900	001-EEG_SVR_Officel	2022.2.5	144.1038469963728		10.298000000000002	2_sub-pilot017_SVR_EEG_block5-6.protocol.csv	step5	628	62.404	STIMULATE	43.9	43.8	43.8	43.8	43.8	5	1708.007
1695.562	0	847781	40hz	9	4	0	4	0	1.0	0.0	1.0	0.0						1893.4581918	1901.3689531	1901.3689531	3.0	['3', 'return']	[2.7652705000000424, 3.4691938999999365]	7.9	5.93	1.0	40hz	low_pain	43.9			sub-pilot017	250	17	43.9	44.9	COM11	COM7	COM3	2023-11-10_13h09.56.900	001-EEG_SVR_Officel	2022.2.5	144.1038469963728		7.899999999999864	2_sub-pilot017_SVR_EEG_block5-6.protocol.csv	step5	628	62.404	STIMULATE	43.9	43.8	43.8	43.8	43.8	5	1708.007
1702.242	0	851121	40/Lo	8	4	0	4	0	1.0	0.0	1.0	0.0						1893.4581918	1901.3689531	1901.3689531	3.0	['3', 'return']	[2.7652705000000424, 3.4691938999999365]	7.9	5.93	1.0	40hz	low_pain	43.9			sub-pilot017	250	17	43.9	44.9	COM11	COM7	COM3	2023-11-10_13h09.56.900	001-EEG_SVR_Officel	2022.2.5	144.1038469963728		5.930000000000064	2_sub-pilot017_SVR_EEG_block5-6.protocol.csv	step5	628	62.404	STIMULATE	43.9	43.8	43.8	43.8	43.8	5	1708.007
1712.062	0	856031	wait	20	4	0	4	0	2.0	0.0	2.0	0.0						1917.8573683	1924.8792775	1924.8792775	4.5	['4', 'a', '5', 'return']	[2.856478799999877, 3.255326800000148, 3.407411199999842, 4.127479299999777]	7.01	6.04	2.0	controle	high_pain	44.9			sub-pilot017	250	17	43.9	44.9	COM11	COM7	COM3	2023-11-10_13h09.56.900	001-EEG_SVR_Officel	2022.2.5	144.1038469963728		10.569999999999936	2_sub-pilot017_SVR_EEG_block5-6.protocol.csv	step7	867	86.107	STIMULATE	44.8	44.8	44.8	44.8	44.8	7	1731.71
1719.07	0	859535	CNhz	12	4	0	4	0	2.0	0.0	2.0	0.0						1917.8573683	1924.8792775	1924.8792775	4.5	['4', 'a', '5', 'return']	[2.856478799999877, 3.255326800000148, 3.407411199999842, 4.127479299999777]	7.01	6.04	2.0	controle	high_pain	44.9			sub-pilot017	250	17	43.9	44.9	COM11	COM7	COM3	2023-11-10_13h09.56.900	001-EEG_SVR_Officel	2022.2.5	144.1038469963728		7.008000000000038	2_sub-pilot017_SVR_EEG_block5-6.protocol.csv	step7	867	86.107	STIMULATE	44.8	44.8	44.8	44.8	44.8	7	1731.71
1725.862	0	862931	CN/Hi	10	4	0	4	0	2.0	0.0	2.0	0.0						1917.8573683	1924.8792775	1924.8792775	4.5	['4', 'a', '5', 'return']	[2.856478799999877, 3.255326800000148, 3.407411199999842, 4.127479299999777]	7.01	6.04	2.0	controle	high_pain	44.9			sub-pilot017	250	17	43.9	44.9	COM11	COM7	COM3	2023-11-10_13h09.56.900	001-EEG_SVR_Officel	2022.2.5	144.1038469963728		6.042000000000144	2_sub-pilot017_SVR_EEG_block5-6.protocol.csv	step7	867	86.107	STIMULATE	44.8	44.8	44.8	44.8	44.8	7	1731.71
1736.23	0	868115	wait	20	4	0	4	0	3.0	0.0	3.0	0.0						1942.0267325	1947.9788063	1947.9788063	3.5	['3', 'a', '5', 'return']	[3.3876970000001165, 3.68364530000008, 3.8431869999999435, 4.700392499999907]	5.94	5.94	3.0	40hz	low_pain	43.9			sub-pilot017	250	17	43.9	44.9	COM11	COM7	COM3	2023-11-10_13h09.56.900	001-EEG_SVR_Officel	2022.2.5	144.1038469963728		11.117999999999938	2_sub-pilot017_SVR_EEG_block5-6.protocol.csv	step9	1098	109.006	STIMULATE	43.8	43.8	43.8	43.8	43.8	9	1754.609
1742.17	0	871085	40hz	9	4	0	4	0	3.0	0.0	3.0	0.0						1942.0267325	1947.9788063	1947.9788063	3.5	['3', 'a', '5', 'return']	[3.3876970000001165, 3.68364530000008, 3.8431869999999435, 4.700392499999907]	5.94	5.94	3.0	40hz	low_pain	43.9			sub-pilot017	250	17	43.9	44.9	COM11	COM7	COM3	2023-11-10_13h09.56.900	001-EEG_SVR_Officel	2022.2.5	144.1038469963728		5.940000000000055	2_sub-pilot017_SVR_EEG_block5-6.protocol.csv	step9	1098	109.006	STIMULATE	43.8	43.8	43.8	43.8	43.8	9	1754.609
1748.864	0	874432	40/Lo	8	4	0	4	0	3.0	0.0	3.0	0.0						1942.0267325	1947.9788063	1947.9788063	3.5	['3', 'a', '5', 'return']	[3.3876970000001165, 3.68364530000008, 3.8431869999999435, 4.700392499999907]	5.94	5.94	3.0	40hz	low_pain	43.9			sub-pilot017	250	17	43.9	44.9	COM11	COM7	COM3	2023-11-10_13h09.56.900	001-EEG_SVR_Officel	2022.2.5	144.1038469963728		5.94399999999996	2_sub-pilot017_SVR_EEG_block5-6.protocol.csv	step9	1098	109.006	STIMULATE	43.8	43.8	43.8	43.8	43.8	9	1754.609
1759.9	0	879950	wait	20	4	0	4	0	4.0	0.0	4.0	0.0						1965.6961019000005	1973.0441835	1973.0441835	5.5	['5', 'a', '5', 'return']	[2.90613250000024, 3.2512541999999485, 3.378239300000132, 3.9295234000001074]	7.34	5.06	0.0	20hz	high_pain	44.9			sub-pilot017	250	17	43.9	44.9	COM11	COM7	COM3	2023-11-10_13h09.56.900	001-EEG_SVR_Officel	2022.2.5	144.1038469963728		11.786000000000058	2_sub-pilot017_SVR_EEG_block5-6.protocol.csv	step11	1342	133.251	STIMULATE	45.0	44.8	44.8	44.8	44.9	11	1778.854
1767.236	0	883618	20hz	6	4	0	4	0	4.0	0.0	4.0	0.0						1965.6961019000005	1973.0441835	1973.0441835	5.5	['5', 'a', '5', 'return']	[2.90613250000024, 3.2512541999999485, 3.378239300000132, 3.9295234000001074]	7.34	5.06	0.0	20hz	high_pain	44.9			sub-pilot017	250	17	43.9	44.9	COM11	COM7	COM3	2023-11-10_13h09.56.900	001-EEG_SVR_Officel	2022.2.5	144.1038469963728		7.336000000000013	2_sub-pilot017_SVR_EEG_block5-6.protocol.csv	step11	1342	133.251	STIMULATE	45.0	44.8	44.8	44.8	44.9	11	1778.854
1773.046	0	886523	20/Hi	4	4	0	4	0	4.0	0.0	4.0	0.0						1965.6961019000005	1973.0441835	1973.0441835	5.5	['5', 'a', '5', 'return']	[2.90613250000024, 3.2512541999999485, 3.378239300000132, 3.9295234000001074]	7.34	5.06	0.0	20hz	high_pain	44.9			sub-pilot017	250	17	43.9	44.9	COM11	COM7	COM3	2023-11-10_13h09.56.900	001-EEG_SVR_Officel	2022.2.5	144.1038469963728		5.059999999999945	2_sub-pilot017_SVR_EEG_block5-6.protocol.csv	step11	1342	133.251	STIMULATE	45.0	44.8	44.8	44.8	44.9	11	1778.854
1784.186	0	892093	wait	20	4	0	4	0	5.0	0.0	5.0	0.0						1989.9837374	1997.0958503	1997.0958503	5.0	['5', 'return']	[2.990889100000004, 3.726254700000027]	7.1	5.67	1.0	40hz	high_pain	44.9			sub-pilot017	250	17	43.9	44.9	COM11	COM7	COM3	2023-11-10_13h09.56.900	001-EEG_SVR_Officel	2022.2.5	144.1038469963728		11.889999999999873	2_sub-pilot017_SVR_EEG_block5-6.protocol.csv	step13	1591	157.907	STIMULATE	44.9	44.8	44.8	44.8	44.9	13	1803.51
1791.288	0	895644	40hz	9	4	0	4	0	5.0	0.0	5.0	0.0						1989.9837374	1997.0958503	1997.0958503	5.0	['5', 'return']	[2.990889100000004, 3.726254700000027]	7.1	5.67	1.0	40hz	high_pain	44.9			sub-pilot017	250	17	43.9	44.9	COM11	COM7	COM3	2023-11-10_13h09.56.900	001-EEG_SVR_Officel	2022.2.5	144.1038469963728		7.102000000000089	2_sub-pilot017_SVR_EEG_block5-6.protocol.csv	step13	1591	157.907	STIMULATE	44.9	44.8	44.8	44.8	44.9	13	1803.51
1797.708	0	898854	40/Hi	7	4	0	4	0	5.0	0.0	5.0	0.0						1989.9837374	1997.0958503	1997.0958503	5.0	['5', 'return']	[2.990889100000004, 3.726254700000027]	7.1	5.67	1.0	40hz	high_pain	44.9			sub-pilot017	250	17	43.9	44.9	COM11	COM7	COM3	2023-11-10_13h09.56.900	001-EEG_SVR_Officel	2022.2.5	144.1038469963728		5.670000000000073	2_sub-pilot017_SVR_EEG_block5-6.protocol.csv	step13	1591	157.907	STIMULATE	44.9	44.8	44.8	44.8	44.9	13	1803.51
1808.036	0	904018	wait	20	4	0	4	0	6.0	0.0	6.0	0.0						2013.8333829	2020.5431899	2020.5431899	2.0	['2', 'return']	[2.9687708000001294, 3.6482826999999816]	6.7	5.04	2.0	20hz	low_pain	43.9			sub-pilot017	250	17	43.9	44.9	COM11	COM7	COM3	2023-11-10_13h09.56.900	001-EEG_SVR_Officel	2022.2.5	144.1038469963728		11.077999999999975	2_sub-pilot017_SVR_EEG_block5-6.protocol.csv	step15	1821	180.727	STIMULATE	43.9	43.8	43.8	43.8	43.8	15	1826.33
1814.734	0	907367	20hz	6	4	0	4	0	6.0	0.0	6.0	0.0						2013.8333829	2020.5431899	2020.5431899	2.0	['2', 'return']	[2.9687708000001294, 3.6482826999999816]	6.7	5.04	2.0	20hz	low_pain	43.9			sub-pilot017	250	17	43.9	44.9	COM11	COM7	COM3	2023-11-10_13h09.56.900	001-EEG_SVR_Officel	2022.2.5	144.1038469963728		6.697999999999865	2_sub-pilot017_SVR_EEG_block5-6.protocol.csv	step15	1821	180.727	STIMULATE	43.9	43.8	43.8	43.8	43.8	15	1826.33
1820.524	0	910262	20/Lo	5	4	0	4	0	6.0	0.0	6.0	0.0						2013.8333829	2020.5431899	2020.5431899	2.0	['2', 'return']	[2.9687708000001294, 3.6482826999999816]	6.7	5.04	2.0	20hz	low_pain	43.9			sub-pilot017	250	17	43.9	44.9	COM11	COM7	COM3	2023-11-10_13h09.56.900	001-EEG_SVR_Officel	2022.2.5	144.1038469963728		5.039999999999964	2_sub-pilot017_SVR_EEG_block5-6.protocol.csv	step15	1821	180.727	STIMULATE	43.9	43.8	43.8	43.8	43.8	15	1826.33
