onset	duration	sample	trial_type	value	block.thisRepN	block.thisTrialN	block.thisN	block.thisIndex	reps.thisRepN	reps.thisTrialN	reps.thisN	reps.thisIndex	afrec_start	rec_start	key_resp.keys	key_resp.rt	wait_time_text.started	wait_time_text.stopped	therm_loca_text.started	subResponse	keyResp.keys	keyResp.rt	ITI_wait	wait_trigger	loca_thermode	Hz_condition	temp_condition	temp_valeur	text.started	text.stopped	therm_loca_text.stopped	participant	brightness	num_part	low	high	com_svr	com_thermode	com_eeg	date	expName	psychopyVersion	frameRate	Unnamed: 39	distance_from_previous	file	step	index	time	type	temp1	temp2	temp3	temp4	temp5	step_num	time_sync
41.444	0	41444	wait	10005	0	0	0	0	0.0	0.0	0.0	0.0	83.67204179998953	83.57636979990639	p	41.31074149999768	125.00537519995125	132.52177529991604	132.52177529991604	5.0	['5', 'return']	[3.870069200056605, 5.390014100004919]	7.51	6.38	0.0	20hz	low_pain	46.7				sub-052	250	52	46.7	47.8	COM5	COM15	COM3	2024-12-09_13h20.06.542	001-EEG_SVR_Officel	2022.2.5	238.77460849588877		41.444	0_sub-pilot052_SVR_EEG_block1-2.protocol.csv	step3	2355	235.327	STIMULATE	46.9	46.8	46.7	46.7	46.7	3	61.95199999999999
48.952	0	48952	20hz	10004	0	0	0	0	0.0	0.0	0.0	0.0	83.67204179998953	83.57636979990639	p	41.31074149999768	125.00537519995125	132.52177529991604	132.52177529991604	5.0	['5', 'return']	[3.870069200056605, 5.390014100004919]	7.51	6.38	0.0	20hz	low_pain	46.7				sub-052	250	52	46.7	47.8	COM5	COM15	COM3	2024-12-09_13h20.06.542	001-EEG_SVR_Officel	2022.2.5	238.77460849588877		7.507999999999996	0_sub-pilot052_SVR_EEG_block1-2.protocol.csv	step3	2355	235.327	STIMULATE	46.9	46.8	46.7	46.7	46.7	3	61.95199999999999
56.085	0	56085	20/Lo	10001	0	0	0	0	0.0	0.0	0.0	0.0	83.67204179998953	83.57636979990639	p	41.31074149999768	125.00537519995125	132.52177529991604	132.52177529991604	5.0	['5', 'return']	[3.870069200056605, 5.390014100004919]	7.51	6.38	0.0	20hz	low_pain	46.7				sub-052	250	52	46.7	47.8	COM5	COM15	COM3	2024-12-09_13h20.06.542	001-EEG_SVR_Officel	2022.2.5	238.77460849588877		6.383000000000003	0_sub-pilot052_SVR_EEG_block1-2.protocol.csv	step3	2355	235.327	STIMULATE	46.9	46.8	46.7	46.7	46.7	3	61.95199999999999
67.364	0	67364	wait	10005	0	0	0	0	1.0	0.0	1.0	0.0					150.92518049990758	156.60966379998715	156.60966379998715	6.0	['6', 'return']	[1.7259177999803796, 2.678534399950877]	5.68	5.75	1.0	40hz	low_pain	46.7				sub-052	250	52	46.7	47.8	COM5	COM15	COM3	2024-12-09_13h20.06.542	001-EEG_SVR_Officel	2022.2.5	238.77460849588877		12.029000000000003	0_sub-pilot052_SVR_EEG_block1-2.protocol.csv	step5	2592	258.837	STIMULATE	46.8	46.6	46.6	46.6	46.9	5	85.46199999999999
73.04	0	73040	40hz	10004	0	0	0	0	1.0	0.0	1.0	0.0					150.92518049990758	156.60966379998715	156.60966379998715	6.0	['6', 'return']	[1.7259177999803796, 2.678534399950877]	5.68	5.75	1.0	40hz	low_pain	46.7				sub-052	250	52	46.7	47.8	COM5	COM15	COM3	2024-12-09_13h20.06.542	001-EEG_SVR_Officel	2022.2.5	238.77460849588877		5.676000000000002	0_sub-pilot052_SVR_EEG_block1-2.protocol.csv	step5	2592	258.837	STIMULATE	46.8	46.6	46.6	46.6	46.9	5	85.46199999999999
79.543	0	79543	40/Lo	10001	0	0	0	0	1.0	0.0	1.0	0.0					150.92518049990758	156.60966379998715	156.60966379998715	6.0	['6', 'return']	[1.7259177999803796, 2.678534399950877]	5.68	5.75	1.0	40hz	low_pain	46.7				sub-052	250	52	46.7	47.8	COM5	COM15	COM3	2024-12-09_13h20.06.542	001-EEG_SVR_Officel	2022.2.5	238.77460849588877		5.753	0_sub-pilot052_SVR_EEG_block1-2.protocol.csv	step5	2592	258.837	STIMULATE	46.8	46.6	46.6	46.6	46.9	5	85.46199999999999
88.739	0	88739	wait	10005	0	0	0	0	2.0	0.0	2.0	0.0					172.30044249992352	180.09640069992747	180.09640069992747	6.0	['6', 'return']	[1.910702700028196, 2.927740400074981]	7.79	5.05	2.0	10hz	high_pain	47.8				sub-052	250	52	46.7	47.8	COM5	COM15	COM3	2024-12-09_13h20.06.542	001-EEG_SVR_Officel	2022.2.5	238.77460849588877		9.945999999999998	0_sub-pilot052_SVR_EEG_block1-2.protocol.csv	step7	2822	281.618	STIMULATE	47.8	47.8	47.8	47.8	48.0	7	108.243
96.527	0	96527	10hz	10004	0	0	0	0	2.0	0.0	2.0	0.0					172.30044249992352	180.09640069992747	180.09640069992747	6.0	['6', 'return']	[1.910702700028196, 2.927740400074981]	7.79	5.05	2.0	10hz	high_pain	47.8				sub-052	250	52	46.7	47.8	COM5	COM15	COM3	2024-12-09_13h20.06.542	001-EEG_SVR_Officel	2022.2.5	238.77460849588877		7.787999999999997	0_sub-pilot052_SVR_EEG_block1-2.protocol.csv	step7	2822	281.618	STIMULATE	47.8	47.8	47.8	47.8	48.0	7	108.243
102.331	0	102331	10/Hi	10001	0	0	0	0	2.0	0.0	2.0	0.0					172.30044249992352	180.09640069992747	180.09640069992747	6.0	['6', 'return']	[1.910702700028196, 2.927740400074981]	7.79	5.05	2.0	10hz	high_pain	47.8				sub-052	250	52	46.7	47.8	COM5	COM15	COM3	2024-12-09_13h20.06.542	001-EEG_SVR_Officel	2022.2.5	238.77460849588877		5.054000000000002	0_sub-pilot052_SVR_EEG_block1-2.protocol.csv	step7	2822	281.618	STIMULATE	47.8	47.8	47.8	47.8	48.0	7	108.243
112.476	0	112476	wait	10005	0	0	0	0	3.0	0.0	3.0	0.0					196.0377144999802	201.2626927999081	201.2626927999081	5.0	['5', 'return']	[2.0095412000082433, 3.049264100030996]	5.22	5.31	3.0	20hz	high_pain	47.8				sub-052	250	52	46.7	47.8	COM5	COM15	COM3	2024-12-09_13h20.06.542	001-EEG_SVR_Officel	2022.2.5	238.77460849588877		10.894999999999996	0_sub-pilot052_SVR_EEG_block1-2.protocol.csv	step9	3037	302.965	STIMULATE	47.8	47.8	47.8	47.8	47.8	9	129.58999999999997
117.693	0	117693	20hz	10004	0	0	0	0	3.0	0.0	3.0	0.0					196.0377144999802	201.2626927999081	201.2626927999081	5.0	['5', 'return']	[2.0095412000082433, 3.049264100030996]	5.22	5.31	3.0	20hz	high_pain	47.8				sub-052	250	52	46.7	47.8	COM5	COM15	COM3	2024-12-09_13h20.06.542	001-EEG_SVR_Officel	2022.2.5	238.77460849588877		5.216999999999999	0_sub-pilot052_SVR_EEG_block1-2.protocol.csv	step9	3037	302.965	STIMULATE	47.8	47.8	47.8	47.8	47.8	9	129.58999999999997
123.756	0	123756	20/Hi	10001	0	0	0	0	3.0	0.0	3.0	0.0					196.0377144999802	201.2626927999081	201.2626927999081	5.0	['5', 'return']	[2.0095412000082433, 3.049264100030996]	5.22	5.31	3.0	20hz	high_pain	47.8				sub-052	250	52	46.7	47.8	COM5	COM15	COM3	2024-12-09_13h20.06.542	001-EEG_SVR_Officel	2022.2.5	238.77460849588877		5.313000000000002	0_sub-pilot052_SVR_EEG_block1-2.protocol.csv	step9	3037	302.965	STIMULATE	47.8	47.8	47.8	47.8	47.8	9	129.58999999999997
133.764	0	133764	wait	10005	0	0	0	0	4.0	0.0	4.0	0.0					217.325063199969	223.49247449997347	223.49247449997347	7.0	['7', 'return']	[2.0595719000557438, 3.2751763000851497]	6.16	5.84	0.0	10hz	high_pain	47.8				sub-052	250	52	46.7	47.8	COM5	COM15	COM3	2024-12-09_13h20.06.542	001-EEG_SVR_Officel	2022.2.5	238.77460849588877		10.75800000000001	0_sub-pilot052_SVR_EEG_block1-2.protocol.csv	step11	3268	325.845	STIMULATE	47.9	47.8	47.8	47.8	47.9	11	152.47000000000003
139.923	0	139923	10hz	10004	0	0	0	0	4.0	0.0	4.0	0.0					217.325063199969	223.49247449997347	223.49247449997347	7.0	['7', 'return']	[2.0595719000557438, 3.2751763000851497]	6.16	5.84	0.0	10hz	high_pain	47.8				sub-052	250	52	46.7	47.8	COM5	COM15	COM3	2024-12-09_13h20.06.542	001-EEG_SVR_Officel	2022.2.5	238.77460849588877		6.158999999999992	0_sub-pilot052_SVR_EEG_block1-2.protocol.csv	step11	3268	325.845	STIMULATE	47.9	47.8	47.8	47.8	47.9	11	152.47000000000003
146.514	0	146514	10/Hi	10001	0	0	0	0	4.0	0.0	4.0	0.0					217.325063199969	223.49247449997347	223.49247449997347	7.0	['7', 'return']	[2.0595719000557438, 3.2751763000851497]	6.16	5.84	0.0	10hz	high_pain	47.8				sub-052	250	52	46.7	47.8	COM5	COM15	COM3	2024-12-09_13h20.06.542	001-EEG_SVR_Officel	2022.2.5	238.77460849588877		5.841000000000008	0_sub-pilot052_SVR_EEG_block1-2.protocol.csv	step11	3268	325.845	STIMULATE	47.9	47.8	47.8	47.8	47.9	11	152.47000000000003
156.227	0	156227	wait	10005	0	0	0	0	5.0	0.0	5.0	0.0					239.78847029991448	246.4429062999552	246.4429062999552	4.0	['4', 'return']	[2.637565499986522, 3.766580800060183]	6.65	6.34	1.0	20hz	low_pain	46.7				sub-052	250	52	46.7	47.8	COM5	COM15	COM3	2024-12-09_13h20.06.542	001-EEG_SVR_Officel	2022.2.5	238.77460849588877		10.462999999999994	0_sub-pilot052_SVR_EEG_block1-2.protocol.csv	step13	3503	349.197	STIMULATE	46.8	46.6	46.7	46.7	46.8	13	175.822
162.873	0	162873	20hz	10004	0	0	0	0	5.0	0.0	5.0	0.0					239.78847029991448	246.4429062999552	246.4429062999552	4.0	['4', 'return']	[2.637565499986522, 3.766580800060183]	6.65	6.34	1.0	20hz	low_pain	46.7				sub-052	250	52	46.7	47.8	COM5	COM15	COM3	2024-12-09_13h20.06.542	001-EEG_SVR_Officel	2022.2.5	238.77460849588877		6.645999999999987	0_sub-pilot052_SVR_EEG_block1-2.protocol.csv	step13	3503	349.197	STIMULATE	46.8	46.6	46.7	46.7	46.8	13	175.822
169.969	0	169969	20/Lo	10001	0	0	0	0	5.0	0.0	5.0	0.0					239.78847029991448	246.4429062999552	246.4429062999552	4.0	['4', 'return']	[2.637565499986522, 3.766580800060183]	6.65	6.34	1.0	20hz	low_pain	46.7				sub-052	250	52	46.7	47.8	COM5	COM15	COM3	2024-12-09_13h20.06.542	001-EEG_SVR_Officel	2022.2.5	238.77460849588877		6.346000000000004	0_sub-pilot052_SVR_EEG_block1-2.protocol.csv	step13	3503	349.197	STIMULATE	46.8	46.6	46.7	46.7	46.8	13	175.822
179.659	0	179659	wait	10005	0	0	0	0	6.0	0.0	6.0	0.0					263.2204702999443	269.5162950999802	269.5162950999802	3.0	['3', 'return']	[1.899324500001967, 2.91545239998959]	6.29	5.56	2.0	10hz	low_pain	46.7				sub-052	250	52	46.7	47.8	COM5	COM15	COM3	2024-12-09_13h20.06.542	001-EEG_SVR_Officel	2022.2.5	238.77460849588877		10.439999999999998	0_sub-pilot052_SVR_EEG_block1-2.protocol.csv	step15	3728	371.491	STIMULATE	46.7	46.6	46.7	46.7	46.8	15	198.11599999999999
185.947	0	185947	10hz	10004	0	0	0	0	6.0	0.0	6.0	0.0					263.2204702999443	269.5162950999802	269.5162950999802	3.0	['3', 'return']	[1.899324500001967, 2.91545239998959]	6.29	5.56	2.0	10hz	low_pain	46.7				sub-052	250	52	46.7	47.8	COM5	COM15	COM3	2024-12-09_13h20.06.542	001-EEG_SVR_Officel	2022.2.5	238.77460849588877		6.288000000000011	0_sub-pilot052_SVR_EEG_block1-2.protocol.csv	step15	3728	371.491	STIMULATE	46.7	46.6	46.7	46.7	46.8	15	198.11599999999999
192.259	0	192259	10/Lo	10001	0	0	0	0	6.0	0.0	6.0	0.0					263.2204702999443	269.5162950999802	269.5162950999802	3.0	['3', 'return']	[1.899324500001967, 2.91545239998959]	6.29	5.56	2.0	10hz	low_pain	46.7				sub-052	250	52	46.7	47.8	COM5	COM15	COM3	2024-12-09_13h20.06.542	001-EEG_SVR_Officel	2022.2.5	238.77460849588877		5.561999999999983	0_sub-pilot052_SVR_EEG_block1-2.protocol.csv	step15	3728	371.491	STIMULATE	46.7	46.6	46.7	46.7	46.8	15	198.11599999999999
201.884	0	201884	wait	10005	0	0	0	0	7.0	0.0	7.0	0.0					285.4453312999103	292.24109269992914	292.24109269992914	7.0	['7', 'return']	[1.91812749998644, 2.998931900016032]	6.79	6.02	3.0	10hz	high_pain	47.8				sub-052	250	52	46.7	47.8	COM5	COM15	COM3	2024-12-09_13h20.06.542	001-EEG_SVR_Officel	2022.2.5	238.77460849588877		10.375	0_sub-pilot052_SVR_EEG_block1-2.protocol.csv	step17	3963	394.732	STIMULATE	47.8	47.8	47.8	47.8	47.8	17	221.35700000000003
208.671	0	208671	10hz	10004	0	0	0	0	7.0	0.0	7.0	0.0					285.4453312999103	292.24109269992914	292.24109269992914	7.0	['7', 'return']	[1.91812749998644, 2.998931900016032]	6.79	6.02	3.0	10hz	high_pain	47.8				sub-052	250	52	46.7	47.8	COM5	COM15	COM3	2024-12-09_13h20.06.542	001-EEG_SVR_Officel	2022.2.5	238.77460849588877		6.787000000000006	0_sub-pilot052_SVR_EEG_block1-2.protocol.csv	step17	3963	394.732	STIMULATE	47.8	47.8	47.8	47.8	47.8	17	221.35700000000003
215.442	0	215442	10/Hi	10001	0	0	0	0	7.0	0.0	7.0	0.0					285.4453312999103	292.24109269992914	292.24109269992914	7.0	['7', 'return']	[1.91812749998644, 2.998931900016032]	6.79	6.02	3.0	10hz	high_pain	47.8				sub-052	250	52	46.7	47.8	COM5	COM15	COM3	2024-12-09_13h20.06.542	001-EEG_SVR_Officel	2022.2.5	238.77460849588877		6.021000000000015	0_sub-pilot052_SVR_EEG_block1-2.protocol.csv	step17	3963	394.732	STIMULATE	47.8	47.8	47.8	47.8	47.8	17	221.35700000000003
224.692	0	224692	wait	10005	0	0	0	0	8.0	0.0	8.0	0.0					308.2530268999981	313.5701747999992	313.5701747999992	6.0	['6', 'return']	[1.7572351999115199, 2.7099074999568984]	5.31	5.73	0.0	40hz	low_pain	46.7				sub-052	250	52	46.7	47.8	COM5	COM15	COM3	2024-12-09_13h20.06.542	001-EEG_SVR_Officel	2022.2.5	238.77460849588877		10.0	0_sub-pilot052_SVR_EEG_block1-2.protocol.csv	step19	4175	415.755	STIMULATE	46.8	46.6	46.7	46.7	46.9	19	242.38
230.0	0	230000	40hz	10004	0	0	0	0	8.0	0.0	8.0	0.0					308.2530268999981	313.5701747999992	313.5701747999992	6.0	['6', 'return']	[1.7572351999115199, 2.7099074999568984]	5.31	5.73	0.0	40hz	low_pain	46.7				sub-052	250	52	46.7	47.8	COM5	COM15	COM3	2024-12-09_13h20.06.542	001-EEG_SVR_Officel	2022.2.5	238.77460849588877		5.307999999999993	0_sub-pilot052_SVR_EEG_block1-2.protocol.csv	step19	4175	415.755	STIMULATE	46.8	46.6	46.7	46.7	46.9	19	242.38
236.484	0	236484	40/Lo	10001	0	0	0	0	8.0	0.0	8.0	0.0					308.2530268999981	313.5701747999992	313.5701747999992	6.0	['6', 'return']	[1.7572351999115199, 2.7099074999568984]	5.31	5.73	0.0	40hz	low_pain	46.7				sub-052	250	52	46.7	47.8	COM5	COM15	COM3	2024-12-09_13h20.06.542	001-EEG_SVR_Officel	2022.2.5	238.77460849588877		5.734000000000009	0_sub-pilot052_SVR_EEG_block1-2.protocol.csv	step19	4175	415.755	STIMULATE	46.8	46.6	46.7	46.7	46.9	19	242.38
245.729	0	245729	wait	10005	0	0	0	0	9.0	0.0	9.0	0.0					329.29030959995	334.5364987999201	334.5364987999201	8.0	['8', 'return']	[2.15924259996973, 3.087444099946879]	5.24	5.98	1.0	controle	high_pain	47.8				sub-052	250	52	46.7	47.8	COM5	COM15	COM3	2024-12-09_13h20.06.542	001-EEG_SVR_Officel	2022.2.5	238.77460849588877		9.995000000000005	0_sub-pilot052_SVR_EEG_block1-2.protocol.csv	step21	4389	436.94	STIMULATE	47.8	47.8	47.8	47.8	48.0	21	263.565
250.967	0	250967	CNhz	10004	0	0	0	0	9.0	0.0	9.0	0.0					329.29030959995	334.5364987999201	334.5364987999201	8.0	['8', 'return']	[2.15924259996973, 3.087444099946879]	5.24	5.98	1.0	controle	high_pain	47.8				sub-052	250	52	46.7	47.8	COM5	COM15	COM3	2024-12-09_13h20.06.542	001-EEG_SVR_Officel	2022.2.5	238.77460849588877		5.2379999999999995	0_sub-pilot052_SVR_EEG_block1-2.protocol.csv	step21	4389	436.94	STIMULATE	47.8	47.8	47.8	47.8	48.0	21	263.565
257.7	0	257700	CN/Hi	10001	0	0	0	0	9.0	0.0	9.0	0.0					329.29030959995	334.5364987999201	334.5364987999201	8.0	['8', 'return']	[2.15924259996973, 3.087444099946879]	5.24	5.98	1.0	controle	high_pain	47.8				sub-052	250	52	46.7	47.8	COM5	COM15	COM3	2024-12-09_13h20.06.542	001-EEG_SVR_Officel	2022.2.5	238.77460849588877		5.982999999999976	0_sub-pilot052_SVR_EEG_block1-2.protocol.csv	step21	4389	436.94	STIMULATE	47.8	47.8	47.8	47.8	48.0	21	263.565
267.075	0	267075	wait	10005	0	0	0	0	10.0	0.0	10.0	0.0					350.6363786999136	356.0541396999033	356.0541396999033	2.0	['2', 'return']	[1.7966258999658749, 2.8215274999383837]	5.41	6.5	2.0	40hz	low_pain	46.7				sub-052	250	52	46.7	47.8	COM5	COM15	COM3	2024-12-09_13h20.06.542	001-EEG_SVR_Officel	2022.2.5	238.77460849588877		10.125	0_sub-pilot052_SVR_EEG_block1-2.protocol.csv	step23	4612	459.024	STIMULATE	46.7	46.7	46.7	46.7	46.8	23	285.649
272.485	0	272485	40hz	10004	0	0	0	0	10.0	0.0	10.0	0.0					350.6363786999136	356.0541396999033	356.0541396999033	2.0	['2', 'return']	[1.7966258999658749, 2.8215274999383837]	5.41	6.5	2.0	40hz	low_pain	46.7				sub-052	250	52	46.7	47.8	COM5	COM15	COM3	2024-12-09_13h20.06.542	001-EEG_SVR_Officel	2022.2.5	238.77460849588877		5.410000000000025	0_sub-pilot052_SVR_EEG_block1-2.protocol.csv	step23	4612	459.024	STIMULATE	46.7	46.7	46.7	46.7	46.8	23	285.649
279.738	0	279738	40/Lo	10001	0	0	0	0	10.0	0.0	10.0	0.0					350.6363786999136	356.0541396999033	356.0541396999033	2.0	['2', 'return']	[1.7966258999658749, 2.8215274999383837]	5.41	6.5	2.0	40hz	low_pain	46.7				sub-052	250	52	46.7	47.8	COM5	COM15	COM3	2024-12-09_13h20.06.542	001-EEG_SVR_Officel	2022.2.5	238.77460849588877		6.502999999999986	0_sub-pilot052_SVR_EEG_block1-2.protocol.csv	step23	4612	459.024	STIMULATE	46.7	46.7	46.7	46.7	46.8	23	285.649
288.342	0	288342	wait	10005	0	0	0	0	11.0	0.0	11.0	0.0					371.9039026999381	377.8873363999882	377.8873363999882	4.0	['4', 'return']	[2.0175116000464186, 3.0176405000966042]	5.98	5.45	3.0	10hz	low_pain	46.7				sub-052	250	52	46.7	47.8	COM5	COM15	COM3	2024-12-09_13h20.06.542	001-EEG_SVR_Officel	2022.2.5	238.77460849588877		9.353999999999985	0_sub-pilot052_SVR_EEG_block1-2.protocol.csv	step25	4822	479.823	STIMULATE	46.7	46.7	46.7	46.6	46.7	25	306.448
294.318	0	294318	10hz	10004	0	0	0	0	11.0	0.0	11.0	0.0					371.9039026999381	377.8873363999882	377.8873363999882	4.0	['4', 'return']	[2.0175116000464186, 3.0176405000966042]	5.98	5.45	3.0	10hz	low_pain	46.7				sub-052	250	52	46.7	47.8	COM5	COM15	COM3	2024-12-09_13h20.06.542	001-EEG_SVR_Officel	2022.2.5	238.77460849588877		5.975999999999999	0_sub-pilot052_SVR_EEG_block1-2.protocol.csv	step25	4822	479.823	STIMULATE	46.7	46.7	46.7	46.6	46.7	25	306.448
300.52	0	300520	10/Lo	10001	0	0	0	0	11.0	0.0	11.0	0.0					371.9039026999381	377.8873363999882	377.8873363999882	4.0	['4', 'return']	[2.0175116000464186, 3.0176405000966042]	5.98	5.45	3.0	10hz	low_pain	46.7				sub-052	250	52	46.7	47.8	COM5	COM15	COM3	2024-12-09_13h20.06.542	001-EEG_SVR_Officel	2022.2.5	238.77460849588877		5.451999999999998	0_sub-pilot052_SVR_EEG_block1-2.protocol.csv	step25	4822	479.823	STIMULATE	46.7	46.7	46.7	46.6	46.7	25	306.448
310.354	0	310354	wait	10005	0	0	0	0	12.0	0.0	12.0	0.0					393.9151588999666	398.9196054999484	398.9196054999484	7.0	['7', 'return']	[1.8320246000075713, 2.8328004999784753]	5.0	5.17	0.0	controle	high_pain	47.8				sub-052	250	52	46.7	47.8	COM5	COM15	COM3	2024-12-09_13h20.06.542	001-EEG_SVR_Officel	2022.2.5	238.77460849588877		10.584000000000003	0_sub-pilot052_SVR_EEG_block1-2.protocol.csv	step27	5030	500.422	STIMULATE	48.0	47.7	47.7	47.8	48.1	27	327.04699999999997
315.351	0	315351	CNhz	10004	0	0	0	0	12.0	0.0	12.0	0.0					393.9151588999666	398.9196054999484	398.9196054999484	7.0	['7', 'return']	[1.8320246000075713, 2.8328004999784753]	5.0	5.17	0.0	controle	high_pain	47.8				sub-052	250	52	46.7	47.8	COM5	COM15	COM3	2024-12-09_13h20.06.542	001-EEG_SVR_Officel	2022.2.5	238.77460849588877		4.997000000000014	0_sub-pilot052_SVR_EEG_block1-2.protocol.csv	step27	5030	500.422	STIMULATE	48.0	47.7	47.7	47.8	48.1	27	327.04699999999997
321.274	0	321274	CN/Hi	10001	0	0	0	0	12.0	0.0	12.0	0.0					393.9151588999666	398.9196054999484	398.9196054999484	7.0	['7', 'return']	[1.8320246000075713, 2.8328004999784753]	5.0	5.17	0.0	controle	high_pain	47.8				sub-052	250	52	46.7	47.8	COM5	COM15	COM3	2024-12-09_13h20.06.542	001-EEG_SVR_Officel	2022.2.5	238.77460849588877		5.173000000000002	0_sub-pilot052_SVR_EEG_block1-2.protocol.csv	step27	5030	500.422	STIMULATE	48.0	47.7	47.7	47.8	48.1	27	327.04699999999997
331.204	0	331204	wait	10005	0	0	0	0	13.0	0.0	13.0	0.0					414.7650778999087	419.881626599934	419.881626599934	7.0	['7', 'return']	[2.0616471000248566, 3.3973994000116363]	5.11	5.2	1.0	10hz	high_pain	47.8				sub-052	250	52	46.7	47.8	COM5	COM15	COM3	2024-12-09_13h20.06.542	001-EEG_SVR_Officel	2022.2.5	238.77460849588877		10.680000000000007	0_sub-pilot052_SVR_EEG_block1-2.protocol.csv	step29	5243	521.526	STIMULATE	47.9	47.8	47.8	47.7	48.0	29	348.1509999999999
336.312	0	336312	10hz	10004	0	0	0	0	13.0	0.0	13.0	0.0					414.7650778999087	419.881626599934	419.881626599934	7.0	['7', 'return']	[2.0616471000248566, 3.3973994000116363]	5.11	5.2	1.0	10hz	high_pain	47.8				sub-052	250	52	46.7	47.8	COM5	COM15	COM3	2024-12-09_13h20.06.542	001-EEG_SVR_Officel	2022.2.5	238.77460849588877		5.108000000000004	0_sub-pilot052_SVR_EEG_block1-2.protocol.csv	step29	5243	521.526	STIMULATE	47.9	47.8	47.8	47.7	48.0	29	348.1509999999999
342.266	0	342266	10/Hi	10001	0	0	0	0	13.0	0.0	13.0	0.0					414.7650778999087	419.881626599934	419.881626599934	7.0	['7', 'return']	[2.0616471000248566, 3.3973994000116363]	5.11	5.2	1.0	10hz	high_pain	47.8				sub-052	250	52	46.7	47.8	COM5	COM15	COM3	2024-12-09_13h20.06.542	001-EEG_SVR_Officel	2022.2.5	238.77460849588877		5.204000000000008	0_sub-pilot052_SVR_EEG_block1-2.protocol.csv	step29	5243	521.526	STIMULATE	47.9	47.8	47.8	47.7	48.0	29	348.1509999999999
352.732	0	352732	wait	10005	0	0	0	0	14.0	0.0	14.0	0.0					436.2939453999279	443.61427589994855	443.61427589994855	7.0	['7', 'return']	[1.9231398000847548, 2.915222499985248]	7.32	5.87	2.0	controle	high_pain	47.8				sub-052	250	52	46.7	47.8	COM5	COM15	COM3	2024-12-09_13h20.06.542	001-EEG_SVR_Officel	2022.2.5	238.77460849588877		11.216000000000008	0_sub-pilot052_SVR_EEG_block1-2.protocol.csv	step31	5489	545.92	STIMULATE	47.8	47.7	47.8	47.8	47.9	31	372.5449999999999
360.048	0	360048	CNhz	10004	0	0	0	0	14.0	0.0	14.0	0.0					436.2939453999279	443.61427589994855	443.61427589994855	7.0	['7', 'return']	[1.9231398000847548, 2.915222499985248]	7.32	5.87	2.0	controle	high_pain	47.8				sub-052	250	52	46.7	47.8	COM5	COM15	COM3	2024-12-09_13h20.06.542	001-EEG_SVR_Officel	2022.2.5	238.77460849588877		7.315999999999974	0_sub-pilot052_SVR_EEG_block1-2.protocol.csv	step31	5489	545.92	STIMULATE	47.8	47.7	47.8	47.8	47.9	31	372.5449999999999
366.67	0	366670	CN/Hi	10001	0	0	0	0	14.0	0.0	14.0	0.0					436.2939453999279	443.61427589994855	443.61427589994855	7.0	['7', 'return']	[1.9231398000847548, 2.915222499985248]	7.32	5.87	2.0	controle	high_pain	47.8				sub-052	250	52	46.7	47.8	COM5	COM15	COM3	2024-12-09_13h20.06.542	001-EEG_SVR_Officel	2022.2.5	238.77460849588877		5.872000000000014	0_sub-pilot052_SVR_EEG_block1-2.protocol.csv	step31	5489	545.92	STIMULATE	47.8	47.7	47.8	47.8	47.9	31	372.5449999999999
375.982	0	375982	wait	10005	0	0	0	0	15.0	0.0	15.0	0.0					459.5433538999641	467.44813009991776	467.44813009991776	1.0	['1', 'return']	[1.9348551000002772, 3.1037134000798687]	7.9	6.06	3.0	controle	low_pain	46.7				sub-052	250	52	46.7	47.8	COM5	COM15	COM3	2024-12-09_13h20.06.542	001-EEG_SVR_Officel	2022.2.5	238.77460849588877		10.062000000000012	0_sub-pilot052_SVR_EEG_block1-2.protocol.csv	step33	5731	569.998	STIMULATE	46.7	46.7	46.7	46.7	46.8	33	396.623
383.879	0	383879	CNhz	10004	0	0	0	0	15.0	0.0	15.0	0.0					459.5433538999641	467.44813009991776	467.44813009991776	1.0	['1', 'return']	[1.9348551000002772, 3.1037134000798687]	7.9	6.06	3.0	controle	low_pain	46.7				sub-052	250	52	46.7	47.8	COM5	COM15	COM3	2024-12-09_13h20.06.542	001-EEG_SVR_Officel	2022.2.5	238.77460849588877		7.896999999999991	0_sub-pilot052_SVR_EEG_block1-2.protocol.csv	step33	5731	569.998	STIMULATE	46.7	46.7	46.7	46.7	46.8	33	396.623
390.691	0	390691	CN/Lo	10001	0	0	0	0	15.0	0.0	15.0	0.0					459.5433538999641	467.44813009991776	467.44813009991776	1.0	['1', 'return']	[1.9348551000002772, 3.1037134000798687]	7.9	6.06	3.0	controle	low_pain	46.7				sub-052	250	52	46.7	47.8	COM5	COM15	COM3	2024-12-09_13h20.06.542	001-EEG_SVR_Officel	2022.2.5	238.77460849588877		6.061999999999955	0_sub-pilot052_SVR_EEG_block1-2.protocol.csv	step33	5731	569.998	STIMULATE	46.7	46.7	46.7	46.7	46.8	33	396.623
460.623	0	460623	wait	10005	1	0	1	0	0.0	0.0	0.0	0.0			p	4.169359600055032	544.1846903999103	550.9187595999101	550.9187595999101	6.0	['6', 'return']	[1.9934456999180838, 4.7225865999935195]	6.73	5.84	0.0	40hz	high_pain	47.8				sub-052	250	52	46.7	47.8	COM5	COM15	COM3	2024-12-09_13h20.06.542	001-EEG_SVR_Officel	2022.2.5	238.77460849588877		70.68200000000002	0_sub-pilot052_SVR_EEG_block1-2.protocol.csv	step35	6566	653.237	STIMULATE	48.0	47.7	47.8	47.8	48.0	35	479.796
467.349	0	467349	40hz	10004	1	0	1	0	0.0	0.0	0.0	0.0			p	4.169359600055032	544.1846903999103	550.9187595999101	550.9187595999101	6.0	['6', 'return']	[1.9934456999180838, 4.7225865999935195]	6.73	5.84	0.0	40hz	high_pain	47.8				sub-052	250	52	46.7	47.8	COM5	COM15	COM3	2024-12-09_13h20.06.542	001-EEG_SVR_Officel	2022.2.5	238.77460849588877		6.725999999999999	0_sub-pilot052_SVR_EEG_block1-2.protocol.csv	step35	6566	653.237	STIMULATE	48.0	47.7	47.8	47.8	48.0	35	479.796
473.94	0	473940	40/Hi	10001	1	0	1	0	0.0	0.0	0.0	0.0			p	4.169359600055032	544.1846903999103	550.9187595999101	550.9187595999101	6.0	['6', 'return']	[1.9934456999180838, 4.7225865999935195]	6.73	5.84	0.0	40hz	high_pain	47.8				sub-052	250	52	46.7	47.8	COM5	COM15	COM3	2024-12-09_13h20.06.542	001-EEG_SVR_Officel	2022.2.5	238.77460849588877		5.841000000000008	0_sub-pilot052_SVR_EEG_block1-2.protocol.csv	step35	6566	653.237	STIMULATE	48.0	47.7	47.8	47.8	48.0	35	479.796
485.094	0	485094	wait	10005	1	0	1	0	1.0	0.0	1.0	0.0					568.6552972999634	574.0219266999047	574.0219266999047	1.0	['1', 'return']	[2.09774210001342, 3.186028699972667]	5.36	6.19	1.0	10hz	low_pain	46.7				sub-052	250	52	46.7	47.8	COM5	COM15	COM3	2024-12-09_13h20.06.542	001-EEG_SVR_Officel	2022.2.5	238.77460849588877		11.903999999999996	0_sub-pilot052_SVR_EEG_block1-2.protocol.csv	step37	6803	676.718	STIMULATE	46.9	46.6	46.6	46.7	46.8	37	503.277
490.452	0	490452	10hz	10004	1	0	1	0	1.0	0.0	1.0	0.0					568.6552972999634	574.0219266999047	574.0219266999047	1.0	['1', 'return']	[2.09774210001342, 3.186028699972667]	5.36	6.19	1.0	10hz	low_pain	46.7				sub-052	250	52	46.7	47.8	COM5	COM15	COM3	2024-12-09_13h20.06.542	001-EEG_SVR_Officel	2022.2.5	238.77460849588877		5.358000000000004	0_sub-pilot052_SVR_EEG_block1-2.protocol.csv	step37	6803	676.718	STIMULATE	46.9	46.6	46.6	46.7	46.8	37	503.277
497.394	0	497394	10/Lo	10001	1	0	1	0	1.0	0.0	1.0	0.0					568.6552972999634	574.0219266999047	574.0219266999047	1.0	['1', 'return']	[2.09774210001342, 3.186028699972667]	5.36	6.19	1.0	10hz	low_pain	46.7				sub-052	250	52	46.7	47.8	COM5	COM15	COM3	2024-12-09_13h20.06.542	001-EEG_SVR_Officel	2022.2.5	238.77460849588877		6.192000000000007	0_sub-pilot052_SVR_EEG_block1-2.protocol.csv	step37	6803	676.718	STIMULATE	46.9	46.6	46.6	46.7	46.8	37	503.277
506.66	0	506660	wait	10005	1	0	1	0	2.0	0.0	2.0	0.0					590.2217025000136	598.138496199972	598.138496199972	2.0	['2', 'return']	[1.932973499991931, 2.9328081000130624]	7.91	5.31	2.0	controle	low_pain	46.7				sub-052	250	52	46.7	47.8	COM5	COM15	COM3	2024-12-09_13h20.06.542	001-EEG_SVR_Officel	2022.2.5	238.77460849588877		10.01600000000002	0_sub-pilot052_SVR_EEG_block1-2.protocol.csv	step39	7037	699.93	STIMULATE	46.7	46.6	46.7	46.7	46.8	39	526.489
514.569	0	514568	CNhz	10004	1	0	1	0	2.0	0.0	2.0	0.0					590.2217025000136	598.138496199972	598.138496199972	2.0	['2', 'return']	[1.932973499991931, 2.9328081000130624]	7.91	5.31	2.0	controle	low_pain	46.7				sub-052	250	52	46.7	47.8	COM5	COM15	COM3	2024-12-09_13h20.06.542	001-EEG_SVR_Officel	2022.2.5	238.77460849588877		7.908999999999935	0_sub-pilot052_SVR_EEG_block1-2.protocol.csv	step39	7037	699.93	STIMULATE	46.7	46.6	46.7	46.7	46.8	39	526.489
520.631	0	520631	CN/Lo	10001	1	0	1	0	2.0	0.0	2.0	0.0					590.2217025000136	598.138496199972	598.138496199972	2.0	['2', 'return']	[1.932973499991931, 2.9328081000130624]	7.91	5.31	2.0	controle	low_pain	46.7				sub-052	250	52	46.7	47.8	COM5	COM15	COM3	2024-12-09_13h20.06.542	001-EEG_SVR_Officel	2022.2.5	238.77460849588877		5.312000000000012	0_sub-pilot052_SVR_EEG_block1-2.protocol.csv	step39	7037	699.93	STIMULATE	46.7	46.6	46.7	46.7	46.8	39	526.489
530.523	0	530523	wait	10005	1	0	1	0	3.0	0.0	3.0	0.0					614.0841400999343	619.7175687999697	619.7175687999697	6.0	['6', 'return']	[2.169616400031373, 3.1873651000205427]	5.63	5.89	3.0	40hz	high_pain	47.8				sub-052	250	52	46.7	47.8	COM5	COM15	COM3	2024-12-09_13h20.06.542	001-EEG_SVR_Officel	2022.2.5	238.77460849588877		10.642000000000053	0_sub-pilot052_SVR_EEG_block1-2.protocol.csv	step41	7260	722.084	STIMULATE	47.8	47.8	47.8	47.8	47.8	41	548.643
536.148	0	536148	40hz	10004	1	0	1	0	3.0	0.0	3.0	0.0					614.0841400999343	619.7175687999697	619.7175687999697	6.0	['6', 'return']	[2.169616400031373, 3.1873651000205427]	5.63	5.89	3.0	40hz	high_pain	47.8				sub-052	250	52	46.7	47.8	COM5	COM15	COM3	2024-12-09_13h20.06.542	001-EEG_SVR_Officel	2022.2.5	238.77460849588877		5.625	0_sub-pilot052_SVR_EEG_block1-2.protocol.csv	step41	7260	722.084	STIMULATE	47.8	47.8	47.8	47.8	47.8	41	548.643
542.789	0	542789	40/Hi	10001	1	0	1	0	3.0	0.0	3.0	0.0					614.0841400999343	619.7175687999697	619.7175687999697	6.0	['6', 'return']	[2.169616400031373, 3.1873651000205427]	5.63	5.89	3.0	40hz	high_pain	47.8				sub-052	250	52	46.7	47.8	COM5	COM15	COM3	2024-12-09_13h20.06.542	001-EEG_SVR_Officel	2022.2.5	238.77460849588877		5.890999999999963	0_sub-pilot052_SVR_EEG_block1-2.protocol.csv	step41	7260	722.084	STIMULATE	47.8	47.8	47.8	47.8	47.8	41	548.643
552.356	0	552356	wait	10005	1	0	1	0	4.0	0.0	4.0	0.0					635.9171888999408	643.5469970999984	643.5469970999984	3.0	['3', 'return']	[1.985039700055495, 3.578263400006108]	7.62	5.55	0.0	controle	low_pain	46.7				sub-052	250	52	46.7	47.8	COM5	COM15	COM3	2024-12-09_13h20.06.542	001-EEG_SVR_Officel	2022.2.5	238.77460849588877		10.317000000000007	0_sub-pilot052_SVR_EEG_block1-2.protocol.csv	step43	7498	745.636	STIMULATE	46.9	46.6	46.6	46.7	46.8	43	572.1949999999999
559.973	0	559973	CNhz	10004	1	0	1	0	4.0	0.0	4.0	0.0					635.9171888999408	643.5469970999984	643.5469970999984	3.0	['3', 'return']	[1.985039700055495, 3.578263400006108]	7.62	5.55	0.0	controle	low_pain	46.7				sub-052	250	52	46.7	47.8	COM5	COM15	COM3	2024-12-09_13h20.06.542	001-EEG_SVR_Officel	2022.2.5	238.77460849588877		7.616999999999962	0_sub-pilot052_SVR_EEG_block1-2.protocol.csv	step43	7498	745.636	STIMULATE	46.9	46.6	46.6	46.7	46.8	43	572.1949999999999
566.276	0	566276	CN/Lo	10001	1	0	1	0	4.0	0.0	4.0	0.0					635.9171888999408	643.5469970999984	643.5469970999984	3.0	['3', 'return']	[1.985039700055495, 3.578263400006108]	7.62	5.55	0.0	controle	low_pain	46.7				sub-052	250	52	46.7	47.8	COM5	COM15	COM3	2024-12-09_13h20.06.542	001-EEG_SVR_Officel	2022.2.5	238.77460849588877		5.552999999999997	0_sub-pilot052_SVR_EEG_block1-2.protocol.csv	step43	7498	745.636	STIMULATE	46.9	46.6	46.6	46.7	46.8	43	572.1949999999999
576.572	0	576572	wait	10005	1	0	1	0	5.0	0.0	5.0	0.0					660.1336400000146	667.3169272999512	667.3169272999512	7.0	['7', 'return']	[1.7221351000480354, 2.5875034000491723]	7.18	6.4	1.0	40hz	high_pain	47.8				sub-052	250	52	46.7	47.8	COM5	COM15	COM3	2024-12-09_13h20.06.542	001-EEG_SVR_Officel	2022.2.5	238.77460849588877		11.04600000000005	0_sub-pilot052_SVR_EEG_block1-2.protocol.csv	step45	7744	770.191	STIMULATE	48.0	47.7	47.8	47.7	47.9	45	596.75
583.747	0	583747	40hz	10004	1	0	1	0	5.0	0.0	5.0	0.0					660.1336400000146	667.3169272999512	667.3169272999512	7.0	['7', 'return']	[1.7221351000480354, 2.5875034000491723]	7.18	6.4	1.0	40hz	high_pain	47.8				sub-052	250	52	46.7	47.8	COM5	COM15	COM3	2024-12-09_13h20.06.542	001-EEG_SVR_Officel	2022.2.5	238.77460849588877		7.1749999999999545	0_sub-pilot052_SVR_EEG_block1-2.protocol.csv	step45	7744	770.191	STIMULATE	48.0	47.7	47.8	47.7	47.9	45	596.75
590.897	0	590897	40/Hi	10001	1	0	1	0	5.0	0.0	5.0	0.0					660.1336400000146	667.3169272999512	667.3169272999512	7.0	['7', 'return']	[1.7221351000480354, 2.5875034000491723]	7.18	6.4	1.0	40hz	high_pain	47.8				sub-052	250	52	46.7	47.8	COM5	COM15	COM3	2024-12-09_13h20.06.542	001-EEG_SVR_Officel	2022.2.5	238.77460849588877		6.400000000000091	0_sub-pilot052_SVR_EEG_block1-2.protocol.csv	step45	7744	770.191	STIMULATE	48.0	47.7	47.8	47.7	47.9	45	596.75
599.359	0	599359	wait	10005	1	0	1	0	6.0	0.0	6.0	0.0					682.9209420999978	690.7382589000044	690.7382589000044	7.0	['7', 'return']	[2.158349100034684, 3.0867687000427395]	7.81	5.17	2.0	40hz	high_pain	47.8				sub-052	250	52	46.7	47.8	COM5	COM15	COM3	2024-12-09_13h20.06.542	001-EEG_SVR_Officel	2022.2.5	238.77460849588877		9.211999999999989	0_sub-pilot052_SVR_EEG_block1-2.protocol.csv	step47	7963	792.367	STIMULATE	47.8	47.8	47.8	47.8	47.8	47	618.9259999999999
607.168	0	607168	40hz	10004	1	0	1	0	6.0	0.0	6.0	0.0					682.9209420999978	690.7382589000044	690.7382589000044	7.0	['7', 'return']	[2.158349100034684, 3.0867687000427395]	7.81	5.17	2.0	40hz	high_pain	47.8				sub-052	250	52	46.7	47.8	COM5	COM15	COM3	2024-12-09_13h20.06.542	001-EEG_SVR_Officel	2022.2.5	238.77460849588877		7.808999999999969	0_sub-pilot052_SVR_EEG_block1-2.protocol.csv	step47	7963	792.367	STIMULATE	47.8	47.8	47.8	47.8	47.8	47	618.9259999999999
613.089	0	613089	40/Hi	10001	1	0	1	0	6.0	0.0	6.0	0.0					682.9209420999978	690.7382589000044	690.7382589000044	7.0	['7', 'return']	[2.158349100034684, 3.0867687000427395]	7.81	5.17	2.0	40hz	high_pain	47.8				sub-052	250	52	46.7	47.8	COM5	COM15	COM3	2024-12-09_13h20.06.542	001-EEG_SVR_Officel	2022.2.5	238.77460849588877		5.171000000000049	0_sub-pilot052_SVR_EEG_block1-2.protocol.csv	step47	7963	792.367	STIMULATE	47.8	47.8	47.8	47.8	47.8	47	618.9259999999999
623.276	0	623276	wait	10005	1	0	1	0	7.0	0.0	7.0	0.0					706.8374208000023	714.6339770999039	714.6339770999039	7.0	['7', 'return']	[1.7475643999641761, 2.7720260999631137]	7.79	5.94	3.0	40hz	low_pain	46.7				sub-052	250	52	46.7	47.8	COM5	COM15	COM3	2024-12-09_13h20.06.542	001-EEG_SVR_Officel	2022.2.5	238.77460849588877		10.936999999999898	0_sub-pilot052_SVR_EEG_block1-2.protocol.csv	step49	8203	817.097	STIMULATE	46.7	46.7	46.7	46.6	46.7	49	643.656
631.064	0	631064	40hz	10004	1	0	1	0	7.0	0.0	7.0	0.0					706.8374208000023	714.6339770999039	714.6339770999039	7.0	['7', 'return']	[1.7475643999641761, 2.7720260999631137]	7.79	5.94	3.0	40hz	low_pain	46.7				sub-052	250	52	46.7	47.8	COM5	COM15	COM3	2024-12-09_13h20.06.542	001-EEG_SVR_Officel	2022.2.5	238.77460849588877		7.788000000000011	0_sub-pilot052_SVR_EEG_block1-2.protocol.csv	step49	8203	817.097	STIMULATE	46.7	46.7	46.7	46.6	46.7	49	643.656
637.756	0	637756	40/Lo	10001	1	0	1	0	7.0	0.0	7.0	0.0					706.8374208000023	714.6339770999039	714.6339770999039	7.0	['7', 'return']	[1.7475643999641761, 2.7720260999631137]	7.79	5.94	3.0	40hz	low_pain	46.7				sub-052	250	52	46.7	47.8	COM5	COM15	COM3	2024-12-09_13h20.06.542	001-EEG_SVR_Officel	2022.2.5	238.77460849588877		5.942000000000007	0_sub-pilot052_SVR_EEG_block1-2.protocol.csv	step49	8203	817.097	STIMULATE	46.7	46.7	46.7	46.6	46.7	49	643.656
646.859	0	646859	wait	10005	1	0	1	0	8.0	0.0	8.0	0.0					730.420543699991	735.5332568999147	735.5332568999147	6.0	['6', 'return']	[2.067053399980068, 2.978342500049621]	5.11	5.56	0.0	20hz	high_pain	47.8				sub-052	250	52	46.7	47.8	COM5	COM15	COM3	2024-12-09_13h20.06.542	001-EEG_SVR_Officel	2022.2.5	238.77460849588877		9.853000000000065	0_sub-pilot052_SVR_EEG_block1-2.protocol.csv	step51	8400	837.615	STIMULATE	48.0	47.8	47.7	47.8	47.9	51	664.174
651.964	0	651964	20hz	10004	1	0	1	0	8.0	0.0	8.0	0.0					730.420543699991	735.5332568999147	735.5332568999147	6.0	['6', 'return']	[2.067053399980068, 2.978342500049621]	5.11	5.56	0.0	20hz	high_pain	47.8				sub-052	250	52	46.7	47.8	COM5	COM15	COM3	2024-12-09_13h20.06.542	001-EEG_SVR_Officel	2022.2.5	238.77460849588877		5.105000000000018	0_sub-pilot052_SVR_EEG_block1-2.protocol.csv	step51	8400	837.615	STIMULATE	48.0	47.8	47.7	47.8	47.9	51	664.174
658.276	0	658276	20/Hi	10001	1	0	1	0	8.0	0.0	8.0	0.0					730.420543699991	735.5332568999147	735.5332568999147	6.0	['6', 'return']	[2.067053399980068, 2.978342500049621]	5.11	5.56	0.0	20hz	high_pain	47.8				sub-052	250	52	46.7	47.8	COM5	COM15	COM3	2024-12-09_13h20.06.542	001-EEG_SVR_Officel	2022.2.5	238.77460849588877		5.561999999999898	0_sub-pilot052_SVR_EEG_block1-2.protocol.csv	step51	8400	837.615	STIMULATE	48.0	47.8	47.7	47.8	47.9	51	664.174
667.968	0	667968	wait	10005	1	0	1	0	9.0	0.0	9.0	0.0					751.5296830999432	757.6538810000056	757.6538810000056	6.0	['6', 'return']	[1.1621262999251485, 2.1067677999380976]	6.12	5.12	1.0	controle	low_pain	46.7				sub-052	250	52	46.7	47.8	COM5	COM15	COM3	2024-12-09_13h20.06.542	001-EEG_SVR_Officel	2022.2.5	238.77460849588877		10.442000000000007	0_sub-pilot052_SVR_EEG_block1-2.protocol.csv	step53	8607	859.346	STIMULATE	46.9	46.6	46.7	46.7	46.7	53	685.905
674.085	0	674085	CNhz	10004	1	0	1	0	9.0	0.0	9.0	0.0					751.5296830999432	757.6538810000056	757.6538810000056	6.0	['6', 'return']	[1.1621262999251485, 2.1067677999380976]	6.12	5.12	1.0	controle	low_pain	46.7				sub-052	250	52	46.7	47.8	COM5	COM15	COM3	2024-12-09_13h20.06.542	001-EEG_SVR_Officel	2022.2.5	238.77460849588877		6.1170000000000755	0_sub-pilot052_SVR_EEG_block1-2.protocol.csv	step53	8607	859.346	STIMULATE	46.9	46.6	46.7	46.7	46.7	53	685.905
679.959	0	679959	CN/Lo	10001	1	0	1	0	9.0	0.0	9.0	0.0					751.5296830999432	757.6538810000056	757.6538810000056	6.0	['6', 'return']	[1.1621262999251485, 2.1067677999380976]	6.12	5.12	1.0	controle	low_pain	46.7				sub-052	250	52	46.7	47.8	COM5	COM15	COM3	2024-12-09_13h20.06.542	001-EEG_SVR_Officel	2022.2.5	238.77460849588877		5.12399999999991	0_sub-pilot052_SVR_EEG_block1-2.protocol.csv	step53	8607	859.346	STIMULATE	46.9	46.6	46.7	46.7	46.7	53	685.905
689.213	0	689213	wait	10005	1	0	1	0	10.0	0.0	10.0	0.0					772.7743448999245	777.9784729999956	777.9784729999956	5.0	['5', 'return']	[2.9414412999758497, 4.037021200056188]	5.2	6.28	2.0	20hz	high_pain	47.8				sub-052	250	52	46.7	47.8	COM5	COM15	COM3	2024-12-09_13h20.06.542	001-EEG_SVR_Officel	2022.2.5	238.77460849588877		10.004000000000019	0_sub-pilot052_SVR_EEG_block1-2.protocol.csv	step55	8809	880.697	STIMULATE	47.8	47.8	47.8	47.8	47.9	55	707.2560000000001
694.409	0	694409	20hz	10004	1	0	1	0	10.0	0.0	10.0	0.0					772.7743448999245	777.9784729999956	777.9784729999956	5.0	['5', 'return']	[2.9414412999758497, 4.037021200056188]	5.2	6.28	2.0	20hz	high_pain	47.8				sub-052	250	52	46.7	47.8	COM5	COM15	COM3	2024-12-09_13h20.06.542	001-EEG_SVR_Officel	2022.2.5	238.77460849588877		5.196000000000026	0_sub-pilot052_SVR_EEG_block1-2.protocol.csv	step55	8809	880.697	STIMULATE	47.8	47.8	47.8	47.8	47.9	55	707.2560000000001
701.442	0	701442	20/Hi	10001	1	0	1	0	10.0	0.0	10.0	0.0					772.7743448999245	777.9784729999956	777.9784729999956	5.0	['5', 'return']	[2.9414412999758497, 4.037021200056188]	5.2	6.28	2.0	20hz	high_pain	47.8				sub-052	250	52	46.7	47.8	COM5	COM15	COM3	2024-12-09_13h20.06.542	001-EEG_SVR_Officel	2022.2.5	238.77460849588877		6.2830000000000155	0_sub-pilot052_SVR_EEG_block1-2.protocol.csv	step55	8809	880.697	STIMULATE	47.8	47.8	47.8	47.8	47.9	55	707.2560000000001
711.467	0	711467	wait	10005	1	0	1	0	11.0	0.0	11.0	0.0					795.0282965999795	801.1240475999657	801.1240475999657	3.0	['3', 'return']	[3.178984999889508, 4.108002699911594]	6.09	6.41	3.0	20hz	low_pain	46.7				sub-052	250	52	46.7	47.8	COM5	COM15	COM3	2024-12-09_13h20.06.542	001-EEG_SVR_Officel	2022.2.5	238.77460849588877		10.774999999999977	0_sub-pilot052_SVR_EEG_block1-2.protocol.csv	step57	9028	904.063	STIMULATE	46.7	46.6	46.7	46.7	46.7	57	730.6220000000001
717.554	0	717554	20hz	10004	1	0	1	0	11.0	0.0	11.0	0.0					795.0282965999795	801.1240475999657	801.1240475999657	3.0	['3', 'return']	[3.178984999889508, 4.108002699911594]	6.09	6.41	3.0	20hz	low_pain	46.7				sub-052	250	52	46.7	47.8	COM5	COM15	COM3	2024-12-09_13h20.06.542	001-EEG_SVR_Officel	2022.2.5	238.77460849588877		6.086999999999989	0_sub-pilot052_SVR_EEG_block1-2.protocol.csv	step57	9028	904.063	STIMULATE	46.7	46.6	46.7	46.7	46.7	57	730.6220000000001
724.717	0	724717	20/Lo	10001	1	0	1	0	11.0	0.0	11.0	0.0					795.0282965999795	801.1240475999657	801.1240475999657	3.0	['3', 'return']	[3.178984999889508, 4.108002699911594]	6.09	6.41	3.0	20hz	low_pain	46.7				sub-052	250	52	46.7	47.8	COM5	COM15	COM3	2024-12-09_13h20.06.542	001-EEG_SVR_Officel	2022.2.5	238.77460849588877		6.413000000000011	0_sub-pilot052_SVR_EEG_block1-2.protocol.csv	step57	9028	904.063	STIMULATE	46.7	46.6	46.7	46.7	46.7	57	730.6220000000001
734.683	0	734683	wait	10005	1	0	1	0	12.0	0.0	12.0	0.0					818.2447885000147	823.5697148999898	823.5697148999898	4.0	['4', 'return']	[2.1899097999557853, 3.1749314999906346]	5.32	5.45	0.0	10hz	low_pain	46.7				sub-052	250	52	46.7	47.8	COM5	COM15	COM3	2024-12-09_13h20.06.542	001-EEG_SVR_Officel	2022.2.5	238.77460849588877		10.716000000000008	0_sub-pilot052_SVR_EEG_block1-2.protocol.csv	step59	9227	925.496	STIMULATE	46.9	46.6	46.6	46.7	46.9	59	752.0550000000001
740.0	0	740000	10hz	10004	1	0	1	0	12.0	0.0	12.0	0.0					818.2447885000147	823.5697148999898	823.5697148999898	4.0	['4', 'return']	[2.1899097999557853, 3.1749314999906346]	5.32	5.45	0.0	10hz	low_pain	46.7				sub-052	250	52	46.7	47.8	COM5	COM15	COM3	2024-12-09_13h20.06.542	001-EEG_SVR_Officel	2022.2.5	238.77460849588877		5.317000000000007	0_sub-pilot052_SVR_EEG_block1-2.protocol.csv	step59	9227	925.496	STIMULATE	46.9	46.6	46.6	46.7	46.9	59	752.0550000000001
746.204	0	746204	10/Lo	10001	1	0	1	0	12.0	0.0	12.0	0.0					818.2447885000147	823.5697148999898	823.5697148999898	4.0	['4', 'return']	[2.1899097999557853, 3.1749314999906346]	5.32	5.45	0.0	10hz	low_pain	46.7				sub-052	250	52	46.7	47.8	COM5	COM15	COM3	2024-12-09_13h20.06.542	001-EEG_SVR_Officel	2022.2.5	238.77460849588877		5.453999999999951	0_sub-pilot052_SVR_EEG_block1-2.protocol.csv	step59	9227	925.496	STIMULATE	46.9	46.6	46.6	46.7	46.9	59	752.0550000000001
756.205	0	756205	wait	10005	1	0	1	0	13.0	0.0	13.0	0.0					839.7665299999062	846.216708999942	846.216708999942	8.0	['8', 'return']	[1.8372632999671623, 2.7088353999424726]	6.44	5.98	1.0	20hz	high_pain	47.8				sub-052	250	52	46.7	47.8	COM5	COM15	COM3	2024-12-09_13h20.06.542	001-EEG_SVR_Officel	2022.2.5	238.77460849588877		10.75100000000009	0_sub-pilot052_SVR_EEG_block1-2.protocol.csv	step61	9441	948.691	STIMULATE	47.8	47.8	47.8	47.8	48.0	61	775.25
762.643	0	762643	20hz	10004	1	0	1	0	13.0	0.0	13.0	0.0					839.7665299999062	846.216708999942	846.216708999942	8.0	['8', 'return']	[1.8372632999671623, 2.7088353999424726]	6.44	5.98	1.0	20hz	high_pain	47.8				sub-052	250	52	46.7	47.8	COM5	COM15	COM3	2024-12-09_13h20.06.542	001-EEG_SVR_Officel	2022.2.5	238.77460849588877		6.437999999999988	0_sub-pilot052_SVR_EEG_block1-2.protocol.csv	step61	9441	948.691	STIMULATE	47.8	47.8	47.8	47.8	48.0	61	775.25
769.376	0	769376	20/Hi	10001	1	0	1	0	13.0	0.0	13.0	0.0					839.7665299999062	846.216708999942	846.216708999942	8.0	['8', 'return']	[1.8372632999671623, 2.7088353999424726]	6.44	5.98	1.0	20hz	high_pain	47.8				sub-052	250	52	46.7	47.8	COM5	COM15	COM3	2024-12-09_13h20.06.542	001-EEG_SVR_Officel	2022.2.5	238.77460849588877		5.982999999999947	0_sub-pilot052_SVR_EEG_block1-2.protocol.csv	step61	9441	948.691	STIMULATE	47.8	47.8	47.8	47.8	48.0	61	775.25
778.37	0	778370	wait	10005	1	0	1	0	14.0	0.0	14.0	0.0					861.9314134999877	867.7277083999943	867.7277083999943	7.0	['7', 'return']	[1.7594037000089884, 2.6328868999844417]	5.79	5.74	2.0	20hz	low_pain	46.7				sub-052	250	52	46.7	47.8	COM5	COM15	COM3	2024-12-09_13h20.06.542	001-EEG_SVR_Officel	2022.2.5	238.77460849588877		9.744000000000028	0_sub-pilot052_SVR_EEG_block1-2.protocol.csv	step63	9636	969.991	STIMULATE	46.7	46.6	46.7	46.7	46.9	63	796.55
784.158	0	784158	20hz	10004	1	0	1	0	14.0	0.0	14.0	0.0					861.9314134999877	867.7277083999943	867.7277083999943	7.0	['7', 'return']	[1.7594037000089884, 2.6328868999844417]	5.79	5.74	2.0	20hz	low_pain	46.7				sub-052	250	52	46.7	47.8	COM5	COM15	COM3	2024-12-09_13h20.06.542	001-EEG_SVR_Officel	2022.2.5	238.77460849588877		5.788000000000011	0_sub-pilot052_SVR_EEG_block1-2.protocol.csv	step63	9636	969.991	STIMULATE	46.7	46.6	46.7	46.7	46.9	63	796.55
790.649	0	790649	20/Lo	10001	1	0	1	0	14.0	0.0	14.0	0.0					861.9314134999877	867.7277083999943	867.7277083999943	7.0	['7', 'return']	[1.7594037000089884, 2.6328868999844417]	5.79	5.74	2.0	20hz	low_pain	46.7				sub-052	250	52	46.7	47.8	COM5	COM15	COM3	2024-12-09_13h20.06.542	001-EEG_SVR_Officel	2022.2.5	238.77460849588877		5.7409999999999854	0_sub-pilot052_SVR_EEG_block1-2.protocol.csv	step63	9636	969.991	STIMULATE	46.7	46.6	46.7	46.7	46.9	63	796.55
799.812	0	799812	wait	10005	1	0	1	0	15.0	0.0	15.0	0.0					883.3733665999025	888.6193956999341	888.6193956999341	7.0	['7', 'return']	[2.845012200064957, 3.7889530000975356]	5.24	5.09	3.0	controle	high_pain	47.8				sub-052	250	52	46.7	47.8	COM5	COM15	COM3	2024-12-09_13h20.06.542	001-EEG_SVR_Officel	2022.2.5	238.77460849588877		9.913000000000011	0_sub-pilot052_SVR_EEG_block1-2.protocol.csv	step65	9819	990.188	STIMULATE	47.8	47.8	47.8	47.8	47.9	65	816.7470000000001
805.05	0	805050	CNhz	10004	1	0	1	0	15.0	0.0	15.0	0.0					883.3733665999025	888.6193956999341	888.6193956999341	7.0	['7', 'return']	[2.845012200064957, 3.7889530000975356]	5.24	5.09	3.0	controle	high_pain	47.8				sub-052	250	52	46.7	47.8	COM5	COM15	COM3	2024-12-09_13h20.06.542	001-EEG_SVR_Officel	2022.2.5	238.77460849588877		5.237999999999943	0_sub-pilot052_SVR_EEG_block1-2.protocol.csv	step65	9819	990.188	STIMULATE	47.8	47.8	47.8	47.8	47.9	65	816.7470000000001
810.891	0	810891	CN/Hi	10001	1	0	1	0	15.0	0.0	15.0	0.0					883.3733665999025	888.6193956999341	888.6193956999341	7.0	['7', 'return']	[2.845012200064957, 3.7889530000975356]	5.24	5.09	3.0	controle	high_pain	47.8				sub-052	250	52	46.7	47.8	COM5	COM15	COM3	2024-12-09_13h20.06.542	001-EEG_SVR_Officel	2022.2.5	238.77460849588877		5.091000000000008	0_sub-pilot052_SVR_EEG_block1-2.protocol.csv	step65	9819	990.188	STIMULATE	47.8	47.8	47.8	47.8	47.9	65	816.7470000000001
875.86	0	875860	wait	10005	2	0	2	0	0.0	0.0	0.0	0.0			p	1.7220094999065625	1054.8343850999372	1060.0931975999847	1060.0931975999847	5.0	['5', 'return']	[1.8911768000107259, 2.747899900074117]	5.25	5.11	0.0	20hz	low_pain	46.7				sub-052	250	52	46.7	47.8	COM5	COM15	COM3	2024-12-09_13h20.06.542	001-EEG_SVR_Officel	2022.2.5	238.77460849588877		65.71900000000005	1_sub-pilot052_SVR_EEG_block3-4.protocol.csv	step3	1451	144.929	STIMULATE	47.0	46.9	46.6	46.6	46.6	3	892.812
881.111	0	881111	20hz	10004	2	0	2	0	0.0	0.0	0.0	0.0			p	1.7220094999065625	1054.8343850999372	1060.0931975999847	1060.0931975999847	5.0	['5', 'return']	[1.8911768000107259, 2.747899900074117]	5.25	5.11	0.0	20hz	low_pain	46.7				sub-052	250	52	46.7	47.8	COM5	COM15	COM3	2024-12-09_13h20.06.542	001-EEG_SVR_Officel	2022.2.5	238.77460849588877		5.250999999999976	1_sub-pilot052_SVR_EEG_block3-4.protocol.csv	step3	1451	144.929	STIMULATE	47.0	46.9	46.6	46.6	46.6	3	892.812
886.972	0	886972	20/Lo	10001	2	0	2	0	0.0	0.0	0.0	0.0			p	1.7220094999065625	1054.8343850999372	1060.0931975999847	1060.0931975999847	5.0	['5', 'return']	[1.8911768000107259, 2.747899900074117]	5.25	5.11	0.0	20hz	low_pain	46.7				sub-052	250	52	46.7	47.8	COM5	COM15	COM3	2024-12-09_13h20.06.542	001-EEG_SVR_Officel	2022.2.5	238.77460849588877		5.11099999999999	1_sub-pilot052_SVR_EEG_block3-4.protocol.csv	step3	1451	144.929	STIMULATE	47.0	46.9	46.6	46.6	46.6	3	892.812
896.88	0	896880	wait	10005	2	0	2	0	1.0	0.0	1.0	0.0					1075.855220499914	1081.5800329999763	1081.5800329999763	4.0	['4', 'return']	[1.9651795999379829, 3.091359499958344]	5.72	6.01	1.0	20hz	high_pain	47.8				sub-052	250	52	46.7	47.8	COM5	COM15	COM3	2024-12-09_13h20.06.542	001-EEG_SVR_Officel	2022.2.5	238.77460849588877		10.658000000000015	1_sub-pilot052_SVR_EEG_block3-4.protocol.csv	step5	1677	167.339	STIMULATE	48.1	47.8	47.8	47.8	48.0	5	915.222
902.597	0	902597	20hz	10004	2	0	2	0	1.0	0.0	1.0	0.0					1075.855220499914	1081.5800329999763	1081.5800329999763	4.0	['4', 'return']	[1.9651795999379829, 3.091359499958344]	5.72	6.01	1.0	20hz	high_pain	47.8				sub-052	250	52	46.7	47.8	COM5	COM15	COM3	2024-12-09_13h20.06.542	001-EEG_SVR_Officel	2022.2.5	238.77460849588877		5.7169999999999845	1_sub-pilot052_SVR_EEG_block3-4.protocol.csv	step5	1677	167.339	STIMULATE	48.1	47.8	47.8	47.8	48.0	5	915.222
909.359	0	909359	20/Hi	10001	2	0	2	0	1.0	0.0	1.0	0.0					1075.855220499914	1081.5800329999763	1081.5800329999763	4.0	['4', 'return']	[1.9651795999379829, 3.091359499958344]	5.72	6.01	1.0	20hz	high_pain	47.8				sub-052	250	52	46.7	47.8	COM5	COM15	COM3	2024-12-09_13h20.06.542	001-EEG_SVR_Officel	2022.2.5	238.77460849588877		6.012000000000057	1_sub-pilot052_SVR_EEG_block3-4.protocol.csv	step5	1677	167.339	STIMULATE	48.1	47.8	47.8	47.8	48.0	5	915.222
918.709	0	918709	wait	10005	2	0	2	0	2.0	0.0	2.0	0.0					1097.6841568999223	1104.3555890999269	1104.3555890999269	4.0	['4', 'return']	[2.4927360999863595, 3.4212978000286967]	6.66	5.46	2.0	10hz	low_pain	46.7				sub-052	250	52	46.7	47.8	COM5	COM15	COM3	2024-12-09_13h20.06.542	001-EEG_SVR_Officel	2022.2.5	238.77460849588877		10.099999999999909	1_sub-pilot052_SVR_EEG_block3-4.protocol.csv	step7	1901	189.576	STIMULATE	46.7	46.6	46.7	46.7	46.8	7	937.459
925.373	0	925373	10hz	10004	2	0	2	0	2.0	0.0	2.0	0.0					1097.6841568999223	1104.3555890999269	1104.3555890999269	4.0	['4', 'return']	[2.4927360999863595, 3.4212978000286967]	6.66	5.46	2.0	10hz	low_pain	46.7				sub-052	250	52	46.7	47.8	COM5	COM15	COM3	2024-12-09_13h20.06.542	001-EEG_SVR_Officel	2022.2.5	238.77460849588877		6.664000000000101	1_sub-pilot052_SVR_EEG_block3-4.protocol.csv	step7	1901	189.576	STIMULATE	46.7	46.6	46.7	46.7	46.8	7	937.459
931.584	0	931584	10/Lo	10001	2	0	2	0	2.0	0.0	2.0	0.0					1097.6841568999223	1104.3555890999269	1104.3555890999269	4.0	['4', 'return']	[2.4927360999863595, 3.4212978000286967]	6.66	5.46	2.0	10hz	low_pain	46.7				sub-052	250	52	46.7	47.8	COM5	COM15	COM3	2024-12-09_13h20.06.542	001-EEG_SVR_Officel	2022.2.5	238.77460849588877		5.460999999999899	1_sub-pilot052_SVR_EEG_block3-4.protocol.csv	step7	1901	189.576	STIMULATE	46.7	46.6	46.7	46.7	46.8	7	937.459
941.813	0	941813	wait	10005	2	0	2	0	3.0	0.0	3.0	0.0					1120.7875158999814	1126.754078899976	1126.754078899976	3.0	['3', 'return']	[2.685209200019017, 3.430162900011055]	5.96	5.2	3.0	40hz	low_pain	46.7				sub-052	250	52	46.7	47.8	COM5	COM15	COM3	2024-12-09_13h20.06.542	001-EEG_SVR_Officel	2022.2.5	238.77460849588877		10.979000000000042	1_sub-pilot052_SVR_EEG_block3-4.protocol.csv	step9	2125	211.719	STIMULATE	46.7	46.7	46.6	46.7	46.7	9	959.602
947.772	0	947772	40hz	10004	2	0	2	0	3.0	0.0	3.0	0.0					1120.7875158999814	1126.754078899976	1126.754078899976	3.0	['3', 'return']	[2.685209200019017, 3.430162900011055]	5.96	5.2	3.0	40hz	low_pain	46.7				sub-052	250	52	46.7	47.8	COM5	COM15	COM3	2024-12-09_13h20.06.542	001-EEG_SVR_Officel	2022.2.5	238.77460849588877		5.95900000000006	1_sub-pilot052_SVR_EEG_block3-4.protocol.csv	step9	2125	211.719	STIMULATE	46.7	46.7	46.6	46.7	46.7	9	959.602
953.726	0	953726	40/Lo	10001	2	0	2	0	3.0	0.0	3.0	0.0					1120.7875158999814	1126.754078899976	1126.754078899976	3.0	['3', 'return']	[2.685209200019017, 3.430162900011055]	5.96	5.2	3.0	40hz	low_pain	46.7				sub-052	250	52	46.7	47.8	COM5	COM15	COM3	2024-12-09_13h20.06.542	001-EEG_SVR_Officel	2022.2.5	238.77460849588877		5.203999999999951	1_sub-pilot052_SVR_EEG_block3-4.protocol.csv	step9	2125	211.719	STIMULATE	46.7	46.7	46.6	46.7	46.7	9	959.602
964.226	0	964226	wait	10005	2	0	2	0	4.0	0.0	4.0	0.0					1143.2009117999114	1149.654436499928	1149.654436499928	7.0	['7', 'return']	[3.5455483000259846, 4.226353600039147]	6.45	5.59	0.0	10hz	high_pain	47.8				sub-052	250	52	46.7	47.8	COM5	COM15	COM3	2024-12-09_13h20.06.542	001-EEG_SVR_Officel	2022.2.5	238.77460849588877		11.25	1_sub-pilot052_SVR_EEG_block3-4.protocol.csv	step11	2359	234.951	STIMULATE	47.9	47.7	47.7	47.8	48.1	11	982.834
970.671	0	970671	10hz	10004	2	0	2	0	4.0	0.0	4.0	0.0					1143.2009117999114	1149.654436499928	1149.654436499928	7.0	['7', 'return']	[3.5455483000259846, 4.226353600039147]	6.45	5.59	0.0	10hz	high_pain	47.8				sub-052	250	52	46.7	47.8	COM5	COM15	COM3	2024-12-09_13h20.06.542	001-EEG_SVR_Officel	2022.2.5	238.77460849588877		6.44500000000005	1_sub-pilot052_SVR_EEG_block3-4.protocol.csv	step11	2359	234.951	STIMULATE	47.9	47.7	47.7	47.8	48.1	11	982.834
977.013	0	977013	10/Hi	10001	2	0	2	0	4.0	0.0	4.0	0.0					1143.2009117999114	1149.654436499928	1149.654436499928	7.0	['7', 'return']	[3.5455483000259846, 4.226353600039147]	6.45	5.59	0.0	10hz	high_pain	47.8				sub-052	250	52	46.7	47.8	COM5	COM15	COM3	2024-12-09_13h20.06.542	001-EEG_SVR_Officel	2022.2.5	238.77460849588877		5.5919999999999845	1_sub-pilot052_SVR_EEG_block3-4.protocol.csv	step11	2359	234.951	STIMULATE	47.9	47.7	47.7	47.8	48.1	11	982.834
987.917	0	987917	wait	10005	2	0	2	0	5.0	0.0	5.0	0.0					1166.8913329999195	1173.487634599907	1173.487634599907	4.0	['4', 'return']	[2.840221800026484, 3.817393000004813]	6.59	6.25	1.0	controle	low_pain	46.7				sub-052	250	52	46.7	47.8	COM5	COM15	COM3	2024-12-09_13h20.06.542	001-EEG_SVR_Officel	2022.2.5	238.77460849588877		11.653999999999996	1_sub-pilot052_SVR_EEG_block3-4.protocol.csv	step13	2607	259.537	STIMULATE	46.8	46.7	46.7	46.6	46.7	13	1007.42
994.505	0	994505	CNhz	10004	2	0	2	0	5.0	0.0	5.0	0.0					1166.8913329999195	1173.487634599907	1173.487634599907	4.0	['4', 'return']	[2.840221800026484, 3.817393000004813]	6.59	6.25	1.0	controle	low_pain	46.7				sub-052	250	52	46.7	47.8	COM5	COM15	COM3	2024-12-09_13h20.06.542	001-EEG_SVR_Officel	2022.2.5	238.77460849588877		6.587999999999965	1_sub-pilot052_SVR_EEG_block3-4.protocol.csv	step13	2607	259.537	STIMULATE	46.8	46.7	46.7	46.6	46.7	13	1007.42
1001.509	0	1001509	CN/Lo	10001	2	0	2	0	5.0	0.0	5.0	0.0					1166.8913329999195	1173.487634599907	1173.487634599907	4.0	['4', 'return']	[2.840221800026484, 3.817393000004813]	6.59	6.25	1.0	controle	low_pain	46.7				sub-052	250	52	46.7	47.8	COM5	COM15	COM3	2024-12-09_13h20.06.542	001-EEG_SVR_Officel	2022.2.5	238.77460849588877		6.254000000000019	1_sub-pilot052_SVR_EEG_block3-4.protocol.csv	step13	2607	259.537	STIMULATE	46.8	46.7	46.7	46.6	46.7	13	1007.42
1011.346	0	1011346	wait	10005	2	0	2	0	6.0	0.0	6.0	0.0					1190.32078249997	1197.7377076999985	1197.7377076999985	7.0	['7', 'return']	[1.8380121999653056, 2.654597799992189]	7.41	5.63	2.0	40hz	low_pain	46.7				sub-052	250	52	46.7	47.8	COM5	COM15	COM3	2024-12-09_13h20.06.542	001-EEG_SVR_Officel	2022.2.5	238.77460849588877		10.586999999999989	1_sub-pilot052_SVR_EEG_block3-4.protocol.csv	step15	2845	283.151	STIMULATE	46.9	46.7	46.6	46.6	46.7	15	1031.034
1018.754	0	1018754	40hz	10004	2	0	2	0	6.0	0.0	6.0	0.0					1190.32078249997	1197.7377076999985	1197.7377076999985	7.0	['7', 'return']	[1.8380121999653056, 2.654597799992189]	7.41	5.63	2.0	40hz	low_pain	46.7				sub-052	250	52	46.7	47.8	COM5	COM15	COM3	2024-12-09_13h20.06.542	001-EEG_SVR_Officel	2022.2.5	238.77460849588877		7.4080000000000155	1_sub-pilot052_SVR_EEG_block3-4.protocol.csv	step15	2845	283.151	STIMULATE	46.9	46.7	46.6	46.6	46.7	15	1031.034
1025.138	0	1025137	40/Lo	10001	2	0	2	0	6.0	0.0	6.0	0.0					1190.32078249997	1197.7377076999985	1197.7377076999985	7.0	['7', 'return']	[1.8380121999653056, 2.654597799992189]	7.41	5.63	2.0	40hz	low_pain	46.7				sub-052	250	52	46.7	47.8	COM5	COM15	COM3	2024-12-09_13h20.06.542	001-EEG_SVR_Officel	2022.2.5	238.77460849588877		5.633999999999901	1_sub-pilot052_SVR_EEG_block3-4.protocol.csv	step15	2845	283.151	STIMULATE	46.9	46.7	46.6	46.6	46.7	15	1031.034
1034.433	0	1034433	wait	10005	2	0	2	0	7.0	0.0	7.0	0.0					1213.408160699997	1220.0338861999337	1220.0338861999337	5.0	['5', 'return']	[2.4701447000261396, 3.5043164000380784]	6.62	5.25	3.0	controle	high_pain	47.8				sub-052	250	52	46.7	47.8	COM5	COM15	COM3	2024-12-09_13h20.06.542	001-EEG_SVR_Officel	2022.2.5	238.77460849588877		10.045000000000073	1_sub-pilot052_SVR_EEG_block3-4.protocol.csv	step17	3066	305.047	STIMULATE	47.8	47.8	47.8	47.8	47.8	17	1052.93
1041.051	0	1041050	CNhz	10004	2	0	2	0	7.0	0.0	7.0	0.0					1213.408160699997	1220.0338861999337	1220.0338861999337	5.0	['5', 'return']	[2.4701447000261396, 3.5043164000380784]	6.62	5.25	3.0	controle	high_pain	47.8				sub-052	250	52	46.7	47.8	COM5	COM15	COM3	2024-12-09_13h20.06.542	001-EEG_SVR_Officel	2022.2.5	238.77460849588877		6.617999999999938	1_sub-pilot052_SVR_EEG_block3-4.protocol.csv	step17	3066	305.047	STIMULATE	47.8	47.8	47.8	47.8	47.8	17	1052.93
1047.054	0	1047054	CN/Hi	10001	2	0	2	0	7.0	0.0	7.0	0.0					1213.408160699997	1220.0338861999337	1220.0338861999337	5.0	['5', 'return']	[2.4701447000261396, 3.5043164000380784]	6.62	5.25	3.0	controle	high_pain	47.8				sub-052	250	52	46.7	47.8	COM5	COM15	COM3	2024-12-09_13h20.06.542	001-EEG_SVR_Officel	2022.2.5	238.77460849588877		5.253000000000156	1_sub-pilot052_SVR_EEG_block3-4.protocol.csv	step17	3066	305.047	STIMULATE	47.8	47.8	47.8	47.8	47.8	17	1052.93
1057.579	0	1057579	wait	10005	2	0	2	0	8.0	0.0	8.0	0.0					1236.5537033999572	1242.4369401999284	1242.4369401999284	4.0	['4', 'return']	[2.4584917000029236, 5.4591000999789685]	5.88	5.34	0.0	controle	low_pain	46.7				sub-052	250	52	46.7	47.8	COM5	COM15	COM3	2024-12-09_13h20.06.542	001-EEG_SVR_Officel	2022.2.5	238.77460849588877		11.274999999999864	1_sub-pilot052_SVR_EEG_block3-4.protocol.csv	step19	3293	327.581	STIMULATE	46.8	46.6	46.6	46.6	46.8	19	1075.464
1063.454	0	1063454	CNhz	10004	2	0	2	0	8.0	0.0	8.0	0.0					1236.5537033999572	1242.4369401999284	1242.4369401999284	4.0	['4', 'return']	[2.4584917000029236, 5.4591000999789685]	5.88	5.34	0.0	controle	low_pain	46.7				sub-052	250	52	46.7	47.8	COM5	COM15	COM3	2024-12-09_13h20.06.542	001-EEG_SVR_Officel	2022.2.5	238.77460849588877		5.875	1_sub-pilot052_SVR_EEG_block3-4.protocol.csv	step19	3293	327.581	STIMULATE	46.8	46.6	46.6	46.6	46.8	19	1075.464
1069.545	0	1069545	CN/Lo	10001	2	0	2	0	8.0	0.0	8.0	0.0					1236.5537033999572	1242.4369401999284	1242.4369401999284	4.0	['4', 'return']	[2.4584917000029236, 5.4591000999789685]	5.88	5.34	0.0	controle	low_pain	46.7				sub-052	250	52	46.7	47.8	COM5	COM15	COM3	2024-12-09_13h20.06.542	001-EEG_SVR_Officel	2022.2.5	238.77460849588877		5.341000000000122	1_sub-pilot052_SVR_EEG_block3-4.protocol.csv	step19	3293	327.581	STIMULATE	46.8	46.6	46.6	46.6	46.8	19	1075.464
1081.937	0	1081937	wait	10005	2	0	2	0	9.0	0.0	9.0	0.0					1260.9118230999447	1266.415946999914	1266.415946999914	3.0	['3', 'return']	[2.4877625999506563, 3.247614399995655]	5.5	6.24	1.0	10hz	high_pain	47.8				sub-052	250	52	46.7	47.8	COM5	COM15	COM3	2024-12-09_13h20.06.542	001-EEG_SVR_Officel	2022.2.5	238.77460849588877		13.141999999999825	1_sub-pilot052_SVR_EEG_block3-4.protocol.csv	step21	3544	352.447	STIMULATE	48.1	47.8	47.8	47.8	47.8	21	1100.33
1087.433	0	1087433	10hz	10004	2	0	2	0	9.0	0.0	9.0	0.0					1260.9118230999447	1266.415946999914	1266.415946999914	3.0	['3', 'return']	[2.4877625999506563, 3.247614399995655]	5.5	6.24	1.0	10hz	high_pain	47.8				sub-052	250	52	46.7	47.8	COM5	COM15	COM3	2024-12-09_13h20.06.542	001-EEG_SVR_Officel	2022.2.5	238.77460849588877		5.496000000000095	1_sub-pilot052_SVR_EEG_block3-4.protocol.csv	step21	3544	352.447	STIMULATE	48.1	47.8	47.8	47.8	47.8	21	1100.33
1094.424	0	1094424	10/Hi	10001	2	0	2	0	9.0	0.0	9.0	0.0					1260.9118230999447	1266.415946999914	1266.415946999914	3.0	['3', 'return']	[2.4877625999506563, 3.247614399995655]	5.5	6.24	1.0	10hz	high_pain	47.8				sub-052	250	52	46.7	47.8	COM5	COM15	COM3	2024-12-09_13h20.06.542	001-EEG_SVR_Officel	2022.2.5	238.77460849588877		6.2409999999999854	1_sub-pilot052_SVR_EEG_block3-4.protocol.csv	step21	3544	352.447	STIMULATE	48.1	47.8	47.8	47.8	47.8	21	1100.33
1103.704	0	1103704	wait	10005	2	0	2	0	10.0	0.0	10.0	0.0					1282.678312700009	1290.2741222999755	1290.2741222999755	4.0	['4', 'return']	[2.101813899935223, 2.8221644998993725]	7.59	6.44	2.0	20hz	low_pain	46.7				sub-052	250	52	46.7	47.8	COM5	COM15	COM3	2024-12-09_13h20.06.542	001-EEG_SVR_Officel	2022.2.5	238.77460849588877		10.029999999999973	1_sub-pilot052_SVR_EEG_block3-4.protocol.csv	step23	3786	376.463	STIMULATE	46.9	46.7	46.6	46.7	46.7	23	1124.346
1111.291	0	1111291	20hz	10004	2	0	2	0	10.0	0.0	10.0	0.0					1282.678312700009	1290.2741222999755	1290.2741222999755	4.0	['4', 'return']	[2.101813899935223, 2.8221644998993725]	7.59	6.44	2.0	20hz	low_pain	46.7				sub-052	250	52	46.7	47.8	COM5	COM15	COM3	2024-12-09_13h20.06.542	001-EEG_SVR_Officel	2022.2.5	238.77460849588877		7.586999999999989	1_sub-pilot052_SVR_EEG_block3-4.protocol.csv	step23	3786	376.463	STIMULATE	46.9	46.7	46.6	46.7	46.7	23	1124.346
1118.482	0	1118482	20/Lo	10001	2	0	2	0	10.0	0.0	10.0	0.0					1282.678312700009	1290.2741222999755	1290.2741222999755	4.0	['4', 'return']	[2.101813899935223, 2.8221644998993725]	7.59	6.44	2.0	20hz	low_pain	46.7				sub-052	250	52	46.7	47.8	COM5	COM15	COM3	2024-12-09_13h20.06.542	001-EEG_SVR_Officel	2022.2.5	238.77460849588877		6.441000000000031	1_sub-pilot052_SVR_EEG_block3-4.protocol.csv	step23	3786	376.463	STIMULATE	46.9	46.7	46.6	46.7	46.7	23	1124.346
1127.132	0	1127132	wait	10005	2	0	2	0	11.0	0.0	11.0	0.0					1306.1067406999646	1312.8615705999546	1312.8615705999546	2.0	['2', 'return']	[1.842669100034982, 2.650751300039701]	6.75	6.25	3.0	20hz	low_pain	46.7				sub-052	250	52	46.7	47.8	COM5	COM15	COM3	2024-12-09_13h20.06.542	001-EEG_SVR_Officel	2022.2.5	238.77460849588877		9.400000000000091	1_sub-pilot052_SVR_EEG_block3-4.protocol.csv	step25	4012	398.868	STIMULATE	46.9	46.7	46.7	46.7	46.7	25	1146.751
1133.879	0	1133879	20hz	10004	2	0	2	0	11.0	0.0	11.0	0.0					1306.1067406999646	1312.8615705999546	1312.8615705999546	2.0	['2', 'return']	[1.842669100034982, 2.650751300039701]	6.75	6.25	3.0	20hz	low_pain	46.7				sub-052	250	52	46.7	47.8	COM5	COM15	COM3	2024-12-09_13h20.06.542	001-EEG_SVR_Officel	2022.2.5	238.77460849588877		6.746999999999844	1_sub-pilot052_SVR_EEG_block3-4.protocol.csv	step25	4012	398.868	STIMULATE	46.9	46.7	46.7	46.7	46.7	25	1146.751
1140.882	0	1140882	20/Lo	10001	2	0	2	0	11.0	0.0	11.0	0.0					1306.1067406999646	1312.8615705999546	1312.8615705999546	2.0	['2', 'return']	[1.842669100034982, 2.650751300039701]	6.75	6.25	3.0	20hz	low_pain	46.7				sub-052	250	52	46.7	47.8	COM5	COM15	COM3	2024-12-09_13h20.06.542	001-EEG_SVR_Officel	2022.2.5	238.77460849588877		6.253000000000156	1_sub-pilot052_SVR_EEG_block3-4.protocol.csv	step25	4012	398.868	STIMULATE	46.9	46.7	46.7	46.7	46.7	25	1146.751
1149.553	0	1149553	wait	10005	2	0	2	0	12.0	0.0	12.0	0.0					1328.5280151999325	1334.608751899912	1334.608751899912	5.0	['5', 'return']	[1.4570409000152722, 2.3767343999352306]	6.07	6.46	0.0	10hz	low_pain	46.7				sub-052	250	52	46.7	47.8	COM5	COM15	COM3	2024-12-09_13h20.06.542	001-EEG_SVR_Officel	2022.2.5	238.77460849588877		9.42100000000005	1_sub-pilot052_SVR_EEG_block3-4.protocol.csv	step27	4234	420.851	STIMULATE	46.9	46.7	46.7	46.6	46.7	27	1168.734
1155.625	0	1155625	10hz	10004	2	0	2	0	12.0	0.0	12.0	0.0					1328.5280151999325	1334.608751899912	1334.608751899912	5.0	['5', 'return']	[1.4570409000152722, 2.3767343999352306]	6.07	6.46	0.0	10hz	low_pain	46.7				sub-052	250	52	46.7	47.8	COM5	COM15	COM3	2024-12-09_13h20.06.542	001-EEG_SVR_Officel	2022.2.5	238.77460849588877		6.071999999999889	1_sub-pilot052_SVR_EEG_block3-4.protocol.csv	step27	4234	420.851	STIMULATE	46.9	46.7	46.7	46.6	46.7	27	1168.734
1162.837	0	1162837	10/Lo	10001	2	0	2	0	12.0	0.0	12.0	0.0					1328.5280151999325	1334.608751899912	1334.608751899912	5.0	['5', 'return']	[1.4570409000152722, 2.3767343999352306]	6.07	6.46	0.0	10hz	low_pain	46.7				sub-052	250	52	46.7	47.8	COM5	COM15	COM3	2024-12-09_13h20.06.542	001-EEG_SVR_Officel	2022.2.5	238.77460849588877		6.461999999999989	1_sub-pilot052_SVR_EEG_block3-4.protocol.csv	step27	4234	420.851	STIMULATE	46.9	46.7	46.7	46.6	46.7	27	1168.734
1171.024	0	1171024	wait	10005	2	0	2	0	13.0	0.0	13.0	0.0					1349.9985502999043	1357.6611517999554	1357.6611517999554	7.0	['7', 'return']	[2.8348073000088334, 3.5701565999770537]	7.66	6.08	1.0	controle	high_pain	47.8				sub-052	250	52	46.7	47.8	COM5	COM15	COM3	2024-12-09_13h20.06.542	001-EEG_SVR_Officel	2022.2.5	238.77460849588877		8.936999999999898	1_sub-pilot052_SVR_EEG_block3-4.protocol.csv	step29	4462	443.507	STIMULATE	47.8	47.8	47.8	47.8	47.9	29	1191.3899999999999
1178.679	0	1178679	CNhz	10004	2	0	2	0	13.0	0.0	13.0	0.0					1349.9985502999043	1357.6611517999554	1357.6611517999554	7.0	['7', 'return']	[2.8348073000088334, 3.5701565999770537]	7.66	6.08	1.0	controle	high_pain	47.8				sub-052	250	52	46.7	47.8	COM5	COM15	COM3	2024-12-09_13h20.06.542	001-EEG_SVR_Officel	2022.2.5	238.77460849588877		7.6550000000002	1_sub-pilot052_SVR_EEG_block3-4.protocol.csv	step29	4462	443.507	STIMULATE	47.8	47.8	47.8	47.8	47.9	29	1191.3899999999999
1185.511	0	1185511	CN/Hi	10001	2	0	2	0	13.0	0.0	13.0	0.0					1349.9985502999043	1357.6611517999554	1357.6611517999554	7.0	['7', 'return']	[2.8348073000088334, 3.5701565999770537]	7.66	6.08	1.0	controle	high_pain	47.8				sub-052	250	52	46.7	47.8	COM5	COM15	COM3	2024-12-09_13h20.06.542	001-EEG_SVR_Officel	2022.2.5	238.77460849588877		6.08199999999988	1_sub-pilot052_SVR_EEG_block3-4.protocol.csv	step29	4462	443.507	STIMULATE	47.8	47.8	47.8	47.8	47.9	29	1191.3899999999999
1195.269	0	1195269	wait	10005	2	0	2	0	14.0	0.0	14.0	0.0					1374.244167399942	1380.2774539999664	1380.2774539999664	8.0	['8', 'return']	[2.6751481000101194, 5.034782000002451]	6.03	6.01	2.0	40hz	high_pain	47.8				sub-052	250	52	46.7	47.8	COM5	COM15	COM3	2024-12-09_13h20.06.542	001-EEG_SVR_Officel	2022.2.5	238.77460849588877		10.508000000000038	1_sub-pilot052_SVR_EEG_block3-4.protocol.csv	step31	4690	466.095	STIMULATE	47.8	47.8	47.8	47.8	47.8	31	1213.978
1201.295	0	1201295	40hz	10004	2	0	2	0	14.0	0.0	14.0	0.0					1374.244167399942	1380.2774539999664	1380.2774539999664	8.0	['8', 'return']	[2.6751481000101194, 5.034782000002451]	6.03	6.01	2.0	40hz	high_pain	47.8				sub-052	250	52	46.7	47.8	COM5	COM15	COM3	2024-12-09_13h20.06.542	001-EEG_SVR_Officel	2022.2.5	238.77460849588877		6.026000000000067	1_sub-pilot052_SVR_EEG_block3-4.protocol.csv	step31	4690	466.095	STIMULATE	47.8	47.8	47.8	47.8	47.8	31	1213.978
1208.057	0	1208057	40/Hi	10001	2	0	2	0	14.0	0.0	14.0	0.0					1374.244167399942	1380.2774539999664	1380.2774539999664	8.0	['8', 'return']	[2.6751481000101194, 5.034782000002451]	6.03	6.01	2.0	40hz	high_pain	47.8				sub-052	250	52	46.7	47.8	COM5	COM15	COM3	2024-12-09_13h20.06.542	001-EEG_SVR_Officel	2022.2.5	238.77460849588877		6.011999999999944	1_sub-pilot052_SVR_EEG_block3-4.protocol.csv	step31	4690	466.095	STIMULATE	47.8	47.8	47.8	47.8	47.8	31	1213.978
1219.352	0	1219352	wait	10005	2	0	2	0	15.0	0.0	15.0	0.0					1398.3273120999802	1403.9444917999208	1403.9444917999208	4.0	['4', 'return']	[2.7197365999454632, 3.848217900027521]	5.61	5.04	3.0	controle	low_pain	46.7				sub-052	250	52	46.7	47.8	COM5	COM15	COM3	2024-12-09_13h20.06.542	001-EEG_SVR_Officel	2022.2.5	238.77460849588877		12.045000000000073	1_sub-pilot052_SVR_EEG_block3-4.protocol.csv	step33	4919	488.802	STIMULATE	46.7	46.7	46.6	46.7	46.7	33	1236.685
1224.962	0	1224962	CNhz	10004	2	0	2	0	15.0	0.0	15.0	0.0					1398.3273120999802	1403.9444917999208	1403.9444917999208	4.0	['4', 'return']	[2.7197365999454632, 3.848217900027521]	5.61	5.04	3.0	controle	low_pain	46.7				sub-052	250	52	46.7	47.8	COM5	COM15	COM3	2024-12-09_13h20.06.542	001-EEG_SVR_Officel	2022.2.5	238.77460849588877		5.6099999999999	1_sub-pilot052_SVR_EEG_block3-4.protocol.csv	step33	4919	488.802	STIMULATE	46.7	46.7	46.6	46.7	46.7	33	1236.685
1230.752	0	1230752	CN/Lo	10001	2	0	2	0	15.0	0.0	15.0	0.0					1398.3273120999802	1403.9444917999208	1403.9444917999208	4.0	['4', 'return']	[2.7197365999454632, 3.848217900027521]	5.61	5.04	3.0	controle	low_pain	46.7				sub-052	250	52	46.7	47.8	COM5	COM15	COM3	2024-12-09_13h20.06.542	001-EEG_SVR_Officel	2022.2.5	238.77460849588877		5.039999999999964	1_sub-pilot052_SVR_EEG_block3-4.protocol.csv	step33	4919	488.802	STIMULATE	46.7	46.7	46.6	46.7	46.7	33	1236.685
1303.618	0	1303618	wait	10005	3	0	3	0	0.0	0.0	0.0	0.0			p	2.8688021999550983	1482.5933586999308	1488.8522789999845	1488.8522789999845	2.0	['2', 'return']	[7.724753799964674, 8.517459700000472]	6.25	5.93	0.0	20hz	high_pain	47.8				sub-052	250	52	46.7	47.8	COM5	COM15	COM3	2024-12-09_13h20.06.542	001-EEG_SVR_Officel	2022.2.5	238.77460849588877		73.61599999999999	1_sub-pilot052_SVR_EEG_block3-4.protocol.csv	step35	5779	574.581	STIMULATE	48.0	47.9	47.8	47.8	47.9	35	1322.398
1309.869	0	1309869	20hz	10004	3	0	3	0	0.0	0.0	0.0	0.0			p	2.8688021999550983	1482.5933586999308	1488.8522789999845	1488.8522789999845	2.0	['2', 'return']	[7.724753799964674, 8.517459700000472]	6.25	5.93	0.0	20hz	high_pain	47.8				sub-052	250	52	46.7	47.8	COM5	COM15	COM3	2024-12-09_13h20.06.542	001-EEG_SVR_Officel	2022.2.5	238.77460849588877		6.250999999999976	1_sub-pilot052_SVR_EEG_block3-4.protocol.csv	step35	5779	574.581	STIMULATE	48.0	47.9	47.8	47.8	47.9	35	1322.398
1316.552	0	1316552	20/Hi	10001	3	0	3	0	0.0	0.0	0.0	0.0			p	2.8688021999550983	1482.5933586999308	1488.8522789999845	1488.8522789999845	2.0	['2', 'return']	[7.724753799964674, 8.517459700000472]	6.25	5.93	0.0	20hz	high_pain	47.8				sub-052	250	52	46.7	47.8	COM5	COM15	COM3	2024-12-09_13h20.06.542	001-EEG_SVR_Officel	2022.2.5	238.77460849588877		5.932999999999993	1_sub-pilot052_SVR_EEG_block3-4.protocol.csv	step35	5779	574.581	STIMULATE	48.0	47.9	47.8	47.8	47.9	35	1322.398
1331.405	0	1331405	wait	10005	3	0	3	0	1.0	0.0	1.0	0.0					1510.3800040999197	1516.8054669999983	1516.8054669999983	3.0	['3', 'return']	[2.554285899968818, 3.7629696999210864]	6.42	5.49	1.0	10hz	low_pain	46.7				sub-052	250	52	46.7	47.8	COM5	COM15	COM3	2024-12-09_13h20.06.542	001-EEG_SVR_Officel	2022.2.5	238.77460849588877		15.603000000000065	1_sub-pilot052_SVR_EEG_block3-4.protocol.csv	step37	6057	602.149	STIMULATE	46.8	46.6	46.7	46.7	46.9	37	1349.966
1337.822	0	1337822	10hz	10004	3	0	3	0	1.0	0.0	1.0	0.0					1510.3800040999197	1516.8054669999983	1516.8054669999983	3.0	['3', 'return']	[2.554285899968818, 3.7629696999210864]	6.42	5.49	1.0	10hz	low_pain	46.7				sub-052	250	52	46.7	47.8	COM5	COM15	COM3	2024-12-09_13h20.06.542	001-EEG_SVR_Officel	2022.2.5	238.77460849588877		6.416999999999916	1_sub-pilot052_SVR_EEG_block3-4.protocol.csv	step37	6057	602.149	STIMULATE	46.8	46.6	46.7	46.7	46.9	37	1349.966
1344.064	0	1344064	10/Lo	10001	3	0	3	0	1.0	0.0	1.0	0.0					1510.3800040999197	1516.8054669999983	1516.8054669999983	3.0	['3', 'return']	[2.554285899968818, 3.7629696999210864]	6.42	5.49	1.0	10hz	low_pain	46.7				sub-052	250	52	46.7	47.8	COM5	COM15	COM3	2024-12-09_13h20.06.542	001-EEG_SVR_Officel	2022.2.5	238.77460849588877		5.492000000000189	1_sub-pilot052_SVR_EEG_block3-4.protocol.csv	step37	6057	602.149	STIMULATE	46.8	46.6	46.7	46.7	46.9	37	1349.966
1354.61	0	1354610	wait	10005	3	0	3	0	2.0	0.0	2.0	0.0					1533.5846699000103	1541.2685500999214	1541.2685500999214	5.0	['5', 'return']	[3.6992504000663757, 4.5881456000497565]	7.68	6.04	2.0	20hz	high_pain	47.8				sub-052	250	52	46.7	47.8	COM5	COM15	COM3	2024-12-09_13h20.06.542	001-EEG_SVR_Officel	2022.2.5	238.77460849588877		11.295999999999822	1_sub-pilot052_SVR_EEG_block3-4.protocol.csv	step39	6308	627.07	STIMULATE	48.0	47.8	47.8	47.8	47.9	39	1374.887
1362.286	0	1362286	20hz	10004	3	0	3	0	2.0	0.0	2.0	0.0					1533.5846699000103	1541.2685500999214	1541.2685500999214	5.0	['5', 'return']	[3.6992504000663757, 4.5881456000497565]	7.68	6.04	2.0	20hz	high_pain	47.8				sub-052	250	52	46.7	47.8	COM5	COM15	COM3	2024-12-09_13h20.06.542	001-EEG_SVR_Officel	2022.2.5	238.77460849588877		7.676000000000158	1_sub-pilot052_SVR_EEG_block3-4.protocol.csv	step39	6308	627.07	STIMULATE	48.0	47.8	47.8	47.8	47.9	39	1374.887
1369.076	0	1369076	20/Hi	10001	3	0	3	0	2.0	0.0	2.0	0.0					1533.5846699000103	1541.2685500999214	1541.2685500999214	5.0	['5', 'return']	[3.6992504000663757, 4.5881456000497565]	7.68	6.04	2.0	20hz	high_pain	47.8				sub-052	250	52	46.7	47.8	COM5	COM15	COM3	2024-12-09_13h20.06.542	001-EEG_SVR_Officel	2022.2.5	238.77460849588877		6.039999999999964	1_sub-pilot052_SVR_EEG_block3-4.protocol.csv	step39	6308	627.07	STIMULATE	48.0	47.8	47.8	47.8	47.9	39	1374.887
1379.897	0	1379897	wait	10005	3	0	3	0	3.0	0.0	3.0	0.0					1558.8719012999209	1565.067735999939	1565.067735999939	7.0	['7', 'return']	[2.8440926000475883, 3.660399500047788]	6.19	5.64	3.0	40hz	high_pain	47.8				sub-052	250	52	46.7	47.8	COM5	COM15	COM3	2024-12-09_13h20.06.542	001-EEG_SVR_Officel	2022.2.5	238.77460849588877		11.570999999999913	1_sub-pilot052_SVR_EEG_block3-4.protocol.csv	step41	6544	650.479	STIMULATE	47.8	47.8	47.8	47.8	47.8	41	1398.2959999999998
1386.085	0	1386085	40hz	10004	3	0	3	0	3.0	0.0	3.0	0.0					1558.8719012999209	1565.067735999939	1565.067735999939	7.0	['7', 'return']	[2.8440926000475883, 3.660399500047788]	6.19	5.64	3.0	40hz	high_pain	47.8				sub-052	250	52	46.7	47.8	COM5	COM15	COM3	2024-12-09_13h20.06.542	001-EEG_SVR_Officel	2022.2.5	238.77460849588877		6.188000000000102	1_sub-pilot052_SVR_EEG_block3-4.protocol.csv	step41	6544	650.479	STIMULATE	47.8	47.8	47.8	47.8	47.8	41	1398.2959999999998
1392.476	0	1392476	40/Hi	10001	3	0	3	0	3.0	0.0	3.0	0.0					1558.8719012999209	1565.067735999939	1565.067735999939	7.0	['7', 'return']	[2.8440926000475883, 3.660399500047788]	6.19	5.64	3.0	40hz	high_pain	47.8				sub-052	250	52	46.7	47.8	COM5	COM15	COM3	2024-12-09_13h20.06.542	001-EEG_SVR_Officel	2022.2.5	238.77460849588877		5.641000000000076	1_sub-pilot052_SVR_EEG_block3-4.protocol.csv	step41	6544	650.479	STIMULATE	47.8	47.8	47.8	47.8	47.8	41	1398.2959999999998
1402.763	0	1402763	wait	10005	3	0	3	0	4.0	0.0	4.0	0.0					1581.7378495999146	1588.343244299991	1588.343244299991	7.0	['7', 'return']	[3.3212492000311613, 4.161678400007077]	6.6	5.17	0.0	controle	high_pain	47.8				sub-052	250	52	46.7	47.8	COM5	COM15	COM3	2024-12-09_13h20.06.542	001-EEG_SVR_Officel	2022.2.5	238.77460849588877		11.036999999999807	1_sub-pilot052_SVR_EEG_block3-4.protocol.csv	step43	6775	673.339	STIMULATE	48.0	47.8	47.7	47.8	47.9	43	1421.156
1409.36	0	1409360	CNhz	10004	3	0	3	0	4.0	0.0	4.0	0.0					1581.7378495999146	1588.343244299991	1588.343244299991	7.0	['7', 'return']	[3.3212492000311613, 4.161678400007077]	6.6	5.17	0.0	controle	high_pain	47.8				sub-052	250	52	46.7	47.8	COM5	COM15	COM3	2024-12-09_13h20.06.542	001-EEG_SVR_Officel	2022.2.5	238.77460849588877		6.59699999999998	1_sub-pilot052_SVR_EEG_block3-4.protocol.csv	step43	6775	673.339	STIMULATE	48.0	47.8	47.7	47.8	47.9	43	1421.156
1415.284	0	1415284	CN/Hi	10001	3	0	3	0	4.0	0.0	4.0	0.0					1581.7378495999146	1588.343244299991	1588.343244299991	7.0	['7', 'return']	[3.3212492000311613, 4.161678400007077]	6.6	5.17	0.0	controle	high_pain	47.8				sub-052	250	52	46.7	47.8	COM5	COM15	COM3	2024-12-09_13h20.06.542	001-EEG_SVR_Officel	2022.2.5	238.77460849588877		5.1740000000002055	1_sub-pilot052_SVR_EEG_block3-4.protocol.csv	step43	6775	673.339	STIMULATE	48.0	47.8	47.7	47.8	47.9	43	1421.156
1426.543	0	1426543	wait	10005	3	0	3	0	5.0	0.0	5.0	0.0					1605.5174847999588	1612.34225649992	1612.34225649992	2.0	['2', 'return']	[2.4811403000494465, 3.2107126000337303]	6.82	5.99	1.0	40hz	low_pain	46.7				sub-052	250	52	46.7	47.8	COM5	COM15	COM3	2024-12-09_13h20.06.542	001-EEG_SVR_Officel	2022.2.5	238.77460849588877		12.008999999999787	1_sub-pilot052_SVR_EEG_block3-4.protocol.csv	step45	7025	698.176	STIMULATE	46.9	46.7	46.6	46.7	46.6	45	1445.993
1433.359	0	1433359	40hz	10004	3	0	3	0	5.0	0.0	5.0	0.0					1605.5174847999588	1612.34225649992	1612.34225649992	2.0	['2', 'return']	[2.4811403000494465, 3.2107126000337303]	6.82	5.99	1.0	40hz	low_pain	46.7				sub-052	250	52	46.7	47.8	COM5	COM15	COM3	2024-12-09_13h20.06.542	001-EEG_SVR_Officel	2022.2.5	238.77460849588877		6.816000000000031	1_sub-pilot052_SVR_EEG_block3-4.protocol.csv	step45	7025	698.176	STIMULATE	46.9	46.7	46.6	46.7	46.6	45	1445.993
1440.1	0	1440100	40/Lo	10001	3	0	3	0	5.0	0.0	5.0	0.0					1605.5174847999588	1612.34225649992	1612.34225649992	2.0	['2', 'return']	[2.4811403000494465, 3.2107126000337303]	6.82	5.99	1.0	40hz	low_pain	46.7				sub-052	250	52	46.7	47.8	COM5	COM15	COM3	2024-12-09_13h20.06.542	001-EEG_SVR_Officel	2022.2.5	238.77460849588877		5.9909999999999854	1_sub-pilot052_SVR_EEG_block3-4.protocol.csv	step45	7025	698.176	STIMULATE	46.9	46.7	46.6	46.7	46.6	45	1445.993
1449.592	0	1449592	wait	10005	3	0	3	0	6.0	0.0	6.0	0.0					1628.5670269000111	1636.5336618999718	1636.5336618999718	8.0	['8', 'return']	[2.066763599985279, 2.7222945999819785]	7.96	6.01	2.0	10hz	high_pain	47.8				sub-052	250	52	46.7	47.8	COM5	COM15	COM3	2024-12-09_13h20.06.542	001-EEG_SVR_Officel	2022.2.5	238.77460849588877		10.24200000000019	1_sub-pilot052_SVR_EEG_block3-4.protocol.csv	step47	7269	722.393	STIMULATE	48.0	47.8	47.8	47.8	47.8	47	1470.21
1457.55	0	1457550	10hz	10004	3	0	3	0	6.0	0.0	6.0	0.0					1628.5670269000111	1636.5336618999718	1636.5336618999718	8.0	['8', 'return']	[2.066763599985279, 2.7222945999819785]	7.96	6.01	2.0	10hz	high_pain	47.8				sub-052	250	52	46.7	47.8	COM5	COM15	COM3	2024-12-09_13h20.06.542	001-EEG_SVR_Officel	2022.2.5	238.77460849588877		7.957999999999856	1_sub-pilot052_SVR_EEG_block3-4.protocol.csv	step47	7269	722.393	STIMULATE	48.0	47.8	47.8	47.8	47.8	47	1470.21
1464.313	0	1464313	10/Hi	10001	3	0	3	0	6.0	0.0	6.0	0.0					1628.5670269000111	1636.5336618999718	1636.5336618999718	8.0	['8', 'return']	[2.066763599985279, 2.7222945999819785]	7.96	6.01	2.0	10hz	high_pain	47.8				sub-052	250	52	46.7	47.8	COM5	COM15	COM3	2024-12-09_13h20.06.542	001-EEG_SVR_Officel	2022.2.5	238.77460849588877		6.013000000000147	1_sub-pilot052_SVR_EEG_block3-4.protocol.csv	step47	7269	722.393	STIMULATE	48.0	47.8	47.8	47.8	47.8	47	1470.21
1473.297	0	1473297	wait	10005	3	0	3	0	7.0	0.0	7.0	0.0					1652.2717228999827	1660.1751383999365	1660.1751383999365	4.0	['4', 'return']	[2.1448132999939844, 3.1132485000416636]	7.9	5.49	3.0	10hz	low_pain	46.7				sub-052	250	52	46.7	47.8	COM5	COM15	COM3	2024-12-09_13h20.06.542	001-EEG_SVR_Officel	2022.2.5	238.77460849588877		9.733999999999924	1_sub-pilot052_SVR_EEG_block3-4.protocol.csv	step49	7501	745.415	STIMULATE	46.7	46.7	46.7	46.7	46.6	49	1493.232
1481.192	0	1481192	10hz	10004	3	0	3	0	7.0	0.0	7.0	0.0					1652.2717228999827	1660.1751383999365	1660.1751383999365	4.0	['4', 'return']	[2.1448132999939844, 3.1132485000416636]	7.9	5.49	3.0	10hz	low_pain	46.7				sub-052	250	52	46.7	47.8	COM5	COM15	COM3	2024-12-09_13h20.06.542	001-EEG_SVR_Officel	2022.2.5	238.77460849588877		7.894999999999982	1_sub-pilot052_SVR_EEG_block3-4.protocol.csv	step49	7501	745.415	STIMULATE	46.7	46.7	46.7	46.7	46.6	49	1493.232
1487.433	0	1487433	10/Lo	10001	3	0	3	0	7.0	0.0	7.0	0.0					1652.2717228999827	1660.1751383999365	1660.1751383999365	4.0	['4', 'return']	[2.1448132999939844, 3.1132485000416636]	7.9	5.49	3.0	10hz	low_pain	46.7				sub-052	250	52	46.7	47.8	COM5	COM15	COM3	2024-12-09_13h20.06.542	001-EEG_SVR_Officel	2022.2.5	238.77460849588877		5.4909999999999854	1_sub-pilot052_SVR_EEG_block3-4.protocol.csv	step49	7501	745.415	STIMULATE	46.7	46.7	46.7	46.7	46.6	49	1493.232
1497.329	0	1497329	wait	10005	3	0	3	0	8.0	0.0	8.0	0.0					1676.3043088999111	1681.437631299952	1681.437631299952	7.0	['7', 'return']	[1.8749343999661505, 2.650862699956633]	5.13	5.09	0.0	40hz	high_pain	47.8				sub-052	250	52	46.7	47.8	COM5	COM15	COM3	2024-12-09_13h20.06.542	001-EEG_SVR_Officel	2022.2.5	238.77460849588877		10.645999999999958	1_sub-pilot052_SVR_EEG_block3-4.protocol.csv	step51	7710	766.41	STIMULATE	47.9	47.8	47.8	47.8	47.9	51	1514.2269999999999
1502.454	0	1502454	40hz	10004	3	0	3	0	8.0	0.0	8.0	0.0					1676.3043088999111	1681.437631299952	1681.437631299952	7.0	['7', 'return']	[1.8749343999661505, 2.650862699956633]	5.13	5.09	0.0	40hz	high_pain	47.8				sub-052	250	52	46.7	47.8	COM5	COM15	COM3	2024-12-09_13h20.06.542	001-EEG_SVR_Officel	2022.2.5	238.77460849588877		5.125	1_sub-pilot052_SVR_EEG_block3-4.protocol.csv	step51	7710	766.41	STIMULATE	47.9	47.8	47.8	47.8	47.9	51	1514.2269999999999
1508.296	0	1508296	40/Hi	10001	3	0	3	0	8.0	0.0	8.0	0.0					1676.3043088999111	1681.437631299952	1681.437631299952	7.0	['7', 'return']	[1.8749343999661505, 2.650862699956633]	5.13	5.09	0.0	40hz	high_pain	47.8				sub-052	250	52	46.7	47.8	COM5	COM15	COM3	2024-12-09_13h20.06.542	001-EEG_SVR_Officel	2022.2.5	238.77460849588877		5.092000000000098	1_sub-pilot052_SVR_EEG_block3-4.protocol.csv	step51	7710	766.41	STIMULATE	47.9	47.8	47.8	47.8	47.9	51	1514.2269999999999
1518.129	0	1518129	wait	10005	3	0	3	0	9.0	0.0	9.0	0.0					1697.1041113999672	1704.92893179995	1704.92893179995	6.0	['6', 'return']	[2.118731900001876, 3.542432799935341]	7.82	5.01	1.0	40hz	high_pain	47.8				sub-052	250	52	46.7	47.8	COM5	COM15	COM3	2024-12-09_13h20.06.542	001-EEG_SVR_Officel	2022.2.5	238.77460849588877		10.582999999999856	1_sub-pilot052_SVR_EEG_block3-4.protocol.csv	step53	7938	789.764	STIMULATE	47.9	47.8	47.8	47.8	47.8	53	1537.581
1525.946	0	1525946	40hz	10004	3	0	3	0	9.0	0.0	9.0	0.0					1697.1041113999672	1704.92893179995	1704.92893179995	6.0	['6', 'return']	[2.118731900001876, 3.542432799935341]	7.82	5.01	1.0	40hz	high_pain	47.8				sub-052	250	52	46.7	47.8	COM5	COM15	COM3	2024-12-09_13h20.06.542	001-EEG_SVR_Officel	2022.2.5	238.77460849588877		7.817000000000007	1_sub-pilot052_SVR_EEG_block3-4.protocol.csv	step53	7938	789.764	STIMULATE	47.9	47.8	47.8	47.8	47.8	53	1537.581
1531.709	0	1531709	40/Hi	10001	3	0	3	0	9.0	0.0	9.0	0.0					1697.1041113999672	1704.92893179995	1704.92893179995	6.0	['6', 'return']	[2.118731900001876, 3.542432799935341]	7.82	5.01	1.0	40hz	high_pain	47.8				sub-052	250	52	46.7	47.8	COM5	COM15	COM3	2024-12-09_13h20.06.542	001-EEG_SVR_Officel	2022.2.5	238.77460849588877		5.013000000000147	1_sub-pilot052_SVR_EEG_block3-4.protocol.csv	step53	7938	789.764	STIMULATE	47.9	47.8	47.8	47.8	47.8	53	1537.581
1542.512	0	1542512	wait	10005	3	0	3	0	10.0	0.0	10.0	0.0					1721.4871461999137	1726.6866204999387	1726.6866204999387	5.0	['5', 'return']	[2.736893799970858, 4.345589800039306]	5.2	5.45	2.0	controle	low_pain	46.7			1739.6869362000143	sub-052	250	52	46.7	47.8	COM5	COM15	COM3	2024-12-09_13h20.06.542	001-EEG_SVR_Officel	2022.2.5	238.77460849588877		11.552999999999884	1_sub-pilot052_SVR_EEG_block3-4.protocol.csv	step55	8151	811.902	STIMULATE	46.7	46.7	46.7	46.7	46.7	55	1559.719
1547.708	0	1547708	CNhz	10004	3	0	3	0	10.0	0.0	10.0	0.0					1721.4871461999137	1726.6866204999387	1726.6866204999387	5.0	['5', 'return']	[2.736893799970858, 4.345589800039306]	5.2	5.45	2.0	controle	low_pain	46.7			1739.6869362000143	sub-052	250	52	46.7	47.8	COM5	COM15	COM3	2024-12-09_13h20.06.542	001-EEG_SVR_Officel	2022.2.5	238.77460849588877		5.19600000000014	1_sub-pilot052_SVR_EEG_block3-4.protocol.csv	step55	8151	811.902	STIMULATE	46.7	46.7	46.7	46.7	46.7	55	1559.719
1553.912	0	1553912	CN/Lo	10001	3	0	3	0	10.0	0.0	10.0	0.0					1721.4871461999137	1726.6866204999387	1726.6866204999387	5.0	['5', 'return']	[2.736893799970858, 4.345589800039306]	5.2	5.45	2.0	controle	low_pain	46.7			1739.6869362000143	sub-052	250	52	46.7	47.8	COM5	COM15	COM3	2024-12-09_13h20.06.542	001-EEG_SVR_Officel	2022.2.5	238.77460849588877		5.453999999999951	1_sub-pilot052_SVR_EEG_block3-4.protocol.csv	step55	8151	811.902	STIMULATE	46.7	46.7	46.7	46.7	46.7	55	1559.719
1565.07	0	1565070	wait	10005	3	0	3	0	11.0	0.0	11.0	0.0					1744.045313599985	1749.161939200014	1749.161939200014	7.0	['7', 'return']	[1.942187700071372, 2.5989820000249892]	5.11	5.79	3.0	20hz	high_pain	47.8				sub-052	250	52	46.7	47.8	COM5	COM15	COM3	2024-12-09_13h20.06.542	001-EEG_SVR_Officel	2022.2.5	238.77460849588877		11.907999999999902	1_sub-pilot052_SVR_EEG_block3-4.protocol.csv	step57	8370	834.759	STIMULATE	47.7	47.7	47.7	47.8	47.8	57	1582.576
1570.179	0	1570179	20hz	10004	3	0	3	0	11.0	0.0	11.0	0.0					1744.045313599985	1749.161939200014	1749.161939200014	7.0	['7', 'return']	[1.942187700071372, 2.5989820000249892]	5.11	5.79	3.0	20hz	high_pain	47.8				sub-052	250	52	46.7	47.8	COM5	COM15	COM3	2024-12-09_13h20.06.542	001-EEG_SVR_Officel	2022.2.5	238.77460849588877		5.109000000000151	1_sub-pilot052_SVR_EEG_block3-4.protocol.csv	step57	8370	834.759	STIMULATE	47.7	47.7	47.7	47.8	47.8	57	1582.576
1576.72	0	1576720	20/Hi	10001	3	0	3	0	11.0	0.0	11.0	0.0					1744.045313599985	1749.161939200014	1749.161939200014	7.0	['7', 'return']	[1.942187700071372, 2.5989820000249892]	5.11	5.79	3.0	20hz	high_pain	47.8				sub-052	250	52	46.7	47.8	COM5	COM15	COM3	2024-12-09_13h20.06.542	001-EEG_SVR_Officel	2022.2.5	238.77460849588877		5.79099999999994	1_sub-pilot052_SVR_EEG_block3-4.protocol.csv	step57	8370	834.759	STIMULATE	47.7	47.7	47.7	47.8	47.8	57	1582.576
1585.799	0	1585799	wait	10005	3	0	3	0	12.0	0.0	12.0	0.0					1764.7742962999037	1771.4576572999358	1771.4576572999358	1.0	['1', 'return']	[2.1978357000043616, 3.1984451999887824]	6.68	5.55	0.0	40hz	low_pain	46.7				sub-052	250	52	46.7	47.8	COM5	COM15	COM3	2024-12-09_13h20.06.542	001-EEG_SVR_Officel	2022.2.5	238.77460849588877		9.82899999999995	1_sub-pilot052_SVR_EEG_block3-4.protocol.csv	step59	8580	856.914	STIMULATE	46.9	46.6	46.6	46.6	46.7	59	1604.7309999999998
1592.475	0	1592475	40hz	10004	3	0	3	0	12.0	0.0	12.0	0.0					1764.7742962999037	1771.4576572999358	1771.4576572999358	1.0	['1', 'return']	[2.1978357000043616, 3.1984451999887824]	6.68	5.55	0.0	40hz	low_pain	46.7				sub-052	250	52	46.7	47.8	COM5	COM15	COM3	2024-12-09_13h20.06.542	001-EEG_SVR_Officel	2022.2.5	238.77460849588877		6.675999999999931	1_sub-pilot052_SVR_EEG_block3-4.protocol.csv	step59	8580	856.914	STIMULATE	46.9	46.6	46.6	46.6	46.7	59	1604.7309999999998
1598.778	0	1598778	40/Lo	10001	3	0	3	0	12.0	0.0	12.0	0.0					1764.7742962999037	1771.4576572999358	1771.4576572999358	1.0	['1', 'return']	[2.1978357000043616, 3.1984451999887824]	6.68	5.55	0.0	40hz	low_pain	46.7				sub-052	250	52	46.7	47.8	COM5	COM15	COM3	2024-12-09_13h20.06.542	001-EEG_SVR_Officel	2022.2.5	238.77460849588877		5.553000000000111	1_sub-pilot052_SVR_EEG_block3-4.protocol.csv	step59	8580	856.914	STIMULATE	46.9	46.6	46.6	46.6	46.7	59	1604.7309999999998
1608.695	0	1608695	wait	10005	3	0	3	0	13.0	0.0	13.0	0.0					1787.6699470999883	1795.4376725999173	1795.4376725999173	2.0	['2', 'return']	[2.542523300042376, 3.7666446999646723]	7.76	6.26	1.0	20hz	low_pain	46.7				sub-052	250	52	46.7	47.8	COM5	COM15	COM3	2024-12-09_13h20.06.542	001-EEG_SVR_Officel	2022.2.5	238.77460849588877		10.666999999999916	1_sub-pilot052_SVR_EEG_block3-4.protocol.csv	step61	8812	881.621	STIMULATE	46.9	46.7	46.7	46.7	46.7	61	1629.4379999999999
1616.454	0	1616454	20hz	10004	3	0	3	0	13.0	0.0	13.0	0.0					1787.6699470999883	1795.4376725999173	1795.4376725999173	2.0	['2', 'return']	[2.542523300042376, 3.7666446999646723]	7.76	6.26	1.0	20hz	low_pain	46.7				sub-052	250	52	46.7	47.8	COM5	COM15	COM3	2024-12-09_13h20.06.542	001-EEG_SVR_Officel	2022.2.5	238.77460849588877		7.7590000000000146	1_sub-pilot052_SVR_EEG_block3-4.protocol.csv	step61	8812	881.621	STIMULATE	46.9	46.7	46.7	46.7	46.7	61	1629.4379999999999
1623.466	0	1623466	20/Lo	10001	3	0	3	0	13.0	0.0	13.0	0.0					1787.6699470999883	1795.4376725999173	1795.4376725999173	2.0	['2', 'return']	[2.542523300042376, 3.7666446999646723]	7.76	6.26	1.0	20hz	low_pain	46.7				sub-052	250	52	46.7	47.8	COM5	COM15	COM3	2024-12-09_13h20.06.542	001-EEG_SVR_Officel	2022.2.5	238.77460849588877		6.261999999999944	1_sub-pilot052_SVR_EEG_block3-4.protocol.csv	step61	8812	881.621	STIMULATE	46.9	46.7	46.7	46.7	46.7	61	1629.4379999999999
1633.249	0	1633249	wait	10005	3	0	3	0	14.0	0.0	14.0	0.0					1812.2240185999544	1817.5573266999563	1817.5573266999563	5.0	['5', 'return']	[1.95422710001003, 2.7869793999707326]	5.33	6.26	2.0	controle	high_pain	47.8				sub-052	250	52	46.7	47.8	COM5	COM15	COM3	2024-12-09_13h20.06.542	001-EEG_SVR_Officel	2022.2.5	238.77460849588877		10.53300000000013	1_sub-pilot052_SVR_EEG_block3-4.protocol.csv	step63	9017	903.643	STIMULATE	47.9	47.8	47.8	47.8	47.8	63	1651.46
1638.574	0	1638574	CNhz	10004	3	0	3	0	14.0	0.0	14.0	0.0					1812.2240185999544	1817.5573266999563	1817.5573266999563	5.0	['5', 'return']	[1.95422710001003, 2.7869793999707326]	5.33	6.26	2.0	controle	high_pain	47.8				sub-052	250	52	46.7	47.8	COM5	COM15	COM3	2024-12-09_13h20.06.542	001-EEG_SVR_Officel	2022.2.5	238.77460849588877		5.3250000000000455	1_sub-pilot052_SVR_EEG_block3-4.protocol.csv	step63	9017	903.643	STIMULATE	47.9	47.8	47.8	47.8	47.8	63	1651.46
1645.586	0	1645586	CN/Hi	10001	3	0	3	0	14.0	0.0	14.0	0.0					1812.2240185999544	1817.5573266999563	1817.5573266999563	5.0	['5', 'return']	[1.95422710001003, 2.7869793999707326]	5.33	6.26	2.0	controle	high_pain	47.8				sub-052	250	52	46.7	47.8	COM5	COM15	COM3	2024-12-09_13h20.06.542	001-EEG_SVR_Officel	2022.2.5	238.77460849588877		6.261999999999944	1_sub-pilot052_SVR_EEG_block3-4.protocol.csv	step63	9017	903.643	STIMULATE	47.9	47.8	47.8	47.8	47.8	63	1651.46
1654.382	0	1654382	wait	10005	3	0	3	0	15.0	0.0	15.0	0.0					1833.357040099916	1839.474355299957	1839.474355299957	6.0	['6', 'return']	[2.0466126000974327, 2.9743691000621766]	6.11	5.15	3.0	10hz	high_pain	47.8				sub-052	250	52	46.7	47.8	COM5	COM15	COM3	2024-12-09_13h20.06.542	001-EEG_SVR_Officel	2022.2.5	238.77460849588877		9.54600000000005	1_sub-pilot052_SVR_EEG_block3-4.protocol.csv	step65	9209	924.459	STIMULATE	47.9	47.8	47.8	47.8	47.8	65	1672.2759999999998
1660.491	0	1660491	10hz	10004	3	0	3	0	15.0	0.0	15.0	0.0					1833.357040099916	1839.474355299957	1839.474355299957	6.0	['6', 'return']	[2.0466126000974327, 2.9743691000621766]	6.11	5.15	3.0	10hz	high_pain	47.8				sub-052	250	52	46.7	47.8	COM5	COM15	COM3	2024-12-09_13h20.06.542	001-EEG_SVR_Officel	2022.2.5	238.77460849588877		6.108999999999924	1_sub-pilot052_SVR_EEG_block3-4.protocol.csv	step65	9209	924.459	STIMULATE	47.9	47.8	47.8	47.8	47.8	65	1672.2759999999998
1666.395	0	1666395	10/Hi	10001	3	0	3	0	15.0	0.0	15.0	0.0					1833.357040099916	1839.474355299957	1839.474355299957	6.0	['6', 'return']	[2.0466126000974327, 2.9743691000621766]	6.11	5.15	3.0	10hz	high_pain	47.8				sub-052	250	52	46.7	47.8	COM5	COM15	COM3	2024-12-09_13h20.06.542	001-EEG_SVR_Officel	2022.2.5	238.77460849588877		5.153999999999996	1_sub-pilot052_SVR_EEG_block3-4.protocol.csv	step65	9209	924.459	STIMULATE	47.9	47.8	47.8	47.8	47.8	65	1672.2759999999998
1760.698	0	1760698	wait	10005	4	0	4	0	0.0	0.0	0.0	0.0			p	1.3102706000208857	1939.67293339991	1946.156083000009	1946.156083000009	7.0	['7', 'return']	[1.9077769999857992, 2.692902300041169]	6.48	5.99	0.0	10hz	high_pain	47.8				sub-052	250	52	46.7	47.8	COM5	COM15	COM3	2024-12-09_13h20.06.542	001-EEG_SVR_Officel	2022.2.5	238.77460849588877		95.05300000000011	2_sub-pilot052_SVR_EEG_block5-6.protocol.csv	step3	796	79.41	STIMULATE	48.1	47.7	47.7	47.7	48.0	3	1779.714
1767.173	0	1767173	10hz	10004	4	0	4	0	0.0	0.0	0.0	0.0			p	1.3102706000208857	1939.67293339991	1946.156083000009	1946.156083000009	7.0	['7', 'return']	[1.9077769999857992, 2.692902300041169]	6.48	5.99	0.0	10hz	high_pain	47.8				sub-052	250	52	46.7	47.8	COM5	COM15	COM3	2024-12-09_13h20.06.542	001-EEG_SVR_Officel	2022.2.5	238.77460849588877		6.474999999999909	2_sub-pilot052_SVR_EEG_block5-6.protocol.csv	step3	796	79.41	STIMULATE	48.1	47.7	47.7	47.7	48.0	3	1779.714
1773.914	0	1773914	10/Hi	10001	4	0	4	0	0.0	0.0	0.0	0.0			p	1.3102706000208857	1939.67293339991	1946.156083000009	1946.156083000009	7.0	['7', 'return']	[1.9077769999857992, 2.692902300041169]	6.48	5.99	0.0	10hz	high_pain	47.8				sub-052	250	52	46.7	47.8	COM5	COM15	COM3	2024-12-09_13h20.06.542	001-EEG_SVR_Officel	2022.2.5	238.77460849588877		5.9909999999999854	2_sub-pilot052_SVR_EEG_block5-6.protocol.csv	step3	796	79.41	STIMULATE	48.1	47.7	47.7	47.7	48.0	3	1779.714
1782.889	0	1782889	wait	10005	4	0	4	0	1.0	0.0	1.0	0.0					1961.864272699924	1967.8309173999587	1967.8309173999587	6.0	['6', 'return']	[1.4007259999634698, 2.1857021000469103]	5.96	5.85	1.0	20hz	high_pain	47.8				sub-052	250	52	46.7	47.8	COM5	COM15	COM3	2024-12-09_13h20.06.542	001-EEG_SVR_Officel	2022.2.5	238.77460849588877		9.724999999999909	2_sub-pilot052_SVR_EEG_block5-6.protocol.csv	step5	1013	100.928	STIMULATE	48.0	47.8	47.8	47.8	47.8	5	1801.232
1788.848	0	1788848	20hz	10004	4	0	4	0	1.0	0.0	1.0	0.0					1961.864272699924	1967.8309173999587	1967.8309173999587	6.0	['6', 'return']	[1.4007259999634698, 2.1857021000469103]	5.96	5.85	1.0	20hz	high_pain	47.8				sub-052	250	52	46.7	47.8	COM5	COM15	COM3	2024-12-09_13h20.06.542	001-EEG_SVR_Officel	2022.2.5	238.77460849588877		5.95900000000006	2_sub-pilot052_SVR_EEG_block5-6.protocol.csv	step5	1013	100.928	STIMULATE	48.0	47.8	47.8	47.8	47.8	5	1801.232
1795.452	0	1795452	20/Hi	10001	4	0	4	0	1.0	0.0	1.0	0.0					1961.864272699924	1967.8309173999587	1967.8309173999587	6.0	['6', 'return']	[1.4007259999634698, 2.1857021000469103]	5.96	5.85	1.0	20hz	high_pain	47.8				sub-052	250	52	46.7	47.8	COM5	COM15	COM3	2024-12-09_13h20.06.542	001-EEG_SVR_Officel	2022.2.5	238.77460849588877		5.854000000000042	2_sub-pilot052_SVR_EEG_block5-6.protocol.csv	step5	1013	100.928	STIMULATE	48.0	47.8	47.8	47.8	47.8	5	1801.232
1804.051	0	1804051	wait	10005	4	0	4	0	2.0	0.0	2.0	0.0					1983.0260830000043	1990.0015221999488	1990.0015221999488	6.0	['6', 'return']	[1.7184160000178963, 4.247135600075126]	6.97	6.15	2.0	20hz	high_pain	47.8				sub-052	250	52	46.7	47.8	COM5	COM15	COM3	2024-12-09_13h20.06.542	001-EEG_SVR_Officel	2022.2.5	238.77460849588877		9.348999999999933	2_sub-pilot052_SVR_EEG_block5-6.protocol.csv	step7	1239	123.315	STIMULATE	48.0	47.7	47.8	47.8	47.8	7	1823.619
1811.018	0	1811018	20hz	10004	4	0	4	0	2.0	0.0	2.0	0.0					1983.0260830000043	1990.0015221999488	1990.0015221999488	6.0	['6', 'return']	[1.7184160000178963, 4.247135600075126]	6.97	6.15	2.0	20hz	high_pain	47.8				sub-052	250	52	46.7	47.8	COM5	COM15	COM3	2024-12-09_13h20.06.542	001-EEG_SVR_Officel	2022.2.5	238.77460849588877		6.967000000000098	2_sub-pilot052_SVR_EEG_block5-6.protocol.csv	step7	1239	123.315	STIMULATE	48.0	47.7	47.8	47.8	47.8	7	1823.619
1817.922	0	1817922	20/Hi	10001	4	0	4	0	2.0	0.0	2.0	0.0					1983.0260830000043	1990.0015221999488	1990.0015221999488	6.0	['6', 'return']	[1.7184160000178963, 4.247135600075126]	6.97	6.15	2.0	20hz	high_pain	47.8				sub-052	250	52	46.7	47.8	COM5	COM15	COM3	2024-12-09_13h20.06.542	001-EEG_SVR_Officel	2022.2.5	238.77460849588877		6.153999999999996	2_sub-pilot052_SVR_EEG_block5-6.protocol.csv	step7	1239	123.315	STIMULATE	48.0	47.7	47.8	47.8	47.8	7	1823.619
1828.289	0	1828289	wait	10005	4	0	4	0	3.0	0.0	3.0	0.0					2007.2638955999864	2012.3805331999904	2012.3805331999904	4.0	['4', 'return']	[1.898789200000465, 2.828419900033623]	5.11	5.36	3.0	10hz	low_pain	46.7				sub-052	250	52	46.7	47.8	COM5	COM15	COM3	2024-12-09_13h20.06.542	001-EEG_SVR_Officel	2022.2.5	238.77460849588877		11.116999999999962	2_sub-pilot052_SVR_EEG_block5-6.protocol.csv	step9	1458	145.047	STIMULATE	46.7	46.6	46.6	46.6	46.7	9	1845.3509999999999
1833.397	0	1833397	10hz	10004	4	0	4	0	3.0	0.0	3.0	0.0					2007.2638955999864	2012.3805331999904	2012.3805331999904	4.0	['4', 'return']	[1.898789200000465, 2.828419900033623]	5.11	5.36	3.0	10hz	low_pain	46.7				sub-052	250	52	46.7	47.8	COM5	COM15	COM3	2024-12-09_13h20.06.542	001-EEG_SVR_Officel	2022.2.5	238.77460849588877		5.107999999999947	2_sub-pilot052_SVR_EEG_block5-6.protocol.csv	step9	1458	145.047	STIMULATE	46.7	46.6	46.6	46.6	46.7	9	1845.3509999999999
1839.51	0	1839510	10/Lo	10001	4	0	4	0	3.0	0.0	3.0	0.0					2007.2638955999864	2012.3805331999904	2012.3805331999904	4.0	['4', 'return']	[1.898789200000465, 2.828419900033623]	5.11	5.36	3.0	10hz	low_pain	46.7				sub-052	250	52	46.7	47.8	COM5	COM15	COM3	2024-12-09_13h20.06.542	001-EEG_SVR_Officel	2022.2.5	238.77460849588877		5.363000000000056	2_sub-pilot052_SVR_EEG_block5-6.protocol.csv	step9	1458	145.047	STIMULATE	46.7	46.6	46.6	46.6	46.7	9	1845.3509999999999
1849.248	0	1849248	wait	10005	4	0	4	0	4.0	0.0	4.0	0.0					2028.22278489999	2034.8181715999965	2034.8181715999965	4.0	['4', 'return']	[1.6906240000389516, 2.5942404000088573]	6.59	6.03	0.0	controle	low_pain	46.7				sub-052	250	52	46.7	47.8	COM5	COM15	COM3	2024-12-09_13h20.06.542	001-EEG_SVR_Officel	2022.2.5	238.77460849588877		10.488000000000056	2_sub-pilot052_SVR_EEG_block5-6.protocol.csv	step11	1691	168.151	STIMULATE	46.7	46.6	46.6	46.6	46.8	11	1868.455
1855.835	0	1855835	CNhz	10004	4	0	4	0	4.0	0.0	4.0	0.0					2028.22278489999	2034.8181715999965	2034.8181715999965	4.0	['4', 'return']	[1.6906240000389516, 2.5942404000088573]	6.59	6.03	0.0	controle	low_pain	46.7				sub-052	250	52	46.7	47.8	COM5	COM15	COM3	2024-12-09_13h20.06.542	001-EEG_SVR_Officel	2022.2.5	238.77460849588877		6.586999999999989	2_sub-pilot052_SVR_EEG_block5-6.protocol.csv	step11	1691	168.151	STIMULATE	46.7	46.6	46.6	46.6	46.8	11	1868.455
1862.618	0	1862618	CN/Lo	10001	4	0	4	0	4.0	0.0	4.0	0.0					2028.22278489999	2034.8181715999965	2034.8181715999965	4.0	['4', 'return']	[1.6906240000389516, 2.5942404000088573]	6.59	6.03	0.0	controle	low_pain	46.7				sub-052	250	52	46.7	47.8	COM5	COM15	COM3	2024-12-09_13h20.06.542	001-EEG_SVR_Officel	2022.2.5	238.77460849588877		6.032999999999902	2_sub-pilot052_SVR_EEG_block5-6.protocol.csv	step11	1691	168.151	STIMULATE	46.7	46.6	46.6	46.6	46.8	11	1868.455
1871.46	0	1871460	wait	10005	4	0	4	0	5.0	0.0	5.0	0.0					2050.4354940999765	2056.935542599997	2056.935542599997	6.0	['6', 'return']	[1.5533833000808954, 2.47344550001435]	6.49	5.08	1.0	40hz	high_pain	47.8				sub-052	250	52	46.7	47.8	COM5	COM15	COM3	2024-12-09_13h20.06.542	001-EEG_SVR_Officel	2022.2.5	238.77460849588877		9.592000000000098	2_sub-pilot052_SVR_EEG_block5-6.protocol.csv	step13	1905	189.317	STIMULATE	47.8	47.8	47.8	47.7	47.8	13	1889.621
1877.952	0	1877952	40hz	10004	4	0	4	0	5.0	0.0	5.0	0.0					2050.4354940999765	2056.935542599997	2056.935542599997	6.0	['6', 'return']	[1.5533833000808954, 2.47344550001435]	6.49	5.08	1.0	40hz	high_pain	47.8				sub-052	250	52	46.7	47.8	COM5	COM15	COM3	2024-12-09_13h20.06.542	001-EEG_SVR_Officel	2022.2.5	238.77460849588877		6.491999999999962	2_sub-pilot052_SVR_EEG_block5-6.protocol.csv	step13	1905	189.317	STIMULATE	47.8	47.8	47.8	47.7	47.8	13	1889.621
1883.784	0	1883784	40/Hi	10001	4	0	4	0	5.0	0.0	5.0	0.0					2050.4354940999765	2056.935542599997	2056.935542599997	6.0	['6', 'return']	[1.5533833000808954, 2.47344550001435]	6.49	5.08	1.0	40hz	high_pain	47.8				sub-052	250	52	46.7	47.8	COM5	COM15	COM3	2024-12-09_13h20.06.542	001-EEG_SVR_Officel	2022.2.5	238.77460849588877		5.082000000000107	2_sub-pilot052_SVR_EEG_block5-6.protocol.csv	step13	1905	189.317	STIMULATE	47.8	47.8	47.8	47.7	47.8	13	1889.621
1893.442	0	1893442	wait	10005	4	0	4	0	6.0	0.0	6.0	0.0					2072.4170116999885	2077.976537099923	2077.976537099923	2.0	['2', 'return']	[1.8797024000668898, 2.895975699997507]	5.55	5.46	2.0	40hz	low_pain	46.7				sub-052	250	52	46.7	47.8	COM5	COM15	COM3	2024-12-09_13h20.06.542	001-EEG_SVR_Officel	2022.2.5	238.77460849588877		10.407999999999902	2_sub-pilot052_SVR_EEG_block5-6.protocol.csv	step15	2121	210.767	STIMULATE	46.8	46.6	46.7	46.7	46.7	15	1911.071
1898.993	0	1898993	40hz	10004	4	0	4	0	6.0	0.0	6.0	0.0					2072.4170116999885	2077.976537099923	2077.976537099923	2.0	['2', 'return']	[1.8797024000668898, 2.895975699997507]	5.55	5.46	2.0	40hz	low_pain	46.7				sub-052	250	52	46.7	47.8	COM5	COM15	COM3	2024-12-09_13h20.06.542	001-EEG_SVR_Officel	2022.2.5	238.77460849588877		5.550999999999931	2_sub-pilot052_SVR_EEG_block5-6.protocol.csv	step15	2121	210.767	STIMULATE	46.8	46.6	46.7	46.7	46.7	15	1911.071
1905.204	0	1905204	40/Lo	10001	4	0	4	0	6.0	0.0	6.0	0.0					2072.4170116999885	2077.976537099923	2077.976537099923	2.0	['2', 'return']	[1.8797024000668898, 2.895975699997507]	5.55	5.46	2.0	40hz	low_pain	46.7				sub-052	250	52	46.7	47.8	COM5	COM15	COM3	2024-12-09_13h20.06.542	001-EEG_SVR_Officel	2022.2.5	238.77460849588877		5.461000000000013	2_sub-pilot052_SVR_EEG_block5-6.protocol.csv	step15	2121	210.767	STIMULATE	46.8	46.6	46.7	46.7	46.7	15	1911.071
1914.913	0	1914913	wait	10005	4	0	4	0	7.0	0.0	7.0	0.0					2093.8881514999084	2101.6339298000094	2101.6339298000094	8.0	['8', 'return']	[1.5179038000060245, 2.7509260000661016]	7.74	5.34	3.0	40hz	high_pain	47.8				sub-052	250	52	46.7	47.8	COM5	COM15	COM3	2024-12-09_13h20.06.542	001-EEG_SVR_Officel	2022.2.5	238.77460849588877		10.45900000000006	2_sub-pilot052_SVR_EEG_block5-6.protocol.csv	step17	2359	234.334	STIMULATE	47.8	47.8	47.8	47.8	47.8	17	1934.638
1922.651	0	1922651	40hz	10004	4	0	4	0	7.0	0.0	7.0	0.0					2093.8881514999084	2101.6339298000094	2101.6339298000094	8.0	['8', 'return']	[1.5179038000060245, 2.7509260000661016]	7.74	5.34	3.0	40hz	high_pain	47.8				sub-052	250	52	46.7	47.8	COM5	COM15	COM3	2024-12-09_13h20.06.542	001-EEG_SVR_Officel	2022.2.5	238.77460849588877		7.738000000000056	2_sub-pilot052_SVR_EEG_block5-6.protocol.csv	step17	2359	234.334	STIMULATE	47.8	47.8	47.8	47.8	47.8	17	1934.638
1928.743	0	1928743	40/Hi	10001	4	0	4	0	7.0	0.0	7.0	0.0					2093.8881514999084	2101.6339298000094	2101.6339298000094	8.0	['8', 'return']	[1.5179038000060245, 2.7509260000661016]	7.74	5.34	3.0	40hz	high_pain	47.8				sub-052	250	52	46.7	47.8	COM5	COM15	COM3	2024-12-09_13h20.06.542	001-EEG_SVR_Officel	2022.2.5	238.77460849588877		5.341999999999871	2_sub-pilot052_SVR_EEG_block5-6.protocol.csv	step17	2359	234.334	STIMULATE	47.8	47.8	47.8	47.8	47.8	17	1934.638
