onset	duration	sample	trial_type	value	block.thisRepN	block.thisTrialN	block.thisN	block.thisIndex	reps.thisRepN	reps.thisTrialN	reps.thisN	reps.thisIndex	afrec_start	rec_start	rec_start_egi	key_resp.keys	key_resp.rt	wait_time_text.started	wait_time_text.stopped	therm_loca_text.started	subResponse	keyResp.keys	keyResp.rt	ITI_wait	wait_trigger	loca_thermode	Hz_condition	temp_condition	temp_valeur	text.started	text.stopped	participant	brightness	num_part	low	high	com_svr	com_thermode	com_eeg	date	expName	psychopyVersion	frameRate	Unnamed: 39	distance_from_previous	file	step	index	time	type	temp1	temp2	temp3	temp4	temp5	step_num	time_sync
20.262	0	10131	wait	20	0	0	0	0	0.0	0.0	0.0	0.0	61.10797370038927	60.91290180012584	1710438872.4510057	p	20.02907529985532	81.164862500038	88.61712469998747	88.61712469998747	5.0	['5', 'return']	[4.185744800139219, 5.033880900125951]	7.44	6.21	0.0	10hz	high_pain	47.5			sub-024	250	24	46	47.5	COM11	COM15	COM3	2024-03-14_13h54.26.274	001-EEG_SVR_Officel	2022.2.5	144.22709468078162		20.262	0_sub-pilot024_SVR_EEG_block1-2.protocol.csv	step3	1835	183.32	STIMULATE	47.7	47.4	47.4	47.4	47.5	3	40.50799999999998
27.702	0	13851	10hz	3	0	0	0	0	0.0	0.0	0.0	0.0	61.10797370038927	60.91290180012584	1710438872.4510057	p	20.02907529985532	81.164862500038	88.61712469998747	88.61712469998747	5.0	['5', 'return']	[4.185744800139219, 5.033880900125951]	7.44	6.21	0.0	10hz	high_pain	47.5			sub-024	250	24	46	47.5	COM11	COM15	COM3	2024-03-14_13h54.26.274	001-EEG_SVR_Officel	2022.2.5	144.22709468078162		7.440000000000001	0_sub-pilot024_SVR_EEG_block1-2.protocol.csv	step3	1835	183.32	STIMULATE	47.7	47.4	47.4	47.4	47.5	3	40.50799999999998
34.666	0	17333	10/Hi	1	0	0	0	0	0.0	0.0	0.0	0.0	61.10797370038927	60.91290180012584	1710438872.4510057	p	20.02907529985532	81.164862500038	88.61712469998747	88.61712469998747	5.0	['5', 'return']	[4.185744800139219, 5.033880900125951]	7.44	6.21	0.0	10hz	high_pain	47.5			sub-024	250	24	46	47.5	COM11	COM15	COM3	2024-03-14_13h54.26.274	001-EEG_SVR_Officel	2022.2.5	144.22709468078162		6.213999999999995	0_sub-pilot024_SVR_EEG_block1-2.protocol.csv	step3	1835	183.32	STIMULATE	47.7	47.4	47.4	47.4	47.5	3	40.50799999999998
45.758	0	22879	wait	20	0	0	0	0	1.0	0.0	1.0	0.0						106.66127660032362	112.43270860007031	112.43270860007031	5.0	['5', 'return']	[3.4263987001031637, 4.994525799993426]	5.76	6.02	1.0	controle	high_pain	47.5			sub-024	250	24	46	47.5	COM11	COM15	COM3	2024-03-14_13h54.26.274	001-EEG_SVR_Officel	2022.2.5	144.22709468078162		11.842000000000006	0_sub-pilot024_SVR_EEG_block1-2.protocol.csv	step5	2073	206.963	STIMULATE	47.6	47.4	47.4	47.4	47.5	5	64.15099999999998
51.518	0	25759	CNhz	12	0	0	0	0	1.0	0.0	1.0	0.0						106.66127660032362	112.43270860007031	112.43270860007031	5.0	['5', 'return']	[3.4263987001031637, 4.994525799993426]	5.76	6.02	1.0	controle	high_pain	47.5			sub-024	250	24	46	47.5	COM11	COM15	COM3	2024-03-14_13h54.26.274	001-EEG_SVR_Officel	2022.2.5	144.22709468078162		5.759999999999998	0_sub-pilot024_SVR_EEG_block1-2.protocol.csv	step5	2073	206.963	STIMULATE	47.6	47.4	47.4	47.4	47.5	5	64.15099999999998
58.288	0	29144	CN/Hi	10	0	0	0	0	1.0	0.0	1.0	0.0						106.66127660032362	112.43270860007031	112.43270860007031	5.0	['5', 'return']	[3.4263987001031637, 4.994525799993426]	5.76	6.02	1.0	controle	high_pain	47.5			sub-024	250	24	46	47.5	COM11	COM15	COM3	2024-03-14_13h54.26.274	001-EEG_SVR_Officel	2022.2.5	144.22709468078162		6.019999999999996	0_sub-pilot024_SVR_EEG_block1-2.protocol.csv	step5	2073	206.963	STIMULATE	47.6	47.4	47.4	47.4	47.5	5	64.15099999999998
69.538	0	34769	wait	20	0	0	0	0	2.0	0.0	2.0	0.0						130.44116860022768	138.03984420001507	138.03984420001507	4.5	['4', 'a', '5', 'return']	[3.4262248002924025, 3.690251599997282, 3.898855499923229, 4.65901040006429]	7.59	5.53	2.0	20hz	high_pain	47.5			sub-024	250	24	46	47.5	COM11	COM15	COM3	2024-03-14_13h54.26.274	001-EEG_SVR_Officel	2022.2.5	144.22709468078162		12.0	0_sub-pilot024_SVR_EEG_block1-2.protocol.csv	step7	2326	232.011	STIMULATE	47.5	47.4	47.4	47.4	47.4	7	89.19899999999998
77.124	0	38562	20hz	6	0	0	0	0	2.0	0.0	2.0	0.0						130.44116860022768	138.03984420001507	138.03984420001507	4.5	['4', 'a', '5', 'return']	[3.4262248002924025, 3.690251599997282, 3.898855499923229, 4.65901040006429]	7.59	5.53	2.0	20hz	high_pain	47.5			sub-024	250	24	46	47.5	COM11	COM15	COM3	2024-03-14_13h54.26.274	001-EEG_SVR_Officel	2022.2.5	144.22709468078162		7.5859999999999985	0_sub-pilot024_SVR_EEG_block1-2.protocol.csv	step7	2326	232.011	STIMULATE	47.5	47.4	47.4	47.4	47.4	7	89.19899999999998
83.408	0	41704	20/Hi	4	0	0	0	0	2.0	0.0	2.0	0.0						130.44116860022768	138.03984420001507	138.03984420001507	4.5	['4', 'a', '5', 'return']	[3.4262248002924025, 3.690251599997282, 3.898855499923229, 4.65901040006429]	7.59	5.53	2.0	20hz	high_pain	47.5			sub-024	250	24	46	47.5	COM11	COM15	COM3	2024-03-14_13h54.26.274	001-EEG_SVR_Officel	2022.2.5	144.22709468078162		5.534000000000006	0_sub-pilot024_SVR_EEG_block1-2.protocol.csv	step7	2326	232.011	STIMULATE	47.5	47.4	47.4	47.4	47.4	7	89.19899999999998
94.812	0	47406	wait	20	0	0	0	0	3.0	0.0	3.0	0.0						155.7158754002303	161.3828716003336	161.3828716003336	1.0	['1', 'return']	[2.891923999879509, 3.9794079000130296]	5.66	6.14	3.0	controle	low_pain	46.0			sub-024	250	24	46	47.5	COM11	COM15	COM3	2024-03-14_13h54.26.274	001-EEG_SVR_Officel	2022.2.5	144.22709468078162		12.153999999999996	0_sub-pilot024_SVR_EEG_block1-2.protocol.csv	step9	2568	256.073	STIMULATE	45.9	45.9	45.9	45.9	45.9	9	113.26099999999997
100.468	0	50234	CNhz	12	0	0	0	0	3.0	0.0	3.0	0.0						155.7158754002303	161.3828716003336	161.3828716003336	1.0	['1', 'return']	[2.891923999879509, 3.9794079000130296]	5.66	6.14	3.0	controle	low_pain	46.0			sub-024	250	24	46	47.5	COM11	COM15	COM3	2024-03-14_13h54.26.274	001-EEG_SVR_Officel	2022.2.5	144.22709468078162		5.656000000000006	0_sub-pilot024_SVR_EEG_block1-2.protocol.csv	step9	2568	256.073	STIMULATE	45.9	45.9	45.9	45.9	45.9	9	113.26099999999997
107.356	0	53678	CN/Lo	11	0	0	0	0	3.0	0.0	3.0	0.0						155.7158754002303	161.3828716003336	161.3828716003336	1.0	['1', 'return']	[2.891923999879509, 3.9794079000130296]	5.66	6.14	3.0	controle	low_pain	46.0			sub-024	250	24	46	47.5	COM11	COM15	COM3	2024-03-14_13h54.26.274	001-EEG_SVR_Officel	2022.2.5	144.22709468078162		6.137999999999991	0_sub-pilot024_SVR_EEG_block1-2.protocol.csv	step9	2568	256.073	STIMULATE	45.9	45.9	45.9	45.9	45.9	9	113.26099999999997
117.476	0	58738	wait	20	0	0	0	0	4.0	0.0	4.0	0.0						178.3779434002936	184.68435360025612	184.68435360025612	1.5	['1', 'a', '5', 'return']	[2.775295800063759, 3.295436799991876, 3.5266629001125693, 4.472434299997985]	6.3	5.48	0.0	20hz	low_pain	46.0			sub-024	250	24	46	47.5	COM11	COM15	COM3	2024-03-14_13h54.26.274	001-EEG_SVR_Officel	2022.2.5	144.22709468078162		10.870000000000005	0_sub-pilot024_SVR_EEG_block1-2.protocol.csv	step11	2797	278.718	STIMULATE	46.1	45.9	45.9	45.9	45.9	11	135.906
123.768	0	61884	20hz	6	0	0	0	0	4.0	0.0	4.0	0.0						178.3779434002936	184.68435360025612	184.68435360025612	1.5	['1', 'a', '5', 'return']	[2.775295800063759, 3.295436799991876, 3.5266629001125693, 4.472434299997985]	6.3	5.48	0.0	20hz	low_pain	46.0			sub-024	250	24	46	47.5	COM11	COM15	COM3	2024-03-14_13h54.26.274	001-EEG_SVR_Officel	2022.2.5	144.22709468078162		6.292000000000002	0_sub-pilot024_SVR_EEG_block1-2.protocol.csv	step11	2797	278.718	STIMULATE	46.1	45.9	45.9	45.9	45.9	11	135.906
130.004	0	65001	20/Lo	5	0	0	0	0	4.0	0.0	4.0	0.0						178.3779434002936	184.68435360025612	184.68435360025612	1.5	['1', 'a', '5', 'return']	[2.775295800063759, 3.295436799991876, 3.5266629001125693, 4.472434299997985]	6.3	5.48	0.0	20hz	low_pain	46.0			sub-024	250	24	46	47.5	COM11	COM15	COM3	2024-03-14_13h54.26.274	001-EEG_SVR_Officel	2022.2.5	144.22709468078162		5.48599999999999	0_sub-pilot024_SVR_EEG_block1-2.protocol.csv	step11	2797	278.718	STIMULATE	46.1	45.9	45.9	45.9	45.9	11	135.906
141.268	0	70634	wait	20	0	0	0	0	5.0	0.0	5.0	0.0						202.1726172002964	208.17346280021596	208.17346280021596	4.0	['4', 'return']	[2.658662499859929, 3.323498399928212]	5.99	5.09	1.0	10hz	high_pain	47.5			sub-024	250	24	46	47.5	COM11	COM15	COM3	2024-03-14_13h54.26.274	001-EEG_SVR_Officel	2022.2.5	144.22709468078162		12.01400000000001	0_sub-pilot024_SVR_EEG_block1-2.protocol.csv	step13	3030	301.823	STIMULATE	47.6	47.4	47.4	47.4	47.4	13	159.01099999999997
147.258	0	73629	10hz	3	0	0	0	0	5.0	0.0	5.0	0.0						202.1726172002964	208.17346280021596	208.17346280021596	4.0	['4', 'return']	[2.658662499859929, 3.323498399928212]	5.99	5.09	1.0	10hz	high_pain	47.5			sub-024	250	24	46	47.5	COM11	COM15	COM3	2024-03-14_13h54.26.274	001-EEG_SVR_Officel	2022.2.5	144.22709468078162		5.990000000000009	0_sub-pilot024_SVR_EEG_block1-2.protocol.csv	step13	3030	301.823	STIMULATE	47.6	47.4	47.4	47.4	47.4	13	159.01099999999997
153.098	0	76549	10/Hi	1	0	0	0	0	5.0	0.0	5.0	0.0						202.1726172002964	208.17346280021596	208.17346280021596	4.0	['4', 'return']	[2.658662499859929, 3.323498399928212]	5.99	5.09	1.0	10hz	high_pain	47.5			sub-024	250	24	46	47.5	COM11	COM15	COM3	2024-03-14_13h54.26.274	001-EEG_SVR_Officel	2022.2.5	144.22709468078162		5.090000000000003	0_sub-pilot024_SVR_EEG_block1-2.protocol.csv	step13	3030	301.823	STIMULATE	47.6	47.4	47.4	47.4	47.4	13	159.01099999999997
163.604	0	81802	wait	20	0	0	0	0	6.0	0.0	6.0	0.0						224.5079853003845	231.2177371000871	231.2177371000871	4.0	['4', 'return']	[2.080952300224453, 2.7129419003613293]	6.7	6.47	2.0	40hz	high_pain	47.5			sub-024	250	24	46	47.5	COM11	COM15	COM3	2024-03-14_13h54.26.274	001-EEG_SVR_Officel	2022.2.5	144.22709468078162		11.256	0_sub-pilot024_SVR_EEG_block1-2.protocol.csv	step15	3276	326.24	STIMULATE	47.5	47.4	47.4	47.4	47.5	15	183.428
170.302	0	85151	40hz	9	0	0	0	0	6.0	0.0	6.0	0.0						224.5079853003845	231.2177371000871	231.2177371000871	4.0	['4', 'return']	[2.080952300224453, 2.7129419003613293]	6.7	6.47	2.0	40hz	high_pain	47.5			sub-024	250	24	46	47.5	COM11	COM15	COM3	2024-03-14_13h54.26.274	001-EEG_SVR_Officel	2022.2.5	144.22709468078162		6.697999999999979	0_sub-pilot024_SVR_EEG_block1-2.protocol.csv	step15	3276	326.24	STIMULATE	47.5	47.4	47.4	47.4	47.5	15	183.428
177.522	0	88761	40/Hi	7	0	0	0	0	6.0	0.0	6.0	0.0						224.5079853003845	231.2177371000871	231.2177371000871	4.0	['4', 'return']	[2.080952300224453, 2.7129419003613293]	6.7	6.47	2.0	40hz	high_pain	47.5			sub-024	250	24	46	47.5	COM11	COM15	COM3	2024-03-14_13h54.26.274	001-EEG_SVR_Officel	2022.2.5	144.22709468078162		6.469999999999999	0_sub-pilot024_SVR_EEG_block1-2.protocol.csv	step15	3276	326.24	STIMULATE	47.5	47.4	47.4	47.4	47.5	15	183.428
186.044	0	93022	wait	20	0	0	0	0	7.0	0.0	7.0	0.0						246.94874999998137	253.83856180030853	253.83856180030853	0.5	['0', 'a', '5', 'return']	[2.8287699003703892, 3.3158857002854347, 3.5399374002590775, 4.341592499986291]	6.88	6.41	3.0	40hz	low_pain	46.0			sub-024	250	24	46	47.5	COM11	COM15	COM3	2024-03-14_13h54.26.274	001-EEG_SVR_Officel	2022.2.5	144.22709468078162		9.27200000000002	0_sub-pilot024_SVR_EEG_block1-2.protocol.csv	step17	3503	348.782	STIMULATE	45.9	45.9	45.9	45.9	45.9	17	205.96999999999997
192.922	0	96461	40hz	9	0	0	0	0	7.0	0.0	7.0	0.0						246.94874999998137	253.83856180030853	253.83856180030853	0.5	['0', 'a', '5', 'return']	[2.8287699003703892, 3.3158857002854347, 3.5399374002590775, 4.341592499986291]	6.88	6.41	3.0	40hz	low_pain	46.0			sub-024	250	24	46	47.5	COM11	COM15	COM3	2024-03-14_13h54.26.274	001-EEG_SVR_Officel	2022.2.5	144.22709468078162		6.877999999999986	0_sub-pilot024_SVR_EEG_block1-2.protocol.csv	step17	3503	348.782	STIMULATE	45.9	45.9	45.9	45.9	45.9	17	205.96999999999997
200.082	0	100041	40/Lo	8	0	0	0	0	7.0	0.0	7.0	0.0						246.94874999998137	253.83856180030853	253.83856180030853	0.5	['0', 'a', '5', 'return']	[2.8287699003703892, 3.3158857002854347, 3.5399374002590775, 4.341592499986291]	6.88	6.41	3.0	40hz	low_pain	46.0			sub-024	250	24	46	47.5	COM11	COM15	COM3	2024-03-14_13h54.26.274	001-EEG_SVR_Officel	2022.2.5	144.22709468078162		6.409999999999997	0_sub-pilot024_SVR_EEG_block1-2.protocol.csv	step17	3503	348.782	STIMULATE	45.9	45.9	45.9	45.9	45.9	17	205.96999999999997
210.298	0	105149	wait	20	0	0	0	0	8.0	0.0	8.0	0.0						271.2018376002088	276.57789900014177	276.57789900014177	4.5	['4', 'a', '5', 'return']	[3.0889838002622128, 3.328862600028515, 3.5446968004107475, 4.216458300128579]	5.37	6.38	0.0	40hz	high_pain	47.5			sub-024	250	24	46	47.5	COM11	COM15	COM3	2024-03-14_13h54.26.274	001-EEG_SVR_Officel	2022.2.5	144.22709468078162		10.966000000000008	0_sub-pilot024_SVR_EEG_block1-2.protocol.csv	step19	3732	371.456	STIMULATE	47.7	47.4	47.4	47.4	47.5	19	228.644
215.662	0	107831	40hz	9	0	0	0	0	8.0	0.0	8.0	0.0						271.2018376002088	276.57789900014177	276.57789900014177	4.5	['4', 'a', '5', 'return']	[3.0889838002622128, 3.328862600028515, 3.5446968004107475, 4.216458300128579]	5.37	6.38	0.0	40hz	high_pain	47.5			sub-024	250	24	46	47.5	COM11	COM15	COM3	2024-03-14_13h54.26.274	001-EEG_SVR_Officel	2022.2.5	144.22709468078162		5.364000000000004	0_sub-pilot024_SVR_EEG_block1-2.protocol.csv	step19	3732	371.456	STIMULATE	47.7	47.4	47.4	47.4	47.5	19	228.644
222.792	0	111396	40/Hi	7	0	0	0	0	8.0	0.0	8.0	0.0						271.2018376002088	276.57789900014177	276.57789900014177	4.5	['4', 'a', '5', 'return']	[3.0889838002622128, 3.328862600028515, 3.5446968004107475, 4.216458300128579]	5.37	6.38	0.0	40hz	high_pain	47.5			sub-024	250	24	46	47.5	COM11	COM15	COM3	2024-03-14_13h54.26.274	001-EEG_SVR_Officel	2022.2.5	144.22709468078162		6.3799999999999955	0_sub-pilot024_SVR_EEG_block1-2.protocol.csv	step19	3732	371.456	STIMULATE	47.7	47.4	47.4	47.4	47.5	19	228.644
232.91	0	116455	wait	20	0	0	0	0	9.0	0.0	9.0	0.0						293.8158756000921	301.6364216003567	301.6364216003567	1.5	['1', 'a', '5', 'return']	[3.359446699731052, 3.8227079999633133, 4.0312696998007596, 4.7192910998128355]	7.81	5.49	1.0	controle	low_pain	46.0			sub-024	250	24	46	47.5	COM11	COM15	COM3	2024-03-14_13h54.26.274	001-EEG_SVR_Officel	2022.2.5	144.22709468078162		10.867999999999995	0_sub-pilot024_SVR_EEG_block1-2.protocol.csv	step21	3976	395.638	STIMULATE	46.0	45.9	45.9	45.9	45.9	21	252.82599999999996
240.72	0	120360	CNhz	12	0	0	0	0	9.0	0.0	9.0	0.0						293.8158756000921	301.6364216003567	301.6364216003567	1.5	['1', 'a', '5', 'return']	[3.359446699731052, 3.8227079999633133, 4.0312696998007596, 4.7192910998128355]	7.81	5.49	1.0	controle	low_pain	46.0			sub-024	250	24	46	47.5	COM11	COM15	COM3	2024-03-14_13h54.26.274	001-EEG_SVR_Officel	2022.2.5	144.22709468078162		7.810000000000002	0_sub-pilot024_SVR_EEG_block1-2.protocol.csv	step21	3976	395.638	STIMULATE	46.0	45.9	45.9	45.9	45.9	21	252.82599999999996
246.96	0	123480	CN/Lo	11	0	0	0	0	9.0	0.0	9.0	0.0						293.8158756000921	301.6364216003567	301.6364216003567	1.5	['1', 'a', '5', 'return']	[3.359446699731052, 3.8227079999633133, 4.0312696998007596, 4.7192910998128355]	7.81	5.49	1.0	controle	low_pain	46.0			sub-024	250	24	46	47.5	COM11	COM15	COM3	2024-03-14_13h54.26.274	001-EEG_SVR_Officel	2022.2.5	144.22709468078162		5.490000000000009	0_sub-pilot024_SVR_EEG_block1-2.protocol.csv	step21	3976	395.638	STIMULATE	46.0	45.9	45.9	45.9	45.9	21	252.82599999999996
258.462	0	129231	wait	20	0	0	0	0	10.0	0.0	10.0	0.0						319.3666393002495	325.9165700003505	325.9165700003505	4.0	['4', 'return']	[2.4941951003856957, 3.1509509002789855]	6.54	6.03	2.0	10hz	high_pain	47.5			sub-024	250	24	46	47.5	COM11	COM15	COM3	2024-03-14_13h54.26.274	001-EEG_SVR_Officel	2022.2.5	144.22709468078162		12.251999999999981	0_sub-pilot024_SVR_EEG_block1-2.protocol.csv	step23	4226	420.468	STIMULATE	47.5	47.4	47.4	47.4	47.4	23	277.656
265.0	0	132500	10hz	3	0	0	0	0	10.0	0.0	10.0	0.0						319.3666393002495	325.9165700003505	325.9165700003505	4.0	['4', 'return']	[2.4941951003856957, 3.1509509002789855]	6.54	6.03	2.0	10hz	high_pain	47.5			sub-024	250	24	46	47.5	COM11	COM15	COM3	2024-03-14_13h54.26.274	001-EEG_SVR_Officel	2022.2.5	144.22709468078162		6.538000000000011	0_sub-pilot024_SVR_EEG_block1-2.protocol.csv	step23	4226	420.468	STIMULATE	47.5	47.4	47.4	47.4	47.4	23	277.656
271.784	0	135892	10/Hi	1	0	0	0	0	10.0	0.0	10.0	0.0						319.3666393002495	325.9165700003505	325.9165700003505	4.0	['4', 'return']	[2.4941951003856957, 3.1509509002789855]	6.54	6.03	2.0	10hz	high_pain	47.5			sub-024	250	24	46	47.5	COM11	COM15	COM3	2024-03-14_13h54.26.274	001-EEG_SVR_Officel	2022.2.5	144.22709468078162		6.033999999999992	0_sub-pilot024_SVR_EEG_block1-2.protocol.csv	step23	4226	420.468	STIMULATE	47.5	47.4	47.4	47.4	47.4	23	277.656
281.174	0	140587	wait	20	0	0	0	0	11.0	0.0	11.0	0.0						342.07785900030285	348.8362167002633	348.8362167002633	3.0	['3', 'return']	[1.3429259001277387, 5.151316499803215]	6.75	5.1	3.0	20hz	high_pain	47.5			sub-024	250	24	46	47.5	COM11	COM15	COM3	2024-03-14_13h54.26.274	001-EEG_SVR_Officel	2022.2.5	144.22709468078162		10.139999999999986	0_sub-pilot024_SVR_EEG_block1-2.protocol.csv	step25	4448	442.48	STIMULATE	47.5	47.4	47.4	47.4	47.5	25	299.668
287.92	0	143960	20hz	6	0	0	0	0	11.0	0.0	11.0	0.0						342.07785900030285	348.8362167002633	348.8362167002633	3.0	['3', 'return']	[1.3429259001277387, 5.151316499803215]	6.75	5.1	3.0	20hz	high_pain	47.5			sub-024	250	24	46	47.5	COM11	COM15	COM3	2024-03-14_13h54.26.274	001-EEG_SVR_Officel	2022.2.5	144.22709468078162		6.746000000000038	0_sub-pilot024_SVR_EEG_block1-2.protocol.csv	step25	4448	442.48	STIMULATE	47.5	47.4	47.4	47.4	47.5	25	299.668
293.772	0	146886	20/Hi	4	0	0	0	0	11.0	0.0	11.0	0.0						342.07785900030285	348.8362167002633	348.8362167002633	3.0	['3', 'return']	[1.3429259001277387, 5.151316499803215]	6.75	5.1	3.0	20hz	high_pain	47.5			sub-024	250	24	46	47.5	COM11	COM15	COM3	2024-03-14_13h54.26.274	001-EEG_SVR_Officel	2022.2.5	144.22709468078162		5.101999999999975	0_sub-pilot024_SVR_EEG_block1-2.protocol.csv	step25	4448	442.48	STIMULATE	47.5	47.4	47.4	47.4	47.5	25	299.668
306.1	0	153050	wait	20	0	0	0	0	12.0	0.0	12.0	0.0						367.0051865000278	373.8320034001954	373.8320034001954	1.0	['1', 'return']	[3.0110009000636637, 3.6988678998313844]	6.82	5.16	0.0	controle	low_pain	46.0			sub-024	250	24	46	47.5	COM11	COM15	COM3	2024-03-14_13h54.26.274	001-EEG_SVR_Officel	2022.2.5	144.22709468078162		13.078000000000031	0_sub-pilot024_SVR_EEG_block1-2.protocol.csv	step27	4701	467.569	STIMULATE	46.2	45.9	45.9	45.9	45.9	27	324.757
312.914	0	156457	CNhz	12	0	0	0	0	12.0	0.0	12.0	0.0						367.0051865000278	373.8320034001954	373.8320034001954	1.0	['1', 'return']	[3.0110009000636637, 3.6988678998313844]	6.82	5.16	0.0	controle	low_pain	46.0			sub-024	250	24	46	47.5	COM11	COM15	COM3	2024-03-14_13h54.26.274	001-EEG_SVR_Officel	2022.2.5	144.22709468078162		6.8139999999999645	0_sub-pilot024_SVR_EEG_block1-2.protocol.csv	step27	4701	467.569	STIMULATE	46.2	45.9	45.9	45.9	45.9	27	324.757
318.824	0	159412	CN/Lo	11	0	0	0	0	12.0	0.0	12.0	0.0						367.0051865000278	373.8320034001954	373.8320034001954	1.0	['1', 'return']	[3.0110009000636637, 3.6988678998313844]	6.82	5.16	0.0	controle	low_pain	46.0			sub-024	250	24	46	47.5	COM11	COM15	COM3	2024-03-14_13h54.26.274	001-EEG_SVR_Officel	2022.2.5	144.22709468078162		5.160000000000025	0_sub-pilot024_SVR_EEG_block1-2.protocol.csv	step27	4701	467.569	STIMULATE	46.2	45.9	45.9	45.9	45.9	27	324.757
329.636	0	164818	wait	20	0	0	0	0	13.0	0.0	13.0	0.0						390.5420214002952	398.0713076000102	398.0713076000102	1.0	['1', 'return']	[2.9386496003717184, 3.9312753002159297]	7.52	5.62	1.0	20hz	low_pain	46.0			sub-024	250	24	46	47.5	COM11	COM15	COM3	2024-03-14_13h54.26.274	001-EEG_SVR_Officel	2022.2.5	144.22709468078162		11.562000000000012	0_sub-pilot024_SVR_EEG_block1-2.protocol.csv	step29	4950	492.241	STIMULATE	46.1	45.9	45.9	45.9	45.9	29	349.429
337.154	0	168577	20hz	6	0	0	0	0	13.0	0.0	13.0	0.0						390.5420214002952	398.0713076000102	398.0713076000102	1.0	['1', 'return']	[2.9386496003717184, 3.9312753002159297]	7.52	5.62	1.0	20hz	low_pain	46.0			sub-024	250	24	46	47.5	COM11	COM15	COM3	2024-03-14_13h54.26.274	001-EEG_SVR_Officel	2022.2.5	144.22709468078162		7.517999999999972	0_sub-pilot024_SVR_EEG_block1-2.protocol.csv	step29	4950	492.241	STIMULATE	46.1	45.9	45.9	45.9	45.9	29	349.429
343.528	0	171764	20/Lo	5	0	0	0	0	13.0	0.0	13.0	0.0						390.5420214002952	398.0713076000102	398.0713076000102	1.0	['1', 'return']	[2.9386496003717184, 3.9312753002159297]	7.52	5.62	1.0	20hz	low_pain	46.0			sub-024	250	24	46	47.5	COM11	COM15	COM3	2024-03-14_13h54.26.274	001-EEG_SVR_Officel	2022.2.5	144.22709468078162		5.624000000000024	0_sub-pilot024_SVR_EEG_block1-2.protocol.csv	step29	4950	492.241	STIMULATE	46.1	45.9	45.9	45.9	45.9	29	349.429
354.122	0	177061	wait	20	0	0	0	0	14.0	0.0	14.0	0.0						415.0274512004107	421.8037896002643	421.8037896002643	1.0	['1', 'return']	[2.136446400079876, 2.928622600156814]	6.77	5.94	2.0	40hz	low_pain	46.0			sub-024	250	24	46	47.5	COM11	COM15	COM3	2024-03-14_13h54.26.274	001-EEG_SVR_Officel	2022.2.5	144.22709468078162		11.343999999999994	0_sub-pilot024_SVR_EEG_block1-2.protocol.csv	step31	5192	516.287	STIMULATE	46.0	45.9	45.9	45.9	45.9	31	373.475
360.886	0	180443	40hz	9	0	0	0	0	14.0	0.0	14.0	0.0						415.0274512004107	421.8037896002643	421.8037896002643	1.0	['1', 'return']	[2.136446400079876, 2.928622600156814]	6.77	5.94	2.0	40hz	low_pain	46.0			sub-024	250	24	46	47.5	COM11	COM15	COM3	2024-03-14_13h54.26.274	001-EEG_SVR_Officel	2022.2.5	144.22709468078162		6.76400000000001	0_sub-pilot024_SVR_EEG_block1-2.protocol.csv	step31	5192	516.287	STIMULATE	46.0	45.9	45.9	45.9	45.9	31	373.475
367.58	0	183790	40/Lo	8	0	0	0	0	14.0	0.0	14.0	0.0						415.0274512004107	421.8037896002643	421.8037896002643	1.0	['1', 'return']	[2.136446400079876, 2.928622600156814]	6.77	5.94	2.0	40hz	low_pain	46.0			sub-024	250	24	46	47.5	COM11	COM15	COM3	2024-03-14_13h54.26.274	001-EEG_SVR_Officel	2022.2.5	144.22709468078162		5.94399999999996	0_sub-pilot024_SVR_EEG_block1-2.protocol.csv	step31	5192	516.287	STIMULATE	46.0	45.9	45.9	45.9	45.9	31	373.475
376.838	0	188419	wait	20	0	0	0	0	15.0	0.0	15.0	0.0						437.74195710010827	445.062891700305	445.062891700305	4.0	['4', 'return']	[2.028309099841863, 2.7642601998522878]	7.31	5.13	3.0	controle	high_pain	47.5			sub-024	250	24	46	47.5	COM11	COM15	COM3	2024-03-14_13h54.26.274	001-EEG_SVR_Officel	2022.2.5	144.22709468078162		10.008000000000038	0_sub-pilot024_SVR_EEG_block1-2.protocol.csv	step33	5419	538.801	STIMULATE	47.6	47.4	47.4	47.4	47.4	33	395.98900000000003
384.144	0	192072	CNhz	12	0	0	0	0	15.0	0.0	15.0	0.0						437.74195710010827	445.062891700305	445.062891700305	4.0	['4', 'return']	[2.028309099841863, 2.7642601998522878]	7.31	5.13	3.0	controle	high_pain	47.5			sub-024	250	24	46	47.5	COM11	COM15	COM3	2024-03-14_13h54.26.274	001-EEG_SVR_Officel	2022.2.5	144.22709468078162		7.305999999999983	0_sub-pilot024_SVR_EEG_block1-2.protocol.csv	step33	5419	538.801	STIMULATE	47.6	47.4	47.4	47.4	47.4	33	395.98900000000003
390.026	0	195013	CN/Hi	10	0	0	0	0	15.0	0.0	15.0	0.0						437.74195710010827	445.062891700305	445.062891700305	4.0	['4', 'return']	[2.028309099841863, 2.7642601998522878]	7.31	5.13	3.0	controle	high_pain	47.5			sub-024	250	24	46	47.5	COM11	COM15	COM3	2024-03-14_13h54.26.274	001-EEG_SVR_Officel	2022.2.5	144.22709468078162		5.132000000000005	0_sub-pilot024_SVR_EEG_block1-2.protocol.csv	step33	5419	538.801	STIMULATE	47.6	47.4	47.4	47.4	47.4	33	395.98900000000003
473.738	0	236869	wait	20	1	0	1	0	0.0	0.0	0.0	0.0				p	0.9648711998015642	534.643912000116	541.3665191000327	541.3665191000327	0.5	['0', 'a', '5', 'return']	[3.0364623996429145, 3.7884192997589707, 4.013326499611139, 4.861079499591142]	6.71	6.29	0.0	10hz	low_pain	46.0			sub-024	250	24	46	47.5	COM11	COM15	COM3	2024-03-14_13h54.26.274	001-EEG_SVR_Officel	2022.2.5	144.22709468078162		84.46199999999999	0_sub-pilot024_SVR_EEG_block1-2.protocol.csv	step35	6395	636.158	STIMULATE	46.1	45.9	45.9	45.9	46.0	35	493.348
480.448	0	240224	10hz	3	1	0	1	0	0.0	0.0	0.0	0.0				p	0.9648711998015642	534.643912000116	541.3665191000327	541.3665191000327	0.5	['0', 'a', '5', 'return']	[3.0364623996429145, 3.7884192997589707, 4.013326499611139, 4.861079499591142]	6.71	6.29	0.0	10hz	low_pain	46.0			sub-024	250	24	46	47.5	COM11	COM15	COM3	2024-03-14_13h54.26.274	001-EEG_SVR_Officel	2022.2.5	144.22709468078162		6.7099999999999795	0_sub-pilot024_SVR_EEG_block1-2.protocol.csv	step35	6395	636.158	STIMULATE	46.1	45.9	45.9	45.9	46.0	35	493.348
487.488	0	243744	10/Lo	2	1	0	1	0	0.0	0.0	0.0	0.0				p	0.9648711998015642	534.643912000116	541.3665191000327	541.3665191000327	0.5	['0', 'a', '5', 'return']	[3.0364623996429145, 3.7884192997589707, 4.013326499611139, 4.861079499591142]	6.71	6.29	0.0	10hz	low_pain	46.0			sub-024	250	24	46	47.5	COM11	COM15	COM3	2024-03-14_13h54.26.274	001-EEG_SVR_Officel	2022.2.5	144.22709468078162		6.2900000000000205	0_sub-pilot024_SVR_EEG_block1-2.protocol.csv	step35	6395	636.158	STIMULATE	46.1	45.9	45.9	45.9	46.0	35	493.348
498.336	0	249168	wait	20	1	0	1	0	1.0	0.0	1.0	0.0						559.2432577	567.1747650001198	567.1747650001198	1.0	['1', 'return']	[2.778973300009966, 3.426049300003797]	7.92	5.19	1.0	10hz	low_pain	46.0			sub-024	250	24	46	47.5	COM11	COM15	COM3	2024-03-14_13h54.26.274	001-EEG_SVR_Officel	2022.2.5	144.22709468078162		11.598000000000013	0_sub-pilot024_SVR_EEG_block1-2.protocol.csv	step37	6645	660.995	STIMULATE	45.9	45.9	45.9	45.9	46.0	37	518.185
506.256	0	253128	10hz	3	1	0	1	0	1.0	0.0	1.0	0.0						559.2432577	567.1747650001198	567.1747650001198	1.0	['1', 'return']	[2.778973300009966, 3.426049300003797]	7.92	5.19	1.0	10hz	low_pain	46.0			sub-024	250	24	46	47.5	COM11	COM15	COM3	2024-03-14_13h54.26.274	001-EEG_SVR_Officel	2022.2.5	144.22709468078162		7.919999999999959	0_sub-pilot024_SVR_EEG_block1-2.protocol.csv	step37	6645	660.995	STIMULATE	45.9	45.9	45.9	45.9	46.0	37	518.185
512.2	0	256100	10/Lo	2	1	0	1	0	1.0	0.0	1.0	0.0						559.2432577	567.1747650001198	567.1747650001198	1.0	['1', 'return']	[2.778973300009966, 3.426049300003797]	7.92	5.19	1.0	10hz	low_pain	46.0			sub-024	250	24	46	47.5	COM11	COM15	COM3	2024-03-14_13h54.26.274	001-EEG_SVR_Officel	2022.2.5	144.22709468078162		5.194000000000017	0_sub-pilot024_SVR_EEG_block1-2.protocol.csv	step37	6645	660.995	STIMULATE	45.9	45.9	45.9	45.9	46.0	37	518.185
522.708	0	261353	wait	20	1	0	1	0	2.0	0.0	2.0	0.0						583.6141520002857	588.6911834003404	588.6911834003404	4.0	['4', 'return']	[2.672326900064945, 3.4232092001475394]	5.07	6.44	2.0	controle	high_pain	47.5			sub-024	250	24	46	47.5	COM11	COM15	COM3	2024-03-14_13h54.26.274	001-EEG_SVR_Officel	2022.2.5	144.22709468078162		11.257999999999981	0_sub-pilot024_SVR_EEG_block1-2.protocol.csv	step39	6875	683.765	STIMULATE	47.5	47.4	47.4	47.4	47.5	39	540.9549999999999
527.772	0	263886	CNhz	12	1	0	1	0	2.0	0.0	2.0	0.0						583.6141520002857	588.6911834003404	588.6911834003404	4.0	['4', 'return']	[2.672326900064945, 3.4232092001475394]	5.07	6.44	2.0	controle	high_pain	47.5			sub-024	250	24	46	47.5	COM11	COM15	COM3	2024-03-14_13h54.26.274	001-EEG_SVR_Officel	2022.2.5	144.22709468078162		5.064000000000078	0_sub-pilot024_SVR_EEG_block1-2.protocol.csv	step39	6875	683.765	STIMULATE	47.5	47.4	47.4	47.4	47.5	39	540.9549999999999
534.966	0	267483	CN/Hi	10	1	0	1	0	2.0	0.0	2.0	0.0						583.6141520002857	588.6911834003404	588.6911834003404	4.0	['4', 'return']	[2.672326900064945, 3.4232092001475394]	5.07	6.44	2.0	controle	high_pain	47.5			sub-024	250	24	46	47.5	COM11	COM15	COM3	2024-03-14_13h54.26.274	001-EEG_SVR_Officel	2022.2.5	144.22709468078162		6.44399999999996	0_sub-pilot024_SVR_EEG_block1-2.protocol.csv	step39	6875	683.765	STIMULATE	47.5	47.4	47.4	47.4	47.5	39	540.9549999999999
544.224	0	272112	wait	20	1	0	1	0	3.0	0.0	3.0	0.0						605.1306090001017	612.9094430003315	612.9094430003315	2.0	['2', 'return']	[3.1734535000286996, 3.877455099951476]	7.77	6.49	3.0	10hz	low_pain	46.0			sub-024	250	24	46	47.5	COM11	COM15	COM3	2024-03-14_13h54.26.274	001-EEG_SVR_Officel	2022.2.5	144.22709468078162		10.008000000000038	0_sub-pilot024_SVR_EEG_block1-2.protocol.csv	step41	7119	707.986	STIMULATE	45.9	45.9	45.9	45.9	45.9	41	565.1759999999999
551.99	0	275995	10hz	3	1	0	1	0	3.0	0.0	3.0	0.0						605.1306090001017	612.9094430003315	612.9094430003315	2.0	['2', 'return']	[3.1734535000286996, 3.877455099951476]	7.77	6.49	3.0	10hz	low_pain	46.0			sub-024	250	24	46	47.5	COM11	COM15	COM3	2024-03-14_13h54.26.274	001-EEG_SVR_Officel	2022.2.5	144.22709468078162		7.765999999999963	0_sub-pilot024_SVR_EEG_block1-2.protocol.csv	step41	7119	707.986	STIMULATE	45.9	45.9	45.9	45.9	45.9	41	565.1759999999999
559.232	0	279616	10/Lo	2	1	0	1	0	3.0	0.0	3.0	0.0						605.1306090001017	612.9094430003315	612.9094430003315	2.0	['2', 'return']	[3.1734535000286996, 3.877455099951476]	7.77	6.49	3.0	10hz	low_pain	46.0			sub-024	250	24	46	47.5	COM11	COM15	COM3	2024-03-14_13h54.26.274	001-EEG_SVR_Officel	2022.2.5	144.22709468078162		6.491999999999962	0_sub-pilot024_SVR_EEG_block1-2.protocol.csv	step41	7119	707.986	STIMULATE	45.9	45.9	45.9	45.9	45.9	41	565.1759999999999
568.892	0	284446	wait	20	1	0	1	0	4.0	0.0	4.0	0.0						629.7998152002692	634.8222782001831	634.8222782001831	4.0	['4', 'return']	[2.9968493999913335, 3.6684150001965463]	5.01	5.91	0.0	20hz	high_pain	47.5			sub-024	250	24	46	47.5	COM11	COM15	COM3	2024-03-14_13h54.26.274	001-EEG_SVR_Officel	2022.2.5	144.22709468078162		10.410000000000082	0_sub-pilot024_SVR_EEG_block1-2.protocol.csv	step43	7335	729.347	STIMULATE	47.7	47.4	47.4	47.4	47.5	43	586.537
573.904	0	286952	20hz	6	1	0	1	0	4.0	0.0	4.0	0.0						629.7998152002692	634.8222782001831	634.8222782001831	4.0	['4', 'return']	[2.9968493999913335, 3.6684150001965463]	5.01	5.91	0.0	20hz	high_pain	47.5			sub-024	250	24	46	47.5	COM11	COM15	COM3	2024-03-14_13h54.26.274	001-EEG_SVR_Officel	2022.2.5	144.22709468078162		5.011999999999944	0_sub-pilot024_SVR_EEG_block1-2.protocol.csv	step43	7335	729.347	STIMULATE	47.7	47.4	47.4	47.4	47.5	43	586.537
580.562	0	290281	20/Hi	4	1	0	1	0	4.0	0.0	4.0	0.0						629.7998152002692	634.8222782001831	634.8222782001831	4.0	['4', 'return']	[2.9968493999913335, 3.6684150001965463]	5.01	5.91	0.0	20hz	high_pain	47.5			sub-024	250	24	46	47.5	COM11	COM15	COM3	2024-03-14_13h54.26.274	001-EEG_SVR_Officel	2022.2.5	144.22709468078162		5.9080000000000155	0_sub-pilot024_SVR_EEG_block1-2.protocol.csv	step43	7335	729.347	STIMULATE	47.7	47.4	47.4	47.4	47.5	43	586.537
590.604	0	295302	wait	20	1	0	1	0	5.0	0.0	5.0	0.0						651.5119776003994	659.4913417999633	659.4913417999633	1.0	['1', 'return']	[2.4806405999697745, 3.161168400198221]	7.97	5.56	1.0	40hz	low_pain	46.0			sub-024	250	24	46	47.5	COM11	COM15	COM3	2024-03-14_13h54.26.274	001-EEG_SVR_Officel	2022.2.5	144.22709468078162		10.79200000000003	0_sub-pilot024_SVR_EEG_block1-2.protocol.csv	step45	7580	753.684	STIMULATE	46.0	45.9	45.9	45.9	45.9	45	610.874
598.574	0	299287	40hz	9	1	0	1	0	5.0	0.0	5.0	0.0						651.5119776003994	659.4913417999633	659.4913417999633	1.0	['1', 'return']	[2.4806405999697745, 3.161168400198221]	7.97	5.56	1.0	40hz	low_pain	46.0			sub-024	250	24	46	47.5	COM11	COM15	COM3	2024-03-14_13h54.26.274	001-EEG_SVR_Officel	2022.2.5	144.22709468078162		7.969999999999914	0_sub-pilot024_SVR_EEG_block1-2.protocol.csv	step45	7580	753.684	STIMULATE	46.0	45.9	45.9	45.9	45.9	45	610.874
604.884	0	302442	40/Lo	8	1	0	1	0	5.0	0.0	5.0	0.0						651.5119776003994	659.4913417999633	659.4913417999633	1.0	['1', 'return']	[2.4806405999697745, 3.161168400198221]	7.97	5.56	1.0	40hz	low_pain	46.0			sub-024	250	24	46	47.5	COM11	COM15	COM3	2024-03-14_13h54.26.274	001-EEG_SVR_Officel	2022.2.5	144.22709468078162		5.560000000000059	0_sub-pilot024_SVR_EEG_block1-2.protocol.csv	step45	7580	753.684	STIMULATE	46.0	45.9	45.9	45.9	45.9	45	610.874
614.766	0	307383	wait	20	1	0	1	0	6.0	0.0	6.0	0.0						675.673394900281	681.8552657002583	681.8552657002583	3.0	['3', 'return']	[2.523565700277686, 3.8754040002822876]	6.17	5.62	2.0	controle	low_pain	46.0			sub-024	250	24	46	47.5	COM11	COM15	COM3	2024-03-14_13h54.26.274	001-EEG_SVR_Officel	2022.2.5	144.22709468078162		10.631999999999948	0_sub-pilot024_SVR_EEG_block1-2.protocol.csv	step47	7805	776.108	STIMULATE	46.0	45.9	45.9	45.9	45.9	47	633.298
620.936	0	310468	CNhz	12	1	0	1	0	6.0	0.0	6.0	0.0						675.673394900281	681.8552657002583	681.8552657002583	3.0	['3', 'return']	[2.523565700277686, 3.8754040002822876]	6.17	5.62	2.0	controle	low_pain	46.0			sub-024	250	24	46	47.5	COM11	COM15	COM3	2024-03-14_13h54.26.274	001-EEG_SVR_Officel	2022.2.5	144.22709468078162		6.170000000000073	0_sub-pilot024_SVR_EEG_block1-2.protocol.csv	step47	7805	776.108	STIMULATE	46.0	45.9	45.9	45.9	45.9	47	633.298
627.31	0	313655	CN/Lo	11	1	0	1	0	6.0	0.0	6.0	0.0						675.673394900281	681.8552657002583	681.8552657002583	3.0	['3', 'return']	[2.523565700277686, 3.8754040002822876]	6.17	5.62	2.0	controle	low_pain	46.0			sub-024	250	24	46	47.5	COM11	COM15	COM3	2024-03-14_13h54.26.274	001-EEG_SVR_Officel	2022.2.5	144.22709468078162		5.62399999999991	0_sub-pilot024_SVR_EEG_block1-2.protocol.csv	step47	7805	776.108	STIMULATE	46.0	45.9	45.9	45.9	45.9	47	633.298
637.846	0	318923	wait	20	1	0	1	0	7.0	0.0	7.0	0.0						698.7530251001008	704.1358386999927	704.1358386999927	2.0	['2', 'return']	[3.084118400234729, 3.77187140006572]	5.37	5.38	3.0	10hz	high_pain	47.5			sub-024	250	24	46	47.5	COM11	COM15	COM3	2024-03-14_13h54.26.274	001-EEG_SVR_Officel	2022.2.5	144.22709468078162		11.286000000000058	0_sub-pilot024_SVR_EEG_block1-2.protocol.csv	step49	8023	798.189	STIMULATE	47.6	47.4	47.4	47.4	47.4	49	655.3789999999999
643.216	0	321608	10hz	3	1	0	1	0	7.0	0.0	7.0	0.0						698.7530251001008	704.1358386999927	704.1358386999927	2.0	['2', 'return']	[3.084118400234729, 3.77187140006572]	5.37	5.38	3.0	10hz	high_pain	47.5			sub-024	250	24	46	47.5	COM11	COM15	COM3	2024-03-14_13h54.26.274	001-EEG_SVR_Officel	2022.2.5	144.22709468078162		5.3700000000000045	0_sub-pilot024_SVR_EEG_block1-2.protocol.csv	step49	8023	798.189	STIMULATE	47.6	47.4	47.4	47.4	47.4	49	655.3789999999999
649.348	0	324674	10/Hi	1	1	0	1	0	7.0	0.0	7.0	0.0						698.7530251001008	704.1358386999927	704.1358386999927	2.0	['2', 'return']	[3.084118400234729, 3.77187140006572]	5.37	5.38	3.0	10hz	high_pain	47.5			sub-024	250	24	46	47.5	COM11	COM15	COM3	2024-03-14_13h54.26.274	001-EEG_SVR_Officel	2022.2.5	144.22709468078162		5.381999999999948	0_sub-pilot024_SVR_EEG_block1-2.protocol.csv	step49	8023	798.189	STIMULATE	47.6	47.4	47.4	47.4	47.4	49	655.3789999999999
660.016	0	330008	wait	20	1	0	1	0	8.0	0.0	8.0	0.0						720.9218457001261	726.4230360002257	726.4230360002257	1.0	['1', 'return']	[2.332074400037527, 3.0449243998155]	5.49	5.45	0.0	40hz	low_pain	46.0			sub-024	250	24	46	47.5	COM11	COM15	COM3	2024-03-14_13h54.26.274	001-EEG_SVR_Officel	2022.2.5	144.22709468078162		11.418000000000006	0_sub-pilot024_SVR_EEG_block1-2.protocol.csv	step51	8240	820.533	STIMULATE	46.1	45.9	45.9	45.9	45.9	51	677.723
665.504	0	332752	40hz	9	1	0	1	0	8.0	0.0	8.0	0.0						720.9218457001261	726.4230360002257	726.4230360002257	1.0	['1', 'return']	[2.332074400037527, 3.0449243998155]	5.49	5.45	0.0	40hz	low_pain	46.0			sub-024	250	24	46	47.5	COM11	COM15	COM3	2024-03-14_13h54.26.274	001-EEG_SVR_Officel	2022.2.5	144.22709468078162		5.488000000000056	0_sub-pilot024_SVR_EEG_block1-2.protocol.csv	step51	8240	820.533	STIMULATE	46.1	45.9	45.9	45.9	45.9	51	677.723
671.704	0	335852	40/Lo	8	1	0	1	0	8.0	0.0	8.0	0.0						720.9218457001261	726.4230360002257	726.4230360002257	1.0	['1', 'return']	[2.332074400037527, 3.0449243998155]	5.49	5.45	0.0	40hz	low_pain	46.0			sub-024	250	24	46	47.5	COM11	COM15	COM3	2024-03-14_13h54.26.274	001-EEG_SVR_Officel	2022.2.5	144.22709468078162		5.449999999999932	0_sub-pilot024_SVR_EEG_block1-2.protocol.csv	step51	8240	820.533	STIMULATE	46.1	45.9	45.9	45.9	45.9	51	677.723
681.58	0	340790	wait	20	1	0	1	0	9.0	0.0	9.0	0.0						742.4875644003041	748.0994749004021	748.0994749004021	4.5	['4', 'a', '5', 'return']	[2.9836303000338376, 3.3442542999982834, 3.695888599846512, 4.5439730999059975]	5.6	5.37	1.0	40hz	high_pain	47.5			sub-024	250	24	46	47.5	COM11	COM15	COM3	2024-03-14_13h54.26.274	001-EEG_SVR_Officel	2022.2.5	144.22709468078162		10.62600000000009	0_sub-pilot024_SVR_EEG_block1-2.protocol.csv	step53	8447	842.046	STIMULATE	47.6	47.4	47.4	47.4	47.4	53	699.2360000000001
687.18	0	343590	40hz	9	1	0	1	0	9.0	0.0	9.0	0.0						742.4875644003041	748.0994749004021	748.0994749004021	4.5	['4', 'a', '5', 'return']	[2.9836303000338376, 3.3442542999982834, 3.695888599846512, 4.5439730999059975]	5.6	5.37	1.0	40hz	high_pain	47.5			sub-024	250	24	46	47.5	COM11	COM15	COM3	2024-03-14_13h54.26.274	001-EEG_SVR_Officel	2022.2.5	144.22709468078162		5.599999999999909	0_sub-pilot024_SVR_EEG_block1-2.protocol.csv	step53	8447	842.046	STIMULATE	47.6	47.4	47.4	47.4	47.4	53	699.2360000000001
693.302	0	346651	40/Hi	7	1	0	1	0	9.0	0.0	9.0	0.0						742.4875644003041	748.0994749004021	748.0994749004021	4.5	['4', 'a', '5', 'return']	[2.9836303000338376, 3.3442542999982834, 3.695888599846512, 4.5439730999059975]	5.6	5.37	1.0	40hz	high_pain	47.5			sub-024	250	24	46	47.5	COM11	COM15	COM3	2024-03-14_13h54.26.274	001-EEG_SVR_Officel	2022.2.5	144.22709468078162		5.372000000000071	0_sub-pilot024_SVR_EEG_block1-2.protocol.csv	step53	8447	842.046	STIMULATE	47.6	47.4	47.4	47.4	47.4	53	699.2360000000001
704.756	0	352378	wait	20	1	0	1	0	10.0	0.0	10.0	0.0						765.663933200296	772.18541080039	772.18541080039	2.5	['2', 'a', '5', 'return']	[2.2016417998820543, 2.7851988999173045, 3.0088268001563847, 3.649640600197017]	6.51	5.38	2.0	10hz	low_pain	46.0			sub-024	250	24	46	47.5	COM11	COM15	COM3	2024-03-14_13h54.26.274	001-EEG_SVR_Officel	2022.2.5	144.22709468078162		12.20399999999995	0_sub-pilot024_SVR_EEG_block1-2.protocol.csv	step55	8678	866.254	STIMULATE	46.1	45.9	45.9	45.9	45.9	55	723.444
711.266	0	355633	10hz	3	1	0	1	0	10.0	0.0	10.0	0.0						765.663933200296	772.18541080039	772.18541080039	2.5	['2', 'a', '5', 'return']	[2.2016417998820543, 2.7851988999173045, 3.0088268001563847, 3.649640600197017]	6.51	5.38	2.0	10hz	low_pain	46.0			sub-024	250	24	46	47.5	COM11	COM15	COM3	2024-03-14_13h54.26.274	001-EEG_SVR_Officel	2022.2.5	144.22709468078162		6.509999999999991	0_sub-pilot024_SVR_EEG_block1-2.protocol.csv	step55	8678	866.254	STIMULATE	46.1	45.9	45.9	45.9	45.9	55	723.444
717.396	0	358698	10/Lo	2	1	0	1	0	10.0	0.0	10.0	0.0						765.663933200296	772.18541080039	772.18541080039	2.5	['2', 'a', '5', 'return']	[2.2016417998820543, 2.7851988999173045, 3.0088268001563847, 3.649640600197017]	6.51	5.38	2.0	10hz	low_pain	46.0			sub-024	250	24	46	47.5	COM11	COM15	COM3	2024-03-14_13h54.26.274	001-EEG_SVR_Officel	2022.2.5	144.22709468078162		5.3799999999999955	0_sub-pilot024_SVR_EEG_block1-2.protocol.csv	step55	8678	866.254	STIMULATE	46.1	45.9	45.9	45.9	45.9	55	723.444
727.946	0	363973	wait	20	1	0	1	0	11.0	0.0	11.0	0.0						788.8541582003236	795.0355150001124	795.0355150001124	3.0	['3', 'return']	[2.9191123000346124, 9.431307800114155]	6.17	5.46	3.0	40hz	high_pain	47.5			sub-024	250	24	46	47.5	COM11	COM15	COM3	2024-03-14_13h54.26.274	001-EEG_SVR_Officel	2022.2.5	144.22709468078162		11.300000000000068	0_sub-pilot024_SVR_EEG_block1-2.protocol.csv	step57	8894	889.1	STIMULATE	47.5	47.4	47.4	47.4	47.5	57	746.29
734.116	0	367058	40hz	9	1	0	1	0	11.0	0.0	11.0	0.0						788.8541582003236	795.0355150001124	795.0355150001124	3.0	['3', 'return']	[2.9191123000346124, 9.431307800114155]	6.17	5.46	3.0	40hz	high_pain	47.5			sub-024	250	24	46	47.5	COM11	COM15	COM3	2024-03-14_13h54.26.274	001-EEG_SVR_Officel	2022.2.5	144.22709468078162		6.169999999999959	0_sub-pilot024_SVR_EEG_block1-2.protocol.csv	step57	8894	889.1	STIMULATE	47.5	47.4	47.4	47.4	47.5	57	746.29
740.33	0	370165	40/Hi	7	1	0	1	0	11.0	0.0	11.0	0.0						788.8541582003236	795.0355150001124	795.0355150001124	3.0	['3', 'return']	[2.9191123000346124, 9.431307800114155]	6.17	5.46	3.0	40hz	high_pain	47.5			sub-024	250	24	46	47.5	COM11	COM15	COM3	2024-03-14_13h54.26.274	001-EEG_SVR_Officel	2022.2.5	144.22709468078162		5.4640000000000555	0_sub-pilot024_SVR_EEG_block1-2.protocol.csv	step57	8894	889.1	STIMULATE	47.5	47.4	47.4	47.4	47.5	57	746.29
756.574	0	378287	wait	20	1	0	1	0	12.0	0.0	12.0	0.0						817.4820573003963	823.393014700152	823.393014700152	3.5	['3', 'a', '5', 'return']	[2.2739940001629293, 2.6821608003228903, 2.9064135001972318, 3.594003700185567]	5.9	5.95	0.0	controle	high_pain	47.5			sub-024	250	24	46	47.5	COM11	COM15	COM3	2024-03-14_13h54.26.274	001-EEG_SVR_Officel	2022.2.5	144.22709468078162		16.993999999999915	0_sub-pilot024_SVR_EEG_block1-2.protocol.csv	step59	9164	917.992	STIMULATE	47.7	47.4	47.4	47.4	47.5	59	775.182
762.474	0	381237	CNhz	12	1	0	1	0	12.0	0.0	12.0	0.0						817.4820573003963	823.393014700152	823.393014700152	3.5	['3', 'a', '5', 'return']	[2.2739940001629293, 2.6821608003228903, 2.9064135001972318, 3.594003700185567]	5.9	5.95	0.0	controle	high_pain	47.5			sub-024	250	24	46	47.5	COM11	COM15	COM3	2024-03-14_13h54.26.274	001-EEG_SVR_Officel	2022.2.5	144.22709468078162		5.900000000000091	0_sub-pilot024_SVR_EEG_block1-2.protocol.csv	step59	9164	917.992	STIMULATE	47.7	47.4	47.4	47.4	47.5	59	775.182
769.174	0	384587	CN/Hi	10	1	0	1	0	12.0	0.0	12.0	0.0						817.4820573003963	823.393014700152	823.393014700152	3.5	['3', 'a', '5', 'return']	[2.2739940001629293, 2.6821608003228903, 2.9064135001972318, 3.594003700185567]	5.9	5.95	0.0	controle	high_pain	47.5			sub-024	250	24	46	47.5	COM11	COM15	COM3	2024-03-14_13h54.26.274	001-EEG_SVR_Officel	2022.2.5	144.22709468078162		5.949999999999932	0_sub-pilot024_SVR_EEG_block1-2.protocol.csv	step59	9164	917.992	STIMULATE	47.7	47.4	47.4	47.4	47.5	59	775.182
779.092	0	389546	wait	20	1	0	1	0	13.0	0.0	13.0	0.0						839.9985958002508	847.7361854002811	847.7361854002811	5.0	['5', 'return']	[2.3395847999490798, 2.7956507997587323]	7.73	5.76	1.0	20hz	high_pain	47.5			sub-024	250	24	46	47.5	COM11	COM15	COM3	2024-03-14_13h54.26.274	001-EEG_SVR_Officel	2022.2.5	144.22709468078162		10.668000000000006	0_sub-pilot024_SVR_EEG_block1-2.protocol.csv	step61	9388	942.165	STIMULATE	47.6	47.4	47.4	47.4	47.5	61	799.355
786.816	0	393408	20hz	6	1	0	1	0	13.0	0.0	13.0	0.0						839.9985958002508	847.7361854002811	847.7361854002811	5.0	['5', 'return']	[2.3395847999490798, 2.7956507997587323]	7.73	5.76	1.0	20hz	high_pain	47.5			sub-024	250	24	46	47.5	COM11	COM15	COM3	2024-03-14_13h54.26.274	001-EEG_SVR_Officel	2022.2.5	144.22709468078162		7.724000000000046	0_sub-pilot024_SVR_EEG_block1-2.protocol.csv	step61	9388	942.165	STIMULATE	47.6	47.4	47.4	47.4	47.5	61	799.355
793.33	0	396665	20/Hi	4	1	0	1	0	13.0	0.0	13.0	0.0						839.9985958002508	847.7361854002811	847.7361854002811	5.0	['5', 'return']	[2.3395847999490798, 2.7956507997587323]	7.73	5.76	1.0	20hz	high_pain	47.5			sub-024	250	24	46	47.5	COM11	COM15	COM3	2024-03-14_13h54.26.274	001-EEG_SVR_Officel	2022.2.5	144.22709468078162		5.76400000000001	0_sub-pilot024_SVR_EEG_block1-2.protocol.csv	step61	9388	942.165	STIMULATE	47.6	47.4	47.4	47.4	47.5	61	799.355
802.644	0	401322	wait	20	1	0	1	0	14.0	0.0	14.0	0.0						863.550603300333	870.801476099994	870.801476099994	1.0	['1', 'return']	[3.016999799758196, 3.594301799777895]	7.24	5.92	2.0	20hz	low_pain	46.0			sub-024	250	24	46	47.5	COM11	COM15	COM3	2024-03-14_13h54.26.274	001-EEG_SVR_Officel	2022.2.5	144.22709468078162		10.063999999999965	0_sub-pilot024_SVR_EEG_block1-2.protocol.csv	step63	9601	965.341	STIMULATE	46.1	45.9	45.9	45.9	45.9	63	822.531
809.882	0	404941	20hz	6	1	0	1	0	14.0	0.0	14.0	0.0						863.550603300333	870.801476099994	870.801476099994	1.0	['1', 'return']	[3.016999799758196, 3.594301799777895]	7.24	5.92	2.0	20hz	low_pain	46.0			sub-024	250	24	46	47.5	COM11	COM15	COM3	2024-03-14_13h54.26.274	001-EEG_SVR_Officel	2022.2.5	144.22709468078162		7.237999999999943	0_sub-pilot024_SVR_EEG_block1-2.protocol.csv	step63	9601	965.341	STIMULATE	46.1	45.9	45.9	45.9	45.9	63	822.531
816.556	0	408278	20/Lo	5	1	0	1	0	14.0	0.0	14.0	0.0						863.550603300333	870.801476099994	870.801476099994	1.0	['1', 'return']	[3.016999799758196, 3.594301799777895]	7.24	5.92	2.0	20hz	low_pain	46.0			sub-024	250	24	46	47.5	COM11	COM15	COM3	2024-03-14_13h54.26.274	001-EEG_SVR_Officel	2022.2.5	144.22709468078162		5.924000000000092	0_sub-pilot024_SVR_EEG_block1-2.protocol.csv	step63	9601	965.341	STIMULATE	46.1	45.9	45.9	45.9	45.9	63	822.531
826.506	0	413253	wait	20	1	0	1	0	15.0	0.0	15.0	0.0						887.4146475000307	894.9433106002398	894.9433106002398	1.5	['1', 'a', '5', 'return']	[2.5400236998684704, 2.963463000021875, 3.1795262000523508, 3.916489399969578]	7.52	5.27	3.0	20hz	low_pain	46.0			sub-024	250	24	46	47.5	COM11	COM15	COM3	2024-03-14_13h54.26.274	001-EEG_SVR_Officel	2022.2.5	144.22709468078162		10.699999999999932	0_sub-pilot024_SVR_EEG_block1-2.protocol.csv	step65	9815	988.82	STIMULATE	45.9	45.9	45.9	45.9	45.9	65	846.01
834.022	0	417011	20hz	6	1	0	1	0	15.0	0.0	15.0	0.0						887.4146475000307	894.9433106002398	894.9433106002398	1.5	['1', 'a', '5', 'return']	[2.5400236998684704, 2.963463000021875, 3.1795262000523508, 3.916489399969578]	7.52	5.27	3.0	20hz	low_pain	46.0			sub-024	250	24	46	47.5	COM11	COM15	COM3	2024-03-14_13h54.26.274	001-EEG_SVR_Officel	2022.2.5	144.22709468078162		7.516000000000076	0_sub-pilot024_SVR_EEG_block1-2.protocol.csv	step65	9815	988.82	STIMULATE	45.9	45.9	45.9	45.9	45.9	65	846.01
840.042	0	420021	20/Lo	5	1	0	1	0	15.0	0.0	15.0	0.0						887.4146475000307	894.9433106002398	894.9433106002398	1.5	['1', 'a', '5', 'return']	[2.5400236998684704, 2.963463000021875, 3.1795262000523508, 3.916489399969578]	7.52	5.27	3.0	20hz	low_pain	46.0			sub-024	250	24	46	47.5	COM11	COM15	COM3	2024-03-14_13h54.26.274	001-EEG_SVR_Officel	2022.2.5	144.22709468078162		5.269999999999982	0_sub-pilot024_SVR_EEG_block1-2.protocol.csv	step65	9815	988.82	STIMULATE	45.9	45.9	45.9	45.9	45.9	65	846.01
910.092	0	455046	wait	20	2	0	2	0	0.0	0.0	0.0	0.0				p	0.4250668003223836	971.0010180999524	978.1825356003828	978.1825356003828	1.0	['1', 'return']	[1.8696141000837088, 2.365681099705398]	7.17	5.48	0.0	20hz	low_pain	46.0			sub-024	250	24	46	47.5	COM11	COM15	COM3	2024-03-14_13h54.26.274	001-EEG_SVR_Officel	2022.2.5	144.22709468078162		70.79999999999995	1_sub-pilot024_SVR_EEG_block3-4.protocol.csv	step3	687	68.521	STIMULATE	46.1	45.9	45.9	45.9	45.9	3	929.24
917.262	0	458631	20hz	6	2	0	2	0	0.0	0.0	0.0	0.0				p	0.4250668003223836	971.0010180999524	978.1825356003828	978.1825356003828	1.0	['1', 'return']	[1.8696141000837088, 2.365681099705398]	7.17	5.48	0.0	20hz	low_pain	46.0			sub-024	250	24	46	47.5	COM11	COM15	COM3	2024-03-14_13h54.26.274	001-EEG_SVR_Officel	2022.2.5	144.22709468078162		7.169999999999959	1_sub-pilot024_SVR_EEG_block3-4.protocol.csv	step3	687	68.521	STIMULATE	46.1	45.9	45.9	45.9	45.9	3	929.24
923.49	0	461745	20/Lo	5	2	0	2	0	0.0	0.0	0.0	0.0				p	0.4250668003223836	971.0010180999524	978.1825356003828	978.1825356003828	1.0	['1', 'return']	[1.8696141000837088, 2.365681099705398]	7.17	5.48	0.0	20hz	low_pain	46.0			sub-024	250	24	46	47.5	COM11	COM15	COM3	2024-03-14_13h54.26.274	001-EEG_SVR_Officel	2022.2.5	144.22709468078162		5.4780000000000655	1_sub-pilot024_SVR_EEG_block3-4.protocol.csv	step3	687	68.521	STIMULATE	46.1	45.9	45.9	45.9	45.9	3	929.24
932.65	0	466325	wait	20	2	0	2	0	1.0	0.0	1.0	0.0						993.5592809002846	1001.0191607000306	1001.0191607000306	1.0	['1', 'return']	[3.072681300342083, 4.082200600299984]	7.45	5.17	1.0	10hz	low_pain	46.0			sub-024	250	24	46	47.5	COM11	COM15	COM3	2024-03-14_13h54.26.274	001-EEG_SVR_Officel	2022.2.5	144.22709468078162		9.909999999999968	1_sub-pilot024_SVR_EEG_block3-4.protocol.csv	step5	915	91.117	STIMULATE	46.0	45.9	45.9	45.9	45.9	5	951.836
940.098	0	470049	10hz	3	2	0	2	0	1.0	0.0	1.0	0.0						993.5592809002846	1001.0191607000306	1001.0191607000306	1.0	['1', 'return']	[3.072681300342083, 4.082200600299984]	7.45	5.17	1.0	10hz	low_pain	46.0			sub-024	250	24	46	47.5	COM11	COM15	COM3	2024-03-14_13h54.26.274	001-EEG_SVR_Officel	2022.2.5	144.22709468078162		7.447999999999979	1_sub-pilot024_SVR_EEG_block3-4.protocol.csv	step5	915	91.117	STIMULATE	46.0	45.9	45.9	45.9	45.9	5	951.836
946.02	0	473010	10/Lo	2	2	0	2	0	1.0	0.0	1.0	0.0						993.5592809002846	1001.0191607000306	1001.0191607000306	1.0	['1', 'return']	[3.072681300342083, 4.082200600299984]	7.45	5.17	1.0	10hz	low_pain	46.0			sub-024	250	24	46	47.5	COM11	COM15	COM3	2024-03-14_13h54.26.274	001-EEG_SVR_Officel	2022.2.5	144.22709468078162		5.1720000000000255	1_sub-pilot024_SVR_EEG_block3-4.protocol.csv	step5	915	91.117	STIMULATE	46.0	45.9	45.9	45.9	45.9	5	951.836
957.202	0	478601	wait	20	2	0	2	0	2.0	0.0	2.0	0.0						1018.1116856001318	1024.681395099964	1024.681395099964	4.5	['4', 'a', '5', 'return']	[2.4580057002604008, 2.7536694002337754, 2.953753999900073, 3.5633054999634624]	6.56	5.94	2.0	40hz	high_pain	47.5			sub-024	250	24	46	47.5	COM11	COM15	COM3	2024-03-14_13h54.26.274	001-EEG_SVR_Officel	2022.2.5	144.22709468078162		11.932000000000016	1_sub-pilot024_SVR_EEG_block3-4.protocol.csv	step7	1161	115.501	STIMULATE	47.5	47.4	47.4	47.4	47.5	7	976.22
963.76	0	481880	40hz	9	2	0	2	0	2.0	0.0	2.0	0.0						1018.1116856001318	1024.681395099964	1024.681395099964	4.5	['4', 'a', '5', 'return']	[2.4580057002604008, 2.7536694002337754, 2.953753999900073, 3.5633054999634624]	6.56	5.94	2.0	40hz	high_pain	47.5			sub-024	250	24	46	47.5	COM11	COM15	COM3	2024-03-14_13h54.26.274	001-EEG_SVR_Officel	2022.2.5	144.22709468078162		6.557999999999993	1_sub-pilot024_SVR_EEG_block3-4.protocol.csv	step7	1161	115.501	STIMULATE	47.5	47.4	47.4	47.4	47.5	7	976.22
970.45	0	485225	40/Hi	7	2	0	2	0	2.0	0.0	2.0	0.0						1018.1116856001318	1024.681395099964	1024.681395099964	4.5	['4', 'a', '5', 'return']	[2.4580057002604008, 2.7536694002337754, 2.953753999900073, 3.5633054999634624]	6.56	5.94	2.0	40hz	high_pain	47.5			sub-024	250	24	46	47.5	COM11	COM15	COM3	2024-03-14_13h54.26.274	001-EEG_SVR_Officel	2022.2.5	144.22709468078162		5.940000000000055	1_sub-pilot024_SVR_EEG_block3-4.protocol.csv	step7	1161	115.501	STIMULATE	47.5	47.4	47.4	47.4	47.5	7	976.22
980.35	0	490175	wait	20	2	0	2	0	3.0	0.0	3.0	0.0						1041.2590783000924	1047.767330700066	1047.767330700066	1.0	['1', 'return']	[2.043894900009036, 2.581289399880916]	6.5	6.47	3.0	20hz	low_pain	46.0			sub-024	250	24	46	47.5	COM11	COM15	COM3	2024-03-14_13h54.26.274	001-EEG_SVR_Officel	2022.2.5	144.22709468078162		10.649999999999977	1_sub-pilot024_SVR_EEG_block3-4.protocol.csv	step9	1399	139.147	STIMULATE	46.1	45.9	45.9	45.9	45.9	9	999.866
986.846	0	493423	20hz	6	2	0	2	0	3.0	0.0	3.0	0.0						1041.2590783000924	1047.767330700066	1047.767330700066	1.0	['1', 'return']	[2.043894900009036, 2.581289399880916]	6.5	6.47	3.0	20hz	low_pain	46.0			sub-024	250	24	46	47.5	COM11	COM15	COM3	2024-03-14_13h54.26.274	001-EEG_SVR_Officel	2022.2.5	144.22709468078162		6.495999999999981	1_sub-pilot024_SVR_EEG_block3-4.protocol.csv	step9	1399	139.147	STIMULATE	46.1	45.9	45.9	45.9	45.9	9	999.866
994.068	0	497034	20/Lo	5	2	0	2	0	3.0	0.0	3.0	0.0						1041.2590783000924	1047.767330700066	1047.767330700066	1.0	['1', 'return']	[2.043894900009036, 2.581289399880916]	6.5	6.47	3.0	20hz	low_pain	46.0			sub-024	250	24	46	47.5	COM11	COM15	COM3	2024-03-14_13h54.26.274	001-EEG_SVR_Officel	2022.2.5	144.22709468078162		6.47199999999998	1_sub-pilot024_SVR_EEG_block3-4.protocol.csv	step9	1399	139.147	STIMULATE	46.1	45.9	45.9	45.9	45.9	9	999.866
1002.45	0	501225	wait	20	2	0	2	0	4.0	0.0	4.0	0.0						1063.3593179001473	1068.637884600088	1068.637884600088	1.0	['1', 'return']	[2.4459167001768947, 3.070082100108266]	5.27	5.7	0.0	40hz	low_pain	46.0			sub-024	250	24	46	47.5	COM11	COM15	COM3	2024-03-14_13h54.26.274	001-EEG_SVR_Officel	2022.2.5	144.22709468078162		9.132000000000062	1_sub-pilot024_SVR_EEG_block3-4.protocol.csv	step11	1603	159.322	STIMULATE	46.1	45.9	45.9	45.9	45.9	11	1020.041
1007.716	0	503858	40hz	9	2	0	2	0	4.0	0.0	4.0	0.0						1063.3593179001473	1068.637884600088	1068.637884600088	1.0	['1', 'return']	[2.4459167001768947, 3.070082100108266]	5.27	5.7	0.0	40hz	low_pain	46.0			sub-024	250	24	46	47.5	COM11	COM15	COM3	2024-03-14_13h54.26.274	001-EEG_SVR_Officel	2022.2.5	144.22709468078162		5.265999999999963	1_sub-pilot024_SVR_EEG_block3-4.protocol.csv	step11	1603	159.322	STIMULATE	46.1	45.9	45.9	45.9	45.9	11	1020.041
1014.166	0	507083	40/Lo	8	2	0	2	0	4.0	0.0	4.0	0.0						1063.3593179001473	1068.637884600088	1068.637884600088	1.0	['1', 'return']	[2.4459167001768947, 3.070082100108266]	5.27	5.7	0.0	40hz	low_pain	46.0			sub-024	250	24	46	47.5	COM11	COM15	COM3	2024-03-14_13h54.26.274	001-EEG_SVR_Officel	2022.2.5	144.22709468078162		5.7000000000000455	1_sub-pilot024_SVR_EEG_block3-4.protocol.csv	step11	1603	159.322	STIMULATE	46.1	45.9	45.9	45.9	45.9	11	1020.041
1023.814	0	511907	wait	20	2	0	2	0	5.0	0.0	5.0	0.0						1084.722611100413	1090.8904448002577	1090.8904448002577	4.5	['4', 'a', '5', 'return']	[2.832637900020927, 3.0650583999231458, 3.673060799948871, 4.384539199993014]	6.16	5.71	1.0	controle	high_pain	47.5			sub-024	250	24	46	47.5	COM11	COM15	COM3	2024-03-14_13h54.26.274	001-EEG_SVR_Officel	2022.2.5	144.22709468078162		10.39799999999991	1_sub-pilot024_SVR_EEG_block3-4.protocol.csv	step13	1828	181.602	STIMULATE	47.5	47.4	47.4	47.5	47.4	13	1042.321
1029.968	0	514984	CNhz	12	2	0	2	0	5.0	0.0	5.0	0.0						1084.722611100413	1090.8904448002577	1090.8904448002577	4.5	['4', 'a', '5', 'return']	[2.832637900020927, 3.0650583999231458, 3.673060799948871, 4.384539199993014]	6.16	5.71	1.0	controle	high_pain	47.5			sub-024	250	24	46	47.5	COM11	COM15	COM3	2024-03-14_13h54.26.274	001-EEG_SVR_Officel	2022.2.5	144.22709468078162		6.15400000000011	1_sub-pilot024_SVR_EEG_block3-4.protocol.csv	step13	1828	181.602	STIMULATE	47.5	47.4	47.4	47.5	47.4	13	1042.321
1036.434	0	518217	CN/Hi	10	2	0	2	0	5.0	0.0	5.0	0.0						1084.722611100413	1090.8904448002577	1090.8904448002577	4.5	['4', 'a', '5', 'return']	[2.832637900020927, 3.0650583999231458, 3.673060799948871, 4.384539199993014]	6.16	5.71	1.0	controle	high_pain	47.5			sub-024	250	24	46	47.5	COM11	COM15	COM3	2024-03-14_13h54.26.274	001-EEG_SVR_Officel	2022.2.5	144.22709468078162		5.7159999999998945	1_sub-pilot024_SVR_EEG_block3-4.protocol.csv	step13	1828	181.602	STIMULATE	47.5	47.4	47.4	47.5	47.4	13	1042.321
1047.378	0	523688	wait	20	2	0	2	0	6.0	0.0	6.0	0.0						1108.2884551002644	1114.775700100232	1114.775700100232	1.0	['1', 'return']	[2.417816899716854, 3.0012758998200297]	6.48	6.24	2.0	40hz	low_pain	46.0			sub-024	250	24	46	47.5	COM11	COM15	COM3	2024-03-14_13h54.26.274	001-EEG_SVR_Officel	2022.2.5	144.22709468078162		11.69399999999996	1_sub-pilot024_SVR_EEG_block3-4.protocol.csv	step15	2073	205.914	STIMULATE	46.0	45.9	45.9	45.9	45.9	15	1066.633
1053.854	0	526927	40hz	9	2	0	2	0	6.0	0.0	6.0	0.0						1108.2884551002644	1114.775700100232	1114.775700100232	1.0	['1', 'return']	[2.417816899716854, 3.0012758998200297]	6.48	6.24	2.0	40hz	low_pain	46.0			sub-024	250	24	46	47.5	COM11	COM15	COM3	2024-03-14_13h54.26.274	001-EEG_SVR_Officel	2022.2.5	144.22709468078162		6.476000000000113	1_sub-pilot024_SVR_EEG_block3-4.protocol.csv	step15	2073	205.914	STIMULATE	46.0	45.9	45.9	45.9	45.9	15	1066.633
1060.846	0	530423	40/Lo	8	2	0	2	0	6.0	0.0	6.0	0.0						1108.2884551002644	1114.775700100232	1114.775700100232	1.0	['1', 'return']	[2.417816899716854, 3.0012758998200297]	6.48	6.24	2.0	40hz	low_pain	46.0			sub-024	250	24	46	47.5	COM11	COM15	COM3	2024-03-14_13h54.26.274	001-EEG_SVR_Officel	2022.2.5	144.22709468078162		6.241999999999962	1_sub-pilot024_SVR_EEG_block3-4.protocol.csv	step15	2073	205.914	STIMULATE	46.0	45.9	45.9	45.9	45.9	15	1066.633
1069.89	0	534945	wait	20	2	0	2	0	7.0	0.0	7.0	0.0						1130.7984645003453	1138.6887576002628	1138.6887576002628	4.0	['4', 'return']	[2.3977366001345217, 3.093052899930626]	7.88	5.76	3.0	20hz	high_pain	47.5			sub-024	250	24	46	47.5	COM11	COM15	COM3	2024-03-14_13h54.26.274	001-EEG_SVR_Officel	2022.2.5	144.22709468078162		9.794000000000096	1_sub-pilot024_SVR_EEG_block3-4.protocol.csv	step17	2310	229.485	STIMULATE	47.4	47.4	47.4	47.4	47.5	17	1090.204
1077.766	0	538883	20hz	6	2	0	2	0	7.0	0.0	7.0	0.0						1130.7984645003453	1138.6887576002628	1138.6887576002628	4.0	['4', 'return']	[2.3977366001345217, 3.093052899930626]	7.88	5.76	3.0	20hz	high_pain	47.5			sub-024	250	24	46	47.5	COM11	COM15	COM3	2024-03-14_13h54.26.274	001-EEG_SVR_Officel	2022.2.5	144.22709468078162		7.875999999999976	1_sub-pilot024_SVR_EEG_block3-4.protocol.csv	step17	2310	229.485	STIMULATE	47.4	47.4	47.4	47.4	47.5	17	1090.204
1084.278	0	542139	20/Hi	4	2	0	2	0	7.0	0.0	7.0	0.0						1130.7984645003453	1138.6887576002628	1138.6887576002628	4.0	['4', 'return']	[2.3977366001345217, 3.093052899930626]	7.88	5.76	3.0	20hz	high_pain	47.5			sub-024	250	24	46	47.5	COM11	COM15	COM3	2024-03-14_13h54.26.274	001-EEG_SVR_Officel	2022.2.5	144.22709468078162		5.761999999999944	1_sub-pilot024_SVR_EEG_block3-4.protocol.csv	step17	2310	229.485	STIMULATE	47.4	47.4	47.4	47.4	47.5	17	1090.204
1093.898	0	546949	wait	20	2	0	2	0	8.0	0.0	8.0	0.0						1154.8078687000088	1162.4267961001024	1162.4267961001024	5.0	['5', 'return']	[2.744142500218004, 3.3444199999794364]	7.61	5.47	0.0	controle	high_pain	47.5			sub-024	250	24	46	47.5	COM11	COM15	COM3	2024-03-14_13h54.26.274	001-EEG_SVR_Officel	2022.2.5	144.22709468078162		10.36999999999989	1_sub-pilot024_SVR_EEG_block3-4.protocol.csv	step19	2546	252.836	STIMULATE	47.5	47.4	47.4	47.4	47.6	19	1113.555
1101.506	0	550753	CNhz	12	2	0	2	0	8.0	0.0	8.0	0.0						1154.8078687000088	1162.4267961001024	1162.4267961001024	5.0	['5', 'return']	[2.744142500218004, 3.3444199999794364]	7.61	5.47	0.0	controle	high_pain	47.5			sub-024	250	24	46	47.5	COM11	COM15	COM3	2024-03-14_13h54.26.274	001-EEG_SVR_Officel	2022.2.5	144.22709468078162		7.608000000000175	1_sub-pilot024_SVR_EEG_block3-4.protocol.csv	step19	2546	252.836	STIMULATE	47.5	47.4	47.4	47.4	47.6	19	1113.555
1107.726	0	553863	CN/Hi	10	2	0	2	0	8.0	0.0	8.0	0.0						1154.8078687000088	1162.4267961001024	1162.4267961001024	5.0	['5', 'return']	[2.744142500218004, 3.3444199999794364]	7.61	5.47	0.0	controle	high_pain	47.5			sub-024	250	24	46	47.5	COM11	COM15	COM3	2024-03-14_13h54.26.274	001-EEG_SVR_Officel	2022.2.5	144.22709468078162		5.470000000000027	1_sub-pilot024_SVR_EEG_block3-4.protocol.csv	step19	2546	252.836	STIMULATE	47.5	47.4	47.4	47.4	47.6	19	1113.555
1117.874	0	558937	wait	20	2	0	2	0	9.0	0.0	9.0	0.0						1178.7828681999815	1186.2213561004028	1186.2213561004028	5.0	['5', 'return']	[2.221888900268823, 2.7183787003159523]	7.43	5.39	1.0	10hz	high_pain	47.5			sub-024	250	24	46	47.5	COM11	COM15	COM3	2024-03-14_13h54.26.274	001-EEG_SVR_Officel	2022.2.5	144.22709468078162		10.89799999999991	1_sub-pilot024_SVR_EEG_block3-4.protocol.csv	step21	2785	276.51	STIMULATE	47.5	47.4	47.4	47.4	47.5	21	1137.229
1125.3	0	562650	10hz	3	2	0	2	0	9.0	0.0	9.0	0.0						1178.7828681999815	1186.2213561004028	1186.2213561004028	5.0	['5', 'return']	[2.221888900268823, 2.7183787003159523]	7.43	5.39	1.0	10hz	high_pain	47.5			sub-024	250	24	46	47.5	COM11	COM15	COM3	2024-03-14_13h54.26.274	001-EEG_SVR_Officel	2022.2.5	144.22709468078162		7.425999999999931	1_sub-pilot024_SVR_EEG_block3-4.protocol.csv	step21	2785	276.51	STIMULATE	47.5	47.4	47.4	47.4	47.5	21	1137.229
1131.444	0	565722	10/Hi	1	2	0	2	0	9.0	0.0	9.0	0.0						1178.7828681999815	1186.2213561004028	1186.2213561004028	5.0	['5', 'return']	[2.221888900268823, 2.7183787003159523]	7.43	5.39	1.0	10hz	high_pain	47.5			sub-024	250	24	46	47.5	COM11	COM15	COM3	2024-03-14_13h54.26.274	001-EEG_SVR_Officel	2022.2.5	144.22709468078162		5.3940000000000055	1_sub-pilot024_SVR_EEG_block3-4.protocol.csv	step21	2785	276.51	STIMULATE	47.5	47.4	47.4	47.4	47.5	21	1137.229
1141.05	0	570525	wait	20	2	0	2	0	10.0	0.0	10.0	0.0						1201.9593659001405	1207.800540300086	1207.800540300086	2.0	['2', 'return']	[3.7307727998122573, 4.691600699909031]	5.83	5.1	2.0	10hz	low_pain	46.0			sub-024	250	24	46	47.5	COM11	COM15	COM3	2024-03-14_13h54.26.274	001-EEG_SVR_Officel	2022.2.5	144.22709468078162		10.355999999999995	1_sub-pilot024_SVR_EEG_block3-4.protocol.csv	step23	3000	297.848	STIMULATE	46.0	45.9	45.9	45.9	45.9	23	1158.567
1146.878	0	573439	10hz	3	2	0	2	0	10.0	0.0	10.0	0.0						1201.9593659001405	1207.800540300086	1207.800540300086	2.0	['2', 'return']	[3.7307727998122573, 4.691600699909031]	5.83	5.1	2.0	10hz	low_pain	46.0			sub-024	250	24	46	47.5	COM11	COM15	COM3	2024-03-14_13h54.26.274	001-EEG_SVR_Officel	2022.2.5	144.22709468078162		5.8279999999999745	1_sub-pilot024_SVR_EEG_block3-4.protocol.csv	step23	3000	297.848	STIMULATE	46.0	45.9	45.9	45.9	45.9	23	1158.567
1152.73	0	576365	10/Lo	2	2	0	2	0	10.0	0.0	10.0	0.0						1201.9593659001405	1207.800540300086	1207.800540300086	2.0	['2', 'return']	[3.7307727998122573, 4.691600699909031]	5.83	5.1	2.0	10hz	low_pain	46.0			sub-024	250	24	46	47.5	COM11	COM15	COM3	2024-03-14_13h54.26.274	001-EEG_SVR_Officel	2022.2.5	144.22709468078162		5.102000000000089	1_sub-pilot024_SVR_EEG_block3-4.protocol.csv	step23	3000	297.848	STIMULATE	46.0	45.9	45.9	45.9	45.9	23	1158.567
1164.6	0	582300	wait	20	2	0	2	0	11.0	0.0	11.0	0.0						1225.511021700222	1230.629479800351	1230.629479800351	2.0	['2', 'return']	[4.342397800181061, 4.990437699947506]	5.11	6.43	3.0	40hz	low_pain	46.0			sub-024	250	24	46	47.5	COM11	COM15	COM3	2024-03-14_13h54.26.274	001-EEG_SVR_Officel	2022.2.5	144.22709468078162		12.61999999999989	1_sub-pilot024_SVR_EEG_block3-4.protocol.csv	step25	3244	322.084	STIMULATE	46.1	45.9	45.9	45.9	45.9	25	1182.8029999999999
1169.71	0	584855	40hz	9	2	0	2	0	11.0	0.0	11.0	0.0						1225.511021700222	1230.629479800351	1230.629479800351	2.0	['2', 'return']	[4.342397800181061, 4.990437699947506]	5.11	6.43	3.0	40hz	low_pain	46.0			sub-024	250	24	46	47.5	COM11	COM15	COM3	2024-03-14_13h54.26.274	001-EEG_SVR_Officel	2022.2.5	144.22709468078162		5.110000000000127	1_sub-pilot024_SVR_EEG_block3-4.protocol.csv	step25	3244	322.084	STIMULATE	46.1	45.9	45.9	45.9	45.9	25	1182.8029999999999
1176.888	0	588444	40/Lo	8	2	0	2	0	11.0	0.0	11.0	0.0						1225.511021700222	1230.629479800351	1230.629479800351	2.0	['2', 'return']	[4.342397800181061, 4.990437699947506]	5.11	6.43	3.0	40hz	low_pain	46.0			sub-024	250	24	46	47.5	COM11	COM15	COM3	2024-03-14_13h54.26.274	001-EEG_SVR_Officel	2022.2.5	144.22709468078162		6.427999999999884	1_sub-pilot024_SVR_EEG_block3-4.protocol.csv	step25	3244	322.084	STIMULATE	46.1	45.9	45.9	45.9	45.9	25	1182.8029999999999
1187.736	0	593868	wait	20	2	0	2	0	12.0	0.0	12.0	0.0						1248.645986800082	1255.6676768003963	1255.6676768003963	4.5	['4', 'a', '5', 'return']	[2.7440062002278864, 3.2396305999718606, 3.5759681002236903, 4.607057900168002]	7.01	5.38	0.0	40hz	high_pain	47.5			sub-024	250	24	46	47.5	COM11	COM15	COM3	2024-03-14_13h54.26.274	001-EEG_SVR_Officel	2022.2.5	144.22709468078162		11.598000000000184	1_sub-pilot024_SVR_EEG_block3-4.protocol.csv	step27	3486	346.096	STIMULATE	47.5	47.4	47.4	47.4	47.5	27	1206.815
1194.744	0	597372	40hz	9	2	0	2	0	12.0	0.0	12.0	0.0						1248.645986800082	1255.6676768003963	1255.6676768003963	4.5	['4', 'a', '5', 'return']	[2.7440062002278864, 3.2396305999718606, 3.5759681002236903, 4.607057900168002]	7.01	5.38	0.0	40hz	high_pain	47.5			sub-024	250	24	46	47.5	COM11	COM15	COM3	2024-03-14_13h54.26.274	001-EEG_SVR_Officel	2022.2.5	144.22709468078162		7.007999999999811	1_sub-pilot024_SVR_EEG_block3-4.protocol.csv	step27	3486	346.096	STIMULATE	47.5	47.4	47.4	47.4	47.5	27	1206.815
1200.876	0	600438	40/Hi	7	2	0	2	0	12.0	0.0	12.0	0.0						1248.645986800082	1255.6676768003963	1255.6676768003963	4.5	['4', 'a', '5', 'return']	[2.7440062002278864, 3.2396305999718606, 3.5759681002236903, 4.607057900168002]	7.01	5.38	0.0	40hz	high_pain	47.5			sub-024	250	24	46	47.5	COM11	COM15	COM3	2024-03-14_13h54.26.274	001-EEG_SVR_Officel	2022.2.5	144.22709468078162		5.382000000000062	1_sub-pilot024_SVR_EEG_block3-4.protocol.csv	step27	3486	346.096	STIMULATE	47.5	47.4	47.4	47.4	47.5	27	1206.815
1212.376	0	606188	wait	20	2	0	2	0	13.0	0.0	13.0	0.0						1273.2878875001334	1278.8089038003236	1278.8089038003236	4.5	['4', 'a', '5', 'return']	[2.5302275996655226, 2.9379663998261094, 3.2176099000498652, 4.058324399869889]	5.51	5.98	1.0	20hz	high_pain	47.5			sub-024	250	24	46	47.5	COM11	COM15	COM3	2024-03-14_13h54.26.274	001-EEG_SVR_Officel	2022.2.5	144.22709468078162		12.25	1_sub-pilot024_SVR_EEG_block3-4.protocol.csv	step29	3726	369.845	STIMULATE	47.5	47.4	47.4	47.4	47.4	29	1230.564
1217.886	0	608943	20hz	6	2	0	2	0	13.0	0.0	13.0	0.0						1273.2878875001334	1278.8089038003236	1278.8089038003236	4.5	['4', 'a', '5', 'return']	[2.5302275996655226, 2.9379663998261094, 3.2176099000498652, 4.058324399869889]	5.51	5.98	1.0	20hz	high_pain	47.5			sub-024	250	24	46	47.5	COM11	COM15	COM3	2024-03-14_13h54.26.274	001-EEG_SVR_Officel	2022.2.5	144.22709468078162		5.509999999999991	1_sub-pilot024_SVR_EEG_block3-4.protocol.csv	step29	3726	369.845	STIMULATE	47.5	47.4	47.4	47.4	47.4	29	1230.564
1224.622	0	612311	20/Hi	4	2	0	2	0	13.0	0.0	13.0	0.0						1273.2878875001334	1278.8089038003236	1278.8089038003236	4.5	['4', 'a', '5', 'return']	[2.5302275996655226, 2.9379663998261094, 3.2176099000498652, 4.058324399869889]	5.51	5.98	1.0	20hz	high_pain	47.5			sub-024	250	24	46	47.5	COM11	COM15	COM3	2024-03-14_13h54.26.274	001-EEG_SVR_Officel	2022.2.5	144.22709468078162		5.986000000000104	1_sub-pilot024_SVR_EEG_block3-4.protocol.csv	step29	3726	369.845	STIMULATE	47.5	47.4	47.4	47.4	47.4	29	1230.564
1234.97	0	617485	wait	20	2	0	2	0	14.0	0.0	14.0	0.0						1295.880367600359	1303.277193600312	1303.277193600312	4.0	['4', 'return']	[2.8456544997170568, 3.5345618999563158]	7.39	5.93	2.0	10hz	high_pain	47.5			sub-024	250	24	46	47.5	COM11	COM15	COM3	2024-03-14_13h54.26.274	001-EEG_SVR_Officel	2022.2.5	144.22709468078162		11.097999999999956	1_sub-pilot024_SVR_EEG_block3-4.protocol.csv	step31	3971	394.163	STIMULATE	47.6	47.4	47.4	47.4	47.5	31	1254.882
1242.354	0	621177	10hz	3	2	0	2	0	14.0	0.0	14.0	0.0						1295.880367600359	1303.277193600312	1303.277193600312	4.0	['4', 'return']	[2.8456544997170568, 3.5345618999563158]	7.39	5.93	2.0	10hz	high_pain	47.5			sub-024	250	24	46	47.5	COM11	COM15	COM3	2024-03-14_13h54.26.274	001-EEG_SVR_Officel	2022.2.5	144.22709468078162		7.3840000000000146	1_sub-pilot024_SVR_EEG_block3-4.protocol.csv	step31	3971	394.163	STIMULATE	47.6	47.4	47.4	47.4	47.5	31	1254.882
1249.032	0	624516	10/Hi	1	2	0	2	0	14.0	0.0	14.0	0.0						1295.880367600359	1303.277193600312	1303.277193600312	4.0	['4', 'return']	[2.8456544997170568, 3.5345618999563158]	7.39	5.93	2.0	10hz	high_pain	47.5			sub-024	250	24	46	47.5	COM11	COM15	COM3	2024-03-14_13h54.26.274	001-EEG_SVR_Officel	2022.2.5	144.22709468078162		5.927999999999884	1_sub-pilot024_SVR_EEG_block3-4.protocol.csv	step31	3971	394.163	STIMULATE	47.6	47.4	47.4	47.4	47.5	31	1254.882
1258.916	0	629458	wait	20	2	0	2	0	15.0	0.0	15.0	0.0						1319.828006000258	1325.8702437002212	1325.8702437002212	1.0	['1', 'return']	[2.2686662999913096, 5.1965437000617385]	6.03	5.15	3.0	controle	low_pain	46.0			sub-024	250	24	46	47.5	COM11	COM15	COM3	2024-03-14_13h54.26.274	001-EEG_SVR_Officel	2022.2.5	144.22709468078162		10.634000000000015	1_sub-pilot024_SVR_EEG_block3-4.protocol.csv	step33	4192	416.051	STIMULATE	46.0	45.9	45.9	45.9	45.9	33	1276.77
1264.948	0	632474	CNhz	12	2	0	2	0	15.0	0.0	15.0	0.0						1319.828006000258	1325.8702437002212	1325.8702437002212	1.0	['1', 'return']	[2.2686662999913096, 5.1965437000617385]	6.03	5.15	3.0	controle	low_pain	46.0			sub-024	250	24	46	47.5	COM11	COM15	COM3	2024-03-14_13h54.26.274	001-EEG_SVR_Officel	2022.2.5	144.22709468078162		6.032000000000153	1_sub-pilot024_SVR_EEG_block3-4.protocol.csv	step33	4192	416.051	STIMULATE	46.0	45.9	45.9	45.9	45.9	33	1276.77
1270.848	0	635424	CN/Lo	11	2	0	2	0	15.0	0.0	15.0	0.0						1319.828006000258	1325.8702437002212	1325.8702437002212	1.0	['1', 'return']	[2.2686662999913096, 5.1965437000617385]	6.03	5.15	3.0	controle	low_pain	46.0			sub-024	250	24	46	47.5	COM11	COM15	COM3	2024-03-14_13h54.26.274	001-EEG_SVR_Officel	2022.2.5	144.22709468078162		5.149999999999864	1_sub-pilot024_SVR_EEG_block3-4.protocol.csv	step33	4192	416.051	STIMULATE	46.0	45.9	45.9	45.9	45.9	33	1276.77
1337.316	0	668658	wait	20	3	0	3	0	0.0	0.0	0.0	0.0				p	0.3411151999607682	1398.22623619996	1403.3656375999562	1403.3656375999562	3.0	['3', 'return']	[2.8295281999744475, 3.878154299687594]	5.13	5.89	0.0	20hz	high_pain	47.5			sub-024	250	24	46	47.5	COM11	COM15	COM3	2024-03-14_13h54.26.274	001-EEG_SVR_Officel	2022.2.5	144.22709468078162		67.21800000000007	1_sub-pilot024_SVR_EEG_block3-4.protocol.csv	step35	4976	494.291	STIMULATE	47.8	47.4	47.4	47.4	47.4	35	1354.962
1342.442	0	671221	20hz	6	3	0	3	0	0.0	0.0	0.0	0.0				p	0.3411151999607682	1398.22623619996	1403.3656375999562	1403.3656375999562	3.0	['3', 'return']	[2.8295281999744475, 3.878154299687594]	5.13	5.89	0.0	20hz	high_pain	47.5			sub-024	250	24	46	47.5	COM11	COM15	COM3	2024-03-14_13h54.26.274	001-EEG_SVR_Officel	2022.2.5	144.22709468078162		5.125999999999976	1_sub-pilot024_SVR_EEG_block3-4.protocol.csv	step35	4976	494.291	STIMULATE	47.8	47.4	47.4	47.4	47.4	35	1354.962
1349.086	0	674543	20/Hi	4	3	0	3	0	0.0	0.0	0.0	0.0				p	0.3411151999607682	1398.22623619996	1403.3656375999562	1403.3656375999562	3.0	['3', 'return']	[2.8295281999744475, 3.878154299687594]	5.13	5.89	0.0	20hz	high_pain	47.5			sub-024	250	24	46	47.5	COM11	COM15	COM3	2024-03-14_13h54.26.274	001-EEG_SVR_Officel	2022.2.5	144.22709468078162		5.8940000000000055	1_sub-pilot024_SVR_EEG_block3-4.protocol.csv	step35	4976	494.291	STIMULATE	47.8	47.4	47.4	47.4	47.4	35	1354.962
1359.352	0	679676	wait	20	3	0	3	0	1.0	0.0	1.0	0.0						1420.2635397999547	1427.3754746001214	1427.3754746001214	2.0	['2', 'return']	[4.500655199866742, 5.172561099752784]	7.1	6.3	1.0	20hz	low_pain	46.0			sub-024	250	24	46	47.5	COM11	COM15	COM3	2024-03-14_13h54.26.274	001-EEG_SVR_Officel	2022.2.5	144.22709468078162		11.016000000000076	1_sub-pilot024_SVR_EEG_block3-4.protocol.csv	step37	5222	518.67	STIMULATE	46.0	45.9	45.9	45.9	45.9	37	1379.341
1366.452	0	683226	20hz	6	3	0	3	0	1.0	0.0	1.0	0.0						1420.2635397999547	1427.3754746001214	1427.3754746001214	2.0	['2', 'return']	[4.500655199866742, 5.172561099752784]	7.1	6.3	1.0	20hz	low_pain	46.0			sub-024	250	24	46	47.5	COM11	COM15	COM3	2024-03-14_13h54.26.274	001-EEG_SVR_Officel	2022.2.5	144.22709468078162		7.099999999999909	1_sub-pilot024_SVR_EEG_block3-4.protocol.csv	step37	5222	518.67	STIMULATE	46.0	45.9	45.9	45.9	45.9	37	1379.341
1373.506	0	686753	20/Lo	5	3	0	3	0	1.0	0.0	1.0	0.0						1420.2635397999547	1427.3754746001214	1427.3754746001214	2.0	['2', 'return']	[4.500655199866742, 5.172561099752784]	7.1	6.3	1.0	20hz	low_pain	46.0			sub-024	250	24	46	47.5	COM11	COM15	COM3	2024-03-14_13h54.26.274	001-EEG_SVR_Officel	2022.2.5	144.22709468078162		6.304000000000087	1_sub-pilot024_SVR_EEG_block3-4.protocol.csv	step37	5222	518.67	STIMULATE	46.0	45.9	45.9	45.9	45.9	37	1379.341
1384.654	0	692327	wait	20	3	0	3	0	2.0	0.0	2.0	0.0						1445.5651796003804	1453.4272777000442	1453.4272777000442	3.0	['3', 'return']	[2.407611900009215, 3.0556056001223624]	7.85	5.1	2.0	20hz	high_pain	47.5			sub-024	250	24	46	47.5	COM11	COM15	COM3	2024-03-14_13h54.26.274	001-EEG_SVR_Officel	2022.2.5	144.22709468078162		11.89799999999991	1_sub-pilot024_SVR_EEG_block3-4.protocol.csv	step39	5472	543.514	STIMULATE	47.7	47.4	47.4	47.4	47.5	39	1404.185
1392.504	0	696252	20hz	6	3	0	3	0	2.0	0.0	2.0	0.0						1445.5651796003804	1453.4272777000442	1453.4272777000442	3.0	['3', 'return']	[2.407611900009215, 3.0556056001223624]	7.85	5.1	2.0	20hz	high_pain	47.5			sub-024	250	24	46	47.5	COM11	COM15	COM3	2024-03-14_13h54.26.274	001-EEG_SVR_Officel	2022.2.5	144.22709468078162		7.849999999999909	1_sub-pilot024_SVR_EEG_block3-4.protocol.csv	step39	5472	543.514	STIMULATE	47.7	47.4	47.4	47.4	47.5	39	1404.185
1398.356	0	699178	20/Hi	4	3	0	3	0	2.0	0.0	2.0	0.0						1445.5651796003804	1453.4272777000442	1453.4272777000442	3.0	['3', 'return']	[2.407611900009215, 3.0556056001223624]	7.85	5.1	2.0	20hz	high_pain	47.5			sub-024	250	24	46	47.5	COM11	COM15	COM3	2024-03-14_13h54.26.274	001-EEG_SVR_Officel	2022.2.5	144.22709468078162		5.102000000000089	1_sub-pilot024_SVR_EEG_block3-4.protocol.csv	step39	5472	543.514	STIMULATE	47.7	47.4	47.4	47.4	47.5	39	1404.185
1408.58	0	704290	wait	20	3	0	3	0	3.0	0.0	3.0	0.0						1469.4915973003954	1475.2076803999953	1475.2076803999953	3.5	['3', 'a', '5', 'return']	[3.083510600030422, 3.3396699000149965, 3.5397048997692764, 4.356493799947202]	5.71	5.8	3.0	40hz	high_pain	47.5			sub-024	250	24	46	47.5	COM11	COM15	COM3	2024-03-14_13h54.26.274	001-EEG_SVR_Officel	2022.2.5	144.22709468078162		10.973999999999933	1_sub-pilot024_SVR_EEG_block3-4.protocol.csv	step41	5699	565.948	STIMULATE	47.6	47.4	47.4	47.4	47.4	41	1426.619
1414.284	0	707142	40hz	9	3	0	3	0	3.0	0.0	3.0	0.0						1469.4915973003954	1475.2076803999953	1475.2076803999953	3.5	['3', 'a', '5', 'return']	[3.083510600030422, 3.3396699000149965, 3.5397048997692764, 4.356493799947202]	5.71	5.8	3.0	40hz	high_pain	47.5			sub-024	250	24	46	47.5	COM11	COM15	COM3	2024-03-14_13h54.26.274	001-EEG_SVR_Officel	2022.2.5	144.22709468078162		5.704000000000178	1_sub-pilot024_SVR_EEG_block3-4.protocol.csv	step41	5699	565.948	STIMULATE	47.6	47.4	47.4	47.4	47.4	41	1426.619
1420.838	0	710419	40/Hi	7	3	0	3	0	3.0	0.0	3.0	0.0						1469.4915973003954	1475.2076803999953	1475.2076803999953	3.5	['3', 'a', '5', 'return']	[3.083510600030422, 3.3396699000149965, 3.5397048997692764, 4.356493799947202]	5.71	5.8	3.0	40hz	high_pain	47.5			sub-024	250	24	46	47.5	COM11	COM15	COM3	2024-03-14_13h54.26.274	001-EEG_SVR_Officel	2022.2.5	144.22709468078162		5.80399999999986	1_sub-pilot024_SVR_EEG_block3-4.protocol.csv	step41	5699	565.948	STIMULATE	47.6	47.4	47.4	47.4	47.4	41	1426.619
1431.664	0	715832	wait	20	3	0	3	0	4.0	0.0	4.0	0.0						1492.5776555002667	1499.1068995003588	1499.1068995003588	3.0	['3', 'return']	[4.697638799902052, 5.258448000065982]	6.52	6.37	0.0	10hz	high_pain	47.5			sub-024	250	24	46	47.5	COM11	COM15	COM3	2024-03-14_13h54.26.274	001-EEG_SVR_Officel	2022.2.5	144.22709468078162		11.576000000000022	1_sub-pilot024_SVR_EEG_block3-4.protocol.csv	step43	5947	590.522	STIMULATE	47.7	47.4	47.4	47.4	47.5	43	1451.193
1438.182	0	719091	10hz	3	3	0	3	0	4.0	0.0	4.0	0.0						1492.5776555002667	1499.1068995003588	1499.1068995003588	3.0	['3', 'return']	[4.697638799902052, 5.258448000065982]	6.52	6.37	0.0	10hz	high_pain	47.5			sub-024	250	24	46	47.5	COM11	COM15	COM3	2024-03-14_13h54.26.274	001-EEG_SVR_Officel	2022.2.5	144.22709468078162		6.518000000000029	1_sub-pilot024_SVR_EEG_block3-4.protocol.csv	step43	5947	590.522	STIMULATE	47.7	47.4	47.4	47.4	47.5	43	1451.193
1445.306	0	722653	10/Hi	1	3	0	3	0	4.0	0.0	4.0	0.0						1492.5776555002667	1499.1068995003588	1499.1068995003588	3.0	['3', 'return']	[4.697638799902052, 5.258448000065982]	6.52	6.37	0.0	10hz	high_pain	47.5			sub-024	250	24	46	47.5	COM11	COM15	COM3	2024-03-14_13h54.26.274	001-EEG_SVR_Officel	2022.2.5	144.22709468078162		6.374000000000024	1_sub-pilot024_SVR_EEG_block3-4.protocol.csv	step43	5947	590.522	STIMULATE	47.7	47.4	47.4	47.4	47.5	43	1451.193
1456.466	0	728233	wait	20	3	0	3	0	5.0	0.0	5.0	0.0						1517.3789021000266	1522.769452100154	1522.769452100154	1.0	['1', 'return']	[2.698353299871087, 4.9216924998909235]	5.38	5.55	1.0	controle	low_pain	46.0			sub-024	250	24	46	47.5	COM11	COM15	COM3	2024-03-14_13h54.26.274	001-EEG_SVR_Officel	2022.2.5	144.22709468078162		11.909999999999854	1_sub-pilot024_SVR_EEG_block3-4.protocol.csv	step45	6177	613.331	STIMULATE	46.0	45.9	45.9	45.9	45.9	45	1474.002
1461.844	0	730922	CNhz	12	3	0	3	0	5.0	0.0	5.0	0.0						1517.3789021000266	1522.769452100154	1522.769452100154	1.0	['1', 'return']	[2.698353299871087, 4.9216924998909235]	5.38	5.55	1.0	controle	low_pain	46.0			sub-024	250	24	46	47.5	COM11	COM15	COM3	2024-03-14_13h54.26.274	001-EEG_SVR_Officel	2022.2.5	144.22709468078162		5.378000000000156	1_sub-pilot024_SVR_EEG_block3-4.protocol.csv	step45	6177	613.331	STIMULATE	46.0	45.9	45.9	45.9	45.9	45	1474.002
1468.148	0	734074	CN/Lo	11	3	0	3	0	5.0	0.0	5.0	0.0						1517.3789021000266	1522.769452100154	1522.769452100154	1.0	['1', 'return']	[2.698353299871087, 4.9216924998909235]	5.38	5.55	1.0	controle	low_pain	46.0			sub-024	250	24	46	47.5	COM11	COM15	COM3	2024-03-14_13h54.26.274	001-EEG_SVR_Officel	2022.2.5	144.22709468078162		5.55399999999986	1_sub-pilot024_SVR_EEG_block3-4.protocol.csv	step45	6177	613.331	STIMULATE	46.0	45.9	45.9	45.9	45.9	45	1474.002
1479.796	0	739898	wait	20	3	0	3	0	6.0	0.0	6.0	0.0						1540.7084595002234	1546.7787941000424	1546.7787941000424	3.0	['3', 'return']	[3.352235000114888, 4.671992599964142]	6.06	5.35	2.0	controle	high_pain	47.5			sub-024	250	24	46	47.5	COM11	COM15	COM3	2024-03-14_13h54.26.274	001-EEG_SVR_Officel	2022.2.5	144.22709468078162		12.398000000000138	1_sub-pilot024_SVR_EEG_block3-4.protocol.csv	step47	6417	637.103	STIMULATE	47.5	47.4	47.4	47.4	47.5	47	1497.774
1485.854	0	742927	CNhz	12	3	0	3	0	6.0	0.0	6.0	0.0						1540.7084595002234	1546.7787941000424	1546.7787941000424	3.0	['3', 'return']	[3.352235000114888, 4.671992599964142]	6.06	5.35	2.0	controle	high_pain	47.5			sub-024	250	24	46	47.5	COM11	COM15	COM3	2024-03-14_13h54.26.274	001-EEG_SVR_Officel	2022.2.5	144.22709468078162		6.057999999999993	1_sub-pilot024_SVR_EEG_block3-4.protocol.csv	step47	6417	637.103	STIMULATE	47.5	47.4	47.4	47.4	47.5	47	1497.774
1491.958	0	745979	CN/Hi	10	3	0	3	0	6.0	0.0	6.0	0.0						1540.7084595002234	1546.7787941000424	1546.7787941000424	3.0	['3', 'return']	[3.352235000114888, 4.671992599964142]	6.06	5.35	2.0	controle	high_pain	47.5			sub-024	250	24	46	47.5	COM11	COM15	COM3	2024-03-14_13h54.26.274	001-EEG_SVR_Officel	2022.2.5	144.22709468078162		5.354000000000042	1_sub-pilot024_SVR_EEG_block3-4.protocol.csv	step47	6417	637.103	STIMULATE	47.5	47.4	47.4	47.4	47.5	47	1497.774
1503.548	0	751774	wait	20	3	0	3	0	7.0	0.0	7.0	0.0						1564.4610099000856	1571.552699800115	1571.552699800115	3.0	['3', 'return']	[3.0519802002236247, 3.7388190999627113]	7.08	5.88	3.0	controle	high_pain	47.5			sub-024	250	24	46	47.5	COM11	COM15	COM3	2024-03-14_13h54.26.274	001-EEG_SVR_Officel	2022.2.5	144.22709468078162		12.339999999999918	1_sub-pilot024_SVR_EEG_block3-4.protocol.csv	step49	6672	662.416	STIMULATE	47.7	47.4	47.4	47.4	47.4	49	1523.087
1510.628	0	755314	CNhz	12	3	0	3	0	7.0	0.0	7.0	0.0						1564.4610099000856	1571.552699800115	1571.552699800115	3.0	['3', 'return']	[3.0519802002236247, 3.7388190999627113]	7.08	5.88	3.0	controle	high_pain	47.5			sub-024	250	24	46	47.5	COM11	COM15	COM3	2024-03-14_13h54.26.274	001-EEG_SVR_Officel	2022.2.5	144.22709468078162		7.079999999999927	1_sub-pilot024_SVR_EEG_block3-4.protocol.csv	step49	6672	662.416	STIMULATE	47.7	47.4	47.4	47.4	47.4	49	1523.087
1517.258	0	758629	CN/Hi	10	3	0	3	0	7.0	0.0	7.0	0.0						1564.4610099000856	1571.552699800115	1571.552699800115	3.0	['3', 'return']	[3.0519802002236247, 3.7388190999627113]	7.08	5.88	3.0	controle	high_pain	47.5			sub-024	250	24	46	47.5	COM11	COM15	COM3	2024-03-14_13h54.26.274	001-EEG_SVR_Officel	2022.2.5	144.22709468078162		5.880000000000109	1_sub-pilot024_SVR_EEG_block3-4.protocol.csv	step49	6672	662.416	STIMULATE	47.7	47.4	47.4	47.4	47.4	49	1523.087
1527.398	0	763699	wait	20	3	0	3	0	8.0	0.0	8.0	0.0						1588.311444000341	1595.007221000269	1595.007221000269	2.0	['2', 'return']	[2.803313999902457, 3.53998429980129]	6.69	6.03	0.0	10hz	low_pain	46.0			sub-024	250	24	46	47.5	COM11	COM15	COM3	2024-03-14_13h54.26.274	001-EEG_SVR_Officel	2022.2.5	144.22709468078162		10.889999999999873	1_sub-pilot024_SVR_EEG_block3-4.protocol.csv	step51	6910	686.015	STIMULATE	46.2	45.9	45.9	45.9	45.9	51	1546.686
1534.084	0	767042	10hz	3	3	0	3	0	8.0	0.0	8.0	0.0						1588.311444000341	1595.007221000269	1595.007221000269	2.0	['2', 'return']	[2.803313999902457, 3.53998429980129]	6.69	6.03	0.0	10hz	low_pain	46.0			sub-024	250	24	46	47.5	COM11	COM15	COM3	2024-03-14_13h54.26.274	001-EEG_SVR_Officel	2022.2.5	144.22709468078162		6.686000000000149	1_sub-pilot024_SVR_EEG_block3-4.protocol.csv	step51	6910	686.015	STIMULATE	46.2	45.9	45.9	45.9	45.9	51	1546.686
1540.866	0	770433	10/Lo	2	3	0	3	0	8.0	0.0	8.0	0.0						1588.311444000341	1595.007221000269	1595.007221000269	2.0	['2', 'return']	[2.803313999902457, 3.53998429980129]	6.69	6.03	0.0	10hz	low_pain	46.0			sub-024	250	24	46	47.5	COM11	COM15	COM3	2024-03-14_13h54.26.274	001-EEG_SVR_Officel	2022.2.5	144.22709468078162		6.031999999999925	1_sub-pilot024_SVR_EEG_block3-4.protocol.csv	step51	6910	686.015	STIMULATE	46.2	45.9	45.9	45.9	45.9	51	1546.686
1550.646	0	775323	wait	20	3	0	3	0	9.0	0.0	9.0	0.0						1611.5577684002928	1617.4329619002528	1617.4329619002528	4.0	['4', 'return']	[4.874710800126195, 6.034628699999303]	5.87	6.35	1.0	40hz	high_pain	47.5			sub-024	250	24	46	47.5	COM11	COM15	COM3	2024-03-14_13h54.26.274	001-EEG_SVR_Officel	2022.2.5	144.22709468078162		10.529999999999973	1_sub-pilot024_SVR_EEG_block3-4.protocol.csv	step53	7140	708.854	STIMULATE	47.6	47.4	47.4	47.4	47.4	53	1569.525
1556.508	0	778254	40hz	9	3	0	3	0	9.0	0.0	9.0	0.0						1611.5577684002928	1617.4329619002528	1617.4329619002528	4.0	['4', 'return']	[4.874710800126195, 6.034628699999303]	5.87	6.35	1.0	40hz	high_pain	47.5			sub-024	250	24	46	47.5	COM11	COM15	COM3	2024-03-14_13h54.26.274	001-EEG_SVR_Officel	2022.2.5	144.22709468078162		5.86200000000008	1_sub-pilot024_SVR_EEG_block3-4.protocol.csv	step53	7140	708.854	STIMULATE	47.6	47.4	47.4	47.4	47.4	53	1569.525
1563.612	0	781806	40/Hi	7	3	0	3	0	9.0	0.0	9.0	0.0						1611.5577684002928	1617.4329619002528	1617.4329619002528	4.0	['4', 'return']	[4.874710800126195, 6.034628699999303]	5.87	6.35	1.0	40hz	high_pain	47.5			sub-024	250	24	46	47.5	COM11	COM15	COM3	2024-03-14_13h54.26.274	001-EEG_SVR_Officel	2022.2.5	144.22709468078162		6.354000000000042	1_sub-pilot024_SVR_EEG_block3-4.protocol.csv	step53	7140	708.854	STIMULATE	47.6	47.4	47.4	47.4	47.4	53	1569.525
1575.564	0	787782	wait	20	3	0	3	0	10.0	0.0	10.0	0.0						1636.47691940004	1642.5116548002698	1642.5116548002698	1.0	['1', 'return']	[2.956016299780458, 3.58021209994331]	6.03	5.68	2.0	controle	low_pain	46.0			sub-024	250	24	46	47.5	COM11	COM15	COM3	2024-03-14_13h54.26.274	001-EEG_SVR_Officel	2022.2.5	144.22709468078162		12.701999999999998	1_sub-pilot024_SVR_EEG_block3-4.protocol.csv	step55	7386	733.271	STIMULATE	46.1	45.9	45.9	45.9	45.9	55	1593.942
1581.594	0	790797	CNhz	12	3	0	3	0	10.0	0.0	10.0	0.0						1636.47691940004	1642.5116548002698	1642.5116548002698	1.0	['1', 'return']	[2.956016299780458, 3.58021209994331]	6.03	5.68	2.0	controle	low_pain	46.0			sub-024	250	24	46	47.5	COM11	COM15	COM3	2024-03-14_13h54.26.274	001-EEG_SVR_Officel	2022.2.5	144.22709468078162		6.029999999999973	1_sub-pilot024_SVR_EEG_block3-4.protocol.csv	step55	7386	733.271	STIMULATE	46.1	45.9	45.9	45.9	45.9	55	1593.942
1588.024	0	794012	CN/Lo	11	3	0	3	0	10.0	0.0	10.0	0.0						1636.47691940004	1642.5116548002698	1642.5116548002698	1.0	['1', 'return']	[2.956016299780458, 3.58021209994331]	6.03	5.68	2.0	controle	low_pain	46.0			sub-024	250	24	46	47.5	COM11	COM15	COM3	2024-03-14_13h54.26.274	001-EEG_SVR_Officel	2022.2.5	144.22709468078162		5.679999999999836	1_sub-pilot024_SVR_EEG_block3-4.protocol.csv	step55	7386	733.271	STIMULATE	46.1	45.9	45.9	45.9	45.9	55	1593.942
1598.206	0	799103	wait	20	3	0	3	0	11.0	0.0	11.0	0.0						1659.118953500409	1664.2583362003788	1664.2583362003788	4.0	['4', 'return']	[3.4970152000896633, 4.032866300083697]	5.13	6.27	3.0	10hz	high_pain	47.5			sub-024	250	24	46	47.5	COM11	COM15	COM3	2024-03-14_13h54.26.274	001-EEG_SVR_Officel	2022.2.5	144.22709468078162		10.932000000000016	1_sub-pilot024_SVR_EEG_block3-4.protocol.csv	step57	7610	755.585	STIMULATE	47.7	47.4	47.4	47.4	47.5	57	1616.256
1603.332	0	801666	10hz	3	3	0	3	0	11.0	0.0	11.0	0.0						1659.118953500409	1664.2583362003788	1664.2583362003788	4.0	['4', 'return']	[3.4970152000896633, 4.032866300083697]	5.13	6.27	3.0	10hz	high_pain	47.5			sub-024	250	24	46	47.5	COM11	COM15	COM3	2024-03-14_13h54.26.274	001-EEG_SVR_Officel	2022.2.5	144.22709468078162		5.126000000000204	1_sub-pilot024_SVR_EEG_block3-4.protocol.csv	step57	7610	755.585	STIMULATE	47.7	47.4	47.4	47.4	47.5	57	1616.256
1610.352	0	805176	10/Hi	1	3	0	3	0	11.0	0.0	11.0	0.0						1659.118953500409	1664.2583362003788	1664.2583362003788	4.0	['4', 'return']	[3.4970152000896633, 4.032866300083697]	5.13	6.27	3.0	10hz	high_pain	47.5			sub-024	250	24	46	47.5	COM11	COM15	COM3	2024-03-14_13h54.26.274	001-EEG_SVR_Officel	2022.2.5	144.22709468078162		6.269999999999982	1_sub-pilot024_SVR_EEG_block3-4.protocol.csv	step57	7610	755.585	STIMULATE	47.7	47.4	47.4	47.4	47.5	57	1616.256
1620.388	0	810194	wait	20	3	0	3	0	12.0	0.0	12.0	0.0						1681.3013528003355	1686.57335099997	1686.57335099997	2.0	['2', 'return']	[3.3991756001487374, 6.413798100315034]	5.26	5.33	0.0	controle	low_pain	46.0			sub-024	250	24	46	47.5	COM11	COM15	COM3	2024-03-14_13h54.26.274	001-EEG_SVR_Officel	2022.2.5	144.22709468078162		10.78599999999983	1_sub-pilot024_SVR_EEG_block3-4.protocol.csv	step59	7822	776.991	STIMULATE	46.1	45.9	45.9	45.9	45.9	59	1637.662
1625.648	0	812824	CNhz	12	3	0	3	0	12.0	0.0	12.0	0.0						1681.3013528003355	1686.57335099997	1686.57335099997	2.0	['2', 'return']	[3.3991756001487374, 6.413798100315034]	5.26	5.33	0.0	controle	low_pain	46.0			sub-024	250	24	46	47.5	COM11	COM15	COM3	2024-03-14_13h54.26.274	001-EEG_SVR_Officel	2022.2.5	144.22709468078162		5.259999999999991	1_sub-pilot024_SVR_EEG_block3-4.protocol.csv	step59	7822	776.991	STIMULATE	46.1	45.9	45.9	45.9	45.9	59	1637.662
1631.73	0	815865	CN/Lo	11	3	0	3	0	12.0	0.0	12.0	0.0						1681.3013528003355	1686.57335099997	1686.57335099997	2.0	['2', 'return']	[3.3991756001487374, 6.413798100315034]	5.26	5.33	0.0	controle	low_pain	46.0			sub-024	250	24	46	47.5	COM11	COM15	COM3	2024-03-14_13h54.26.274	001-EEG_SVR_Officel	2022.2.5	144.22709468078162		5.332000000000107	1_sub-pilot024_SVR_EEG_block3-4.protocol.csv	step59	7822	776.991	STIMULATE	46.1	45.9	45.9	45.9	45.9	59	1637.662
1645.084	0	822542	wait	20	3	0	3	0	13.0	0.0	13.0	0.0						1705.9992399001494	1711.5763252000324	1711.5763252000324	1.0	['1', 'return']	[2.7387039996683598, 3.306548799853772]	5.57	5.41	1.0	40hz	low_pain	46.0			sub-024	250	24	46	47.5	COM11	COM15	COM3	2024-03-14_13h54.26.274	001-EEG_SVR_Officel	2022.2.5	144.22709468078162		14.104000000000042	1_sub-pilot024_SVR_EEG_block3-4.protocol.csv	step61	8065	802.028	STIMULATE	46.0	45.9	45.9	45.9	45.9	61	1662.699
1650.652	0	825326	40hz	9	3	0	3	0	13.0	0.0	13.0	0.0						1705.9992399001494	1711.5763252000324	1711.5763252000324	1.0	['1', 'return']	[2.7387039996683598, 3.306548799853772]	5.57	5.41	1.0	40hz	low_pain	46.0			sub-024	250	24	46	47.5	COM11	COM15	COM3	2024-03-14_13h54.26.274	001-EEG_SVR_Officel	2022.2.5	144.22709468078162		5.567999999999984	1_sub-pilot024_SVR_EEG_block3-4.protocol.csv	step61	8065	802.028	STIMULATE	46.0	45.9	45.9	45.9	45.9	61	1662.699
1656.81	0	828405	40/Lo	8	3	0	3	0	13.0	0.0	13.0	0.0						1705.9992399001494	1711.5763252000324	1711.5763252000324	1.0	['1', 'return']	[2.7387039996683598, 3.306548799853772]	5.57	5.41	1.0	40hz	low_pain	46.0			sub-024	250	24	46	47.5	COM11	COM15	COM3	2024-03-14_13h54.26.274	001-EEG_SVR_Officel	2022.2.5	144.22709468078162		5.407999999999902	1_sub-pilot024_SVR_EEG_block3-4.protocol.csv	step61	8065	802.028	STIMULATE	46.0	45.9	45.9	45.9	45.9	61	1662.699
1666.992	0	833496	wait	20	3	0	3	0	14.0	0.0	14.0	0.0						1727.9053466003388	1733.711765800137	1733.711765800137	2.0	['2', 'return']	[3.5656126998364925, 4.563874300103635]	5.8	6.49	2.0	20hz	low_pain	46.0			sub-024	250	24	46	47.5	COM11	COM15	COM3	2024-03-14_13h54.26.274	001-EEG_SVR_Officel	2022.2.5	144.22709468078162		10.932000000000016	1_sub-pilot024_SVR_EEG_block3-4.protocol.csv	step63	8288	825.236	STIMULATE	46.0	45.9	45.9	45.9	45.9	63	1685.907
1672.786	0	836393	20hz	6	3	0	3	0	14.0	0.0	14.0	0.0						1727.9053466003388	1733.711765800137	1733.711765800137	2.0	['2', 'return']	[3.5656126998364925, 4.563874300103635]	5.8	6.49	2.0	20hz	low_pain	46.0			sub-024	250	24	46	47.5	COM11	COM15	COM3	2024-03-14_13h54.26.274	001-EEG_SVR_Officel	2022.2.5	144.22709468078162		5.794000000000096	1_sub-pilot024_SVR_EEG_block3-4.protocol.csv	step63	8288	825.236	STIMULATE	46.0	45.9	45.9	45.9	45.9	63	1685.907
1680.028	0	840014	20/Lo	5	3	0	3	0	14.0	0.0	14.0	0.0						1727.9053466003388	1733.711765800137	1733.711765800137	2.0	['2', 'return']	[3.5656126998364925, 4.563874300103635]	5.8	6.49	2.0	20hz	low_pain	46.0			sub-024	250	24	46	47.5	COM11	COM15	COM3	2024-03-14_13h54.26.274	001-EEG_SVR_Officel	2022.2.5	144.22709468078162		6.491999999999962	1_sub-pilot024_SVR_EEG_block3-4.protocol.csv	step63	8288	825.236	STIMULATE	46.0	45.9	45.9	45.9	45.9	63	1685.907
1690.382	0	845191	wait	20	3	0	3	0	15.0	0.0	15.0	0.0						1751.2963821003214	1759.068150400184	1759.068150400184	1.0	['1', 'return']	[3.128593999892473, 3.7764570000581443]	7.76	6.39	3.0	10hz	low_pain	46.0			sub-024	250	24	46	47.5	COM11	COM15	COM3	2024-03-14_13h54.26.274	001-EEG_SVR_Officel	2022.2.5	144.22709468078162		11.104000000000042	1_sub-pilot024_SVR_EEG_block3-4.protocol.csv	step65	8529	850.507	STIMULATE	46.1	45.9	45.9	45.9	45.9	65	1711.1779999999999
1698.142	0	849071	10hz	3	3	0	3	0	15.0	0.0	15.0	0.0						1751.2963821003214	1759.068150400184	1759.068150400184	1.0	['1', 'return']	[3.128593999892473, 3.7764570000581443]	7.76	6.39	3.0	10hz	low_pain	46.0			sub-024	250	24	46	47.5	COM11	COM15	COM3	2024-03-14_13h54.26.274	001-EEG_SVR_Officel	2022.2.5	144.22709468078162		7.759999999999991	1_sub-pilot024_SVR_EEG_block3-4.protocol.csv	step65	8529	850.507	STIMULATE	46.1	45.9	45.9	45.9	45.9	65	1711.1779999999999
1705.286	0	852643	10/Lo	2	3	0	3	0	15.0	0.0	15.0	0.0						1751.2963821003214	1759.068150400184	1759.068150400184	1.0	['1', 'return']	[3.128593999892473, 3.7764570000581443]	7.76	6.39	3.0	10hz	low_pain	46.0			sub-024	250	24	46	47.5	COM11	COM15	COM3	2024-03-14_13h54.26.274	001-EEG_SVR_Officel	2022.2.5	144.22709468078162		6.3940000000000055	1_sub-pilot024_SVR_EEG_block3-4.protocol.csv	step65	8529	850.507	STIMULATE	46.1	45.9	45.9	45.9	45.9	65	1711.1779999999999
1777.152	0	888576	wait	20	4	0	4	0	0.0	0.0	0.0	0.0				p	0.7173725999891758	1838.064762700349	1845.8639988000505	1845.8639988000505	4.5	['4', 'a', '5', 'return']	[3.516431899741292, 3.9235780998133123, 4.139485499821603, 4.851901799906045]	7.79	5.74	0.0	controle	high_pain	47.5			sub-024	250	24	46	47.5	COM11	COM15	COM3	2024-03-14_13h54.26.274	001-EEG_SVR_Officel	2022.2.5	144.22709468078162		72.61599999999999	2_sub-pilot024_SVR_EEG_block5-6.protocol.csv	step3	506	50.412	STIMULATE	47.6	47.4	47.4	47.4	47.5	3	1797.3110000000001
1784.936	0	892468	CNhz	12	4	0	4	0	0.0	0.0	0.0	0.0				p	0.7173725999891758	1838.064762700349	1845.8639988000505	1845.8639988000505	4.5	['4', 'a', '5', 'return']	[3.516431899741292, 3.9235780998133123, 4.139485499821603, 4.851901799906045]	7.79	5.74	0.0	controle	high_pain	47.5			sub-024	250	24	46	47.5	COM11	COM15	COM3	2024-03-14_13h54.26.274	001-EEG_SVR_Officel	2022.2.5	144.22709468078162		7.783999999999878	2_sub-pilot024_SVR_EEG_block5-6.protocol.csv	step3	506	50.412	STIMULATE	47.6	47.4	47.4	47.4	47.5	3	1797.3110000000001
1791.428	0	895714	CN/Hi	10	4	0	4	0	0.0	0.0	0.0	0.0				p	0.7173725999891758	1838.064762700349	1845.8639988000505	1845.8639988000505	4.5	['4', 'a', '5', 'return']	[3.516431899741292, 3.9235780998133123, 4.139485499821603, 4.851901799906045]	7.79	5.74	0.0	controle	high_pain	47.5			sub-024	250	24	46	47.5	COM11	COM15	COM3	2024-03-14_13h54.26.274	001-EEG_SVR_Officel	2022.2.5	144.22709468078162		5.742000000000189	2_sub-pilot024_SVR_EEG_block5-6.protocol.csv	step3	506	50.412	STIMULATE	47.6	47.4	47.4	47.4	47.5	3	1797.3110000000001
1802.818	0	901409	wait	20	4	0	4	0	1.0	0.0	1.0	0.0						1863.7336681000888	1871.2830048003236	1871.2830048003236	4.0	['4', 'return']	[3.400058100000024, 4.351928899995983]	7.54	6.43	1.0	20hz	high_pain	47.5			sub-024	250	24	46	47.5	COM11	COM15	COM3	2024-03-14_13h54.26.274	001-EEG_SVR_Officel	2022.2.5	144.22709468078162		12.139999999999873	2_sub-pilot024_SVR_EEG_block5-6.protocol.csv	step5	769	76.526	STIMULATE	47.6	47.4	47.4	47.4	47.5	5	1823.4250000000002
1810.356	0	905178	20hz	6	4	0	4	0	1.0	0.0	1.0	0.0						1863.7336681000888	1871.2830048003236	1871.2830048003236	4.0	['4', 'return']	[3.400058100000024, 4.351928899995983]	7.54	6.43	1.0	20hz	high_pain	47.5			sub-024	250	24	46	47.5	COM11	COM15	COM3	2024-03-14_13h54.26.274	001-EEG_SVR_Officel	2022.2.5	144.22709468078162		7.538000000000011	2_sub-pilot024_SVR_EEG_block5-6.protocol.csv	step5	769	76.526	STIMULATE	47.6	47.4	47.4	47.4	47.5	5	1823.4250000000002
1817.536	0	908768	20/Hi	4	4	0	4	0	1.0	0.0	1.0	0.0						1863.7336681000888	1871.2830048003236	1871.2830048003236	4.0	['4', 'return']	[3.400058100000024, 4.351928899995983]	7.54	6.43	1.0	20hz	high_pain	47.5			sub-024	250	24	46	47.5	COM11	COM15	COM3	2024-03-14_13h54.26.274	001-EEG_SVR_Officel	2022.2.5	144.22709468078162		6.430000000000064	2_sub-pilot024_SVR_EEG_block5-6.protocol.csv	step5	769	76.526	STIMULATE	47.6	47.4	47.4	47.4	47.5	5	1823.4250000000002
1827.738	0	913869	wait	20	4	0	4	0	2.0	0.0	2.0	0.0						1888.6532590002755	1896.0707070003264	1896.0707070003264	2.0	['2', 'return']	[1.6849743002094328, 2.3965905001387]	7.41	5.33	2.0	20hz	low_pain	46.0			sub-024	250	24	46	47.5	COM11	COM15	COM3	2024-03-14_13h54.26.274	001-EEG_SVR_Officel	2022.2.5	144.22709468078162		10.951999999999998	2_sub-pilot024_SVR_EEG_block5-6.protocol.csv	step7	1008	100.224	STIMULATE	46.0	45.9	45.9	45.9	45.9	7	1847.123
1835.144	0	917572	20hz	6	4	0	4	0	2.0	0.0	2.0	0.0						1888.6532590002755	1896.0707070003264	1896.0707070003264	2.0	['2', 'return']	[1.6849743002094328, 2.3965905001387]	7.41	5.33	2.0	20hz	low_pain	46.0			sub-024	250	24	46	47.5	COM11	COM15	COM3	2024-03-14_13h54.26.274	001-EEG_SVR_Officel	2022.2.5	144.22709468078162		7.405999999999949	2_sub-pilot024_SVR_EEG_block5-6.protocol.csv	step7	1008	100.224	STIMULATE	46.0	45.9	45.9	45.9	45.9	7	1847.123
1841.226	0	920613	20/Lo	5	4	0	4	0	2.0	0.0	2.0	0.0						1888.6532590002755	1896.0707070003264	1896.0707070003264	2.0	['2', 'return']	[1.6849743002094328, 2.3965905001387]	7.41	5.33	2.0	20hz	low_pain	46.0			sub-024	250	24	46	47.5	COM11	COM15	COM3	2024-03-14_13h54.26.274	001-EEG_SVR_Officel	2022.2.5	144.22709468078162		5.332000000000107	2_sub-pilot024_SVR_EEG_block5-6.protocol.csv	step7	1008	100.224	STIMULATE	46.0	45.9	45.9	45.9	45.9	7	1847.123
1850.566	0	925283	wait	20	4	0	4	0	3.0	0.0	3.0	0.0						1911.4814936001785	1918.8929503001275	1918.8929503001275	1.0	['1', 'return']	[2.1752587002702057, 3.0718196001835167]	7.4	5.84	3.0	40hz	low_pain	46.0			sub-024	250	24	46	47.5	COM11	COM15	COM3	2024-03-14_13h54.26.274	001-EEG_SVR_Officel	2022.2.5	144.22709468078162		10.089999999999918	2_sub-pilot024_SVR_EEG_block5-6.protocol.csv	step9	1243	123.501	STIMULATE	45.9	45.9	45.9	45.9	45.9	9	1870.4
1857.966	0	928983	40hz	9	4	0	4	0	3.0	0.0	3.0	0.0						1911.4814936001785	1918.8929503001275	1918.8929503001275	1.0	['1', 'return']	[2.1752587002702057, 3.0718196001835167]	7.4	5.84	3.0	40hz	low_pain	46.0			sub-024	250	24	46	47.5	COM11	COM15	COM3	2024-03-14_13h54.26.274	001-EEG_SVR_Officel	2022.2.5	144.22709468078162		7.399999999999864	2_sub-pilot024_SVR_EEG_block5-6.protocol.csv	step9	1243	123.501	STIMULATE	45.9	45.9	45.9	45.9	45.9	9	1870.4
1864.554	0	932277	40/Lo	8	4	0	4	0	3.0	0.0	3.0	0.0						1911.4814936001785	1918.8929503001275	1918.8929503001275	1.0	['1', 'return']	[2.1752587002702057, 3.0718196001835167]	7.4	5.84	3.0	40hz	low_pain	46.0			sub-024	250	24	46	47.5	COM11	COM15	COM3	2024-03-14_13h54.26.274	001-EEG_SVR_Officel	2022.2.5	144.22709468078162		5.838000000000193	2_sub-pilot024_SVR_EEG_block5-6.protocol.csv	step9	1243	123.501	STIMULATE	45.9	45.9	45.9	45.9	45.9	9	1870.4
1874.07	0	937035	wait	20	4	0	4	0	4.0	0.0	4.0	0.0						1934.9851293000395	1941.583265000023	1941.583265000023	2.0	['2', 'return']	[3.2254967000335455, 3.9704354000277817]	6.59	6.2	0.0	10hz	low_pain	46.0			sub-024	250	24	46	47.5	COM11	COM15	COM3	2024-03-14_13h54.26.274	001-EEG_SVR_Officel	2022.2.5	144.22709468078162		10.265999999999849	2_sub-pilot024_SVR_EEG_block5-6.protocol.csv	step11	1476	146.605	STIMULATE	45.9	45.9	45.9	45.9	46.1	11	1893.5040000000001
1880.656	0	940328	10hz	3	4	0	4	0	4.0	0.0	4.0	0.0						1934.9851293000395	1941.583265000023	1941.583265000023	2.0	['2', 'return']	[3.2254967000335455, 3.9704354000277817]	6.59	6.2	0.0	10hz	low_pain	46.0			sub-024	250	24	46	47.5	COM11	COM15	COM3	2024-03-14_13h54.26.274	001-EEG_SVR_Officel	2022.2.5	144.22709468078162		6.586000000000013	2_sub-pilot024_SVR_EEG_block5-6.protocol.csv	step11	1476	146.605	STIMULATE	45.9	45.9	45.9	45.9	46.1	11	1893.5040000000001
1887.606	0	943803	10/Lo	2	4	0	4	0	4.0	0.0	4.0	0.0						1934.9851293000395	1941.583265000023	1941.583265000023	2.0	['2', 'return']	[3.2254967000335455, 3.9704354000277817]	6.59	6.2	0.0	10hz	low_pain	46.0			sub-024	250	24	46	47.5	COM11	COM15	COM3	2024-03-14_13h54.26.274	001-EEG_SVR_Officel	2022.2.5	144.22709468078162		6.2000000000000455	2_sub-pilot024_SVR_EEG_block5-6.protocol.csv	step11	1476	146.605	STIMULATE	45.9	45.9	45.9	45.9	46.1	11	1893.5040000000001
1897.656	0	948828	wait	20	4	0	4	0	5.0	0.0	5.0	0.0						1958.5717425001783	1964.690892000217	1964.690892000217	5.0	['5', 'return']	[2.1285950001329184, 2.6727479002438486]	6.11	5.19	1.0	40hz	high_pain	47.5			sub-024	250	24	46	47.5	COM11	COM15	COM3	2024-03-14_13h54.26.274	001-EEG_SVR_Officel	2022.2.5	144.22709468078162		10.799999999999955	2_sub-pilot024_SVR_EEG_block5-6.protocol.csv	step13	1699	168.711	STIMULATE	47.5	47.4	47.4	47.4	47.4	13	1915.6100000000001
1903.764	0	951882	40hz	9	4	0	4	0	5.0	0.0	5.0	0.0						1958.5717425001783	1964.690892000217	1964.690892000217	5.0	['5', 'return']	[2.1285950001329184, 2.6727479002438486]	6.11	5.19	1.0	40hz	high_pain	47.5			sub-024	250	24	46	47.5	COM11	COM15	COM3	2024-03-14_13h54.26.274	001-EEG_SVR_Officel	2022.2.5	144.22709468078162		6.107999999999947	2_sub-pilot024_SVR_EEG_block5-6.protocol.csv	step13	1699	168.711	STIMULATE	47.5	47.4	47.4	47.4	47.4	13	1915.6100000000001
1909.708	0	954854	40/Hi	7	4	0	4	0	5.0	0.0	5.0	0.0						1958.5717425001783	1964.690892000217	1964.690892000217	5.0	['5', 'return']	[2.1285950001329184, 2.6727479002438486]	6.11	5.19	1.0	40hz	high_pain	47.5			sub-024	250	24	46	47.5	COM11	COM15	COM3	2024-03-14_13h54.26.274	001-EEG_SVR_Officel	2022.2.5	144.22709468078162		5.194000000000187	2_sub-pilot024_SVR_EEG_block5-6.protocol.csv	step13	1699	168.711	STIMULATE	47.5	47.4	47.4	47.4	47.4	13	1915.6100000000001
1919.464	0	959732	wait	20	4	0	4	0	6.0	0.0	6.0	0.0						1980.3799709002487	1987.4776141000912	1987.4776141000912	2.0	['2', 'return']	[2.270312299951911, 2.8374135000631213]	7.09	6.14	2.0	controle	low_pain	46.0			sub-024	250	24	46	47.5	COM11	COM15	COM3	2024-03-14_13h54.26.274	001-EEG_SVR_Officel	2022.2.5	144.22709468078162		10.505999999999858	2_sub-pilot024_SVR_EEG_block5-6.protocol.csv	step15	1938	192.46	STIMULATE	46.0	45.9	45.9	45.9	45.9	15	1939.3590000000002
1926.55	0	963275	CNhz	12	4	0	4	0	6.0	0.0	6.0	0.0						1980.3799709002487	1987.4776141000912	1987.4776141000912	2.0	['2', 'return']	[2.270312299951911, 2.8374135000631213]	7.09	6.14	2.0	controle	low_pain	46.0			sub-024	250	24	46	47.5	COM11	COM15	COM3	2024-03-14_13h54.26.274	001-EEG_SVR_Officel	2022.2.5	144.22709468078162		7.086000000000013	2_sub-pilot024_SVR_EEG_block5-6.protocol.csv	step15	1938	192.46	STIMULATE	46.0	45.9	45.9	45.9	45.9	15	1939.3590000000002
1933.444	0	966722	CN/Lo	11	4	0	4	0	6.0	0.0	6.0	0.0						1980.3799709002487	1987.4776141000912	1987.4776141000912	2.0	['2', 'return']	[2.270312299951911, 2.8374135000631213]	7.09	6.14	2.0	controle	low_pain	46.0			sub-024	250	24	46	47.5	COM11	COM15	COM3	2024-03-14_13h54.26.274	001-EEG_SVR_Officel	2022.2.5	144.22709468078162		6.1440000000000055	2_sub-pilot024_SVR_EEG_block5-6.protocol.csv	step15	1938	192.46	STIMULATE	46.0	45.9	45.9	45.9	45.9	15	1939.3590000000002
1942.41	0	971205	wait	20	4	0	4	0	7.0	0.0	7.0	0.0						2003.3271885002032	2008.96633750014	2008.96633750014	4.0	['4', 'return']	[2.8052845001220703, 3.901478699874133]	5.63	6.17	3.0	20hz	high_pain	47.5			sub-024	250	24	46	47.5	COM11	COM15	COM3	2024-03-14_13h54.26.274	001-EEG_SVR_Officel	2022.2.5	144.22709468078162		9.716000000000122	2_sub-pilot024_SVR_EEG_block5-6.protocol.csv	step17	2155	213.972	STIMULATE	47.5	47.4	47.4	47.4	47.5	17	1960.871
