onset	duration	sample	trial_type	value	block.thisRepN	block.thisTrialN	block.thisN	block.thisIndex	reps.thisRepN	reps.thisTrialN	reps.thisN	reps.thisIndex	afrec_start	rec_start	rec_start_egi	key_resp.keys	key_resp.rt	wait_time_text.started	wait_time_text.stopped	therm_loca_text.started	subResponse	keyResp.keys	keyResp.rt	ITI_wait	wait_trigger	loca_thermode	Hz_condition	temp_condition	temp_valeur	text.started	text.stopped	participant	brightness	num_part	low	high	com_svr	com_thermode	com_eeg	date	expName	psychopyVersion	frameRate	Unnamed: 39	distance_from_previous	file	step	index	time	type	temp1	temp2	temp3	temp4	temp5	step_num	time_sync
72.632	0	36316	wait	20	0	0	0	0	0.0	0.0	0.0	0.0	98.92922829999588	98.71943140006624	1713362770.6795115	p	72.39222049992532	171.35326989996247	176.60377499996684	176.60377499996684	7.0	['7', 'return']	[4.063828399870545, 4.679306000005454]	5.24	6.24	0.0	40hz	high_pain	47.5			sub-031	250	31	45.7	47.5	COM11	COM15	COM3	2024-04-17_10h04.57.004	001-EEG_SVR_Officel	2022.2.5	144.00693561459224		72.632	0_sub-pilot031_SVR_EEG_block1-2.protocol.csv	step3	1573	157.141	STIMULATE	47.6	47.5	47.4	47.4	47.6	3	90.72299999999998
77.87	0	38935	40hz	9	0	0	0	0	0.0	0.0	0.0	0.0	98.92922829999588	98.71943140006624	1713362770.6795115	p	72.39222049992532	171.35326989996247	176.60377499996684	176.60377499996684	7.0	['7', 'return']	[4.063828399870545, 4.679306000005454]	5.24	6.24	0.0	40hz	high_pain	47.5			sub-031	250	31	45.7	47.5	COM11	COM15	COM3	2024-04-17_10h04.57.004	001-EEG_SVR_Officel	2022.2.5	144.00693561459224		5.2379999999999995	0_sub-pilot031_SVR_EEG_block1-2.protocol.csv	step3	1573	157.141	STIMULATE	47.6	47.5	47.4	47.4	47.6	3	90.72299999999998
84.862	0	42431	40/Hi	7	0	0	0	0	0.0	0.0	0.0	0.0	98.92922829999588	98.71943140006624	1713362770.6795115	p	72.39222049992532	171.35326989996247	176.60377499996684	176.60377499996684	7.0	['7', 'return']	[4.063828399870545, 4.679306000005454]	5.24	6.24	0.0	40hz	high_pain	47.5			sub-031	250	31	45.7	47.5	COM11	COM15	COM3	2024-04-17_10h04.57.004	001-EEG_SVR_Officel	2022.2.5	144.00693561459224		6.24199999999999	0_sub-pilot031_SVR_EEG_block1-2.protocol.csv	step3	1573	157.141	STIMULATE	47.6	47.5	47.4	47.4	47.6	3	90.72299999999998
95.58	0	47790	wait	20	0	0	0	0	1.0	0.0	1.0	0.0						194.30076820007525	199.77364120003767	199.77364120003767	7.0	['7', 'return']	[2.6458765999414027, 3.3745084998663515]	5.46	5.97	1.0	controle	high_pain	47.5			sub-031	250	31	45.7	47.5	COM11	COM15	COM3	2024-04-17_10h04.57.004	001-EEG_SVR_Officel	2022.2.5	144.00693561459224		11.468000000000004	0_sub-pilot031_SVR_EEG_block1-2.protocol.csv	step5	1804	180.064	STIMULATE	47.5	47.4	47.5	47.5	47.5	5	113.64599999999999
101.04	0	50520	CNhz	12	0	0	0	0	1.0	0.0	1.0	0.0						194.30076820007525	199.77364120003767	199.77364120003767	7.0	['7', 'return']	[2.6458765999414027, 3.3745084998663515]	5.46	5.97	1.0	controle	high_pain	47.5			sub-031	250	31	45.7	47.5	COM11	COM15	COM3	2024-04-17_10h04.57.004	001-EEG_SVR_Officel	2022.2.5	144.00693561459224		5.460000000000008	0_sub-pilot031_SVR_EEG_block1-2.protocol.csv	step5	1804	180.064	STIMULATE	47.5	47.4	47.5	47.5	47.5	5	113.64599999999999
107.762	0	53881	CN/Hi	10	0	0	0	0	1.0	0.0	1.0	0.0						194.30076820007525	199.77364120003767	199.77364120003767	7.0	['7', 'return']	[2.6458765999414027, 3.3745084998663515]	5.46	5.97	1.0	controle	high_pain	47.5			sub-031	250	31	45.7	47.5	COM11	COM15	COM3	2024-04-17_10h04.57.004	001-EEG_SVR_Officel	2022.2.5	144.00693561459224		5.971999999999994	0_sub-pilot031_SVR_EEG_block1-2.protocol.csv	step5	1804	180.064	STIMULATE	47.5	47.4	47.5	47.5	47.5	5	113.64599999999999
117.444	0	58722	wait	20	0	0	0	0	2.0	0.0	2.0	0.0						216.16455830005	221.2067811000161	221.2067811000161	7.5	['7', 'a', '5', 'return']	[5.06674430007115, 5.403096500085667, 6.490452199941501, 7.250694500049576]	5.03	5.44	2.0	40hz	high_pain	47.5			sub-031	250	31	45.7	47.5	COM11	COM15	COM3	2024-04-17_10h04.57.004	001-EEG_SVR_Officel	2022.2.5	144.00693561459224		10.432000000000002	0_sub-pilot031_SVR_EEG_block1-2.protocol.csv	step7	2015	200.966	STIMULATE	47.5	47.5	47.5	47.5	47.5	7	134.548
122.472	0	61236	40hz	9	0	0	0	0	2.0	0.0	2.0	0.0						216.16455830005	221.2067811000161	221.2067811000161	7.5	['7', 'a', '5', 'return']	[5.06674430007115, 5.403096500085667, 6.490452199941501, 7.250694500049576]	5.03	5.44	2.0	40hz	high_pain	47.5			sub-031	250	31	45.7	47.5	COM11	COM15	COM3	2024-04-17_10h04.57.004	001-EEG_SVR_Officel	2022.2.5	144.00693561459224		5.027999999999992	0_sub-pilot031_SVR_EEG_block1-2.protocol.csv	step7	2015	200.966	STIMULATE	47.5	47.5	47.5	47.5	47.5	7	134.548
128.666	0	64333	40/Hi	7	0	0	0	0	2.0	0.0	2.0	0.0						216.16455830005	221.2067811000161	221.2067811000161	7.5	['7', 'a', '5', 'return']	[5.06674430007115, 5.403096500085667, 6.490452199941501, 7.250694500049576]	5.03	5.44	2.0	40hz	high_pain	47.5			sub-031	250	31	45.7	47.5	COM11	COM15	COM3	2024-04-17_10h04.57.004	001-EEG_SVR_Officel	2022.2.5	144.00693561459224		5.444000000000003	0_sub-pilot031_SVR_EEG_block1-2.protocol.csv	step7	2015	200.966	STIMULATE	47.5	47.5	47.5	47.5	47.5	7	134.548
142.758	0	71379	wait	20	0	0	0	0	3.0	0.0	3.0	0.0						241.47992660012096	246.61234019999392	246.61234019999392	6.0	['6', 'return']	[2.3351502001751214, 2.982651500031352]	5.12	5.32	3.0	controle	low_pain	45.7			sub-031	250	31	45.7	47.5	COM11	COM15	COM3	2024-04-17_10h04.57.004	001-EEG_SVR_Officel	2022.2.5	144.00693561459224		14.842000000000013	0_sub-pilot031_SVR_EEG_block1-2.protocol.csv	step9	2270	226.282	STIMULATE	45.6	45.6	45.6	45.6	45.6	9	159.864
147.878	0	73939	CNhz	12	0	0	0	0	3.0	0.0	3.0	0.0						241.47992660012096	246.61234019999392	246.61234019999392	6.0	['6', 'return']	[2.3351502001751214, 2.982651500031352]	5.12	5.32	3.0	controle	low_pain	45.7			sub-031	250	31	45.7	47.5	COM11	COM15	COM3	2024-04-17_10h04.57.004	001-EEG_SVR_Officel	2022.2.5	144.00693561459224		5.119999999999976	0_sub-pilot031_SVR_EEG_block1-2.protocol.csv	step9	2270	226.282	STIMULATE	45.6	45.6	45.6	45.6	45.6	9	159.864
153.946	0	76973	CN/Lo	11	0	0	0	0	3.0	0.0	3.0	0.0						241.47992660012096	246.61234019999392	246.61234019999392	6.0	['6', 'return']	[2.3351502001751214, 2.982651500031352]	5.12	5.32	3.0	controle	low_pain	45.7			sub-031	250	31	45.7	47.5	COM11	COM15	COM3	2024-04-17_10h04.57.004	001-EEG_SVR_Officel	2022.2.5	144.00693561459224		5.318000000000012	0_sub-pilot031_SVR_EEG_block1-2.protocol.csv	step9	2270	226.282	STIMULATE	45.6	45.6	45.6	45.6	45.6	9	159.864
163.892	0	81946	wait	20	0	0	0	0	4.0	0.0	4.0	0.0						262.61425550002605	268.33024440007284	268.33024440007284	7.0	['7', 'return']	[3.4736719999928027, 4.049898999975994]	5.71	6.29	0.0	controle	high_pain	47.5			sub-031	250	31	45.7	47.5	COM11	COM15	COM3	2024-04-17_10h04.57.004	001-EEG_SVR_Officel	2022.2.5	144.00693561459224		10.695999999999998	0_sub-pilot031_SVR_EEG_block1-2.protocol.csv	step11	2499	248.921	STIMULATE	47.5	47.4	47.5	47.5	47.7	11	182.503
169.598	0	84799	CNhz	12	0	0	0	0	4.0	0.0	4.0	0.0						262.61425550002605	268.33024440007284	268.33024440007284	7.0	['7', 'return']	[3.4736719999928027, 4.049898999975994]	5.71	6.29	0.0	controle	high_pain	47.5			sub-031	250	31	45.7	47.5	COM11	COM15	COM3	2024-04-17_10h04.57.004	001-EEG_SVR_Officel	2022.2.5	144.00693561459224		5.706000000000017	0_sub-pilot031_SVR_EEG_block1-2.protocol.csv	step11	2499	248.921	STIMULATE	47.5	47.4	47.5	47.5	47.7	11	182.503
176.638	0	88319	CN/Hi	10	0	0	0	0	4.0	0.0	4.0	0.0						262.61425550002605	268.33024440007284	268.33024440007284	7.0	['7', 'return']	[3.4736719999928027, 4.049898999975994]	5.71	6.29	0.0	controle	high_pain	47.5			sub-031	250	31	45.7	47.5	COM11	COM15	COM3	2024-04-17_10h04.57.004	001-EEG_SVR_Officel	2022.2.5	144.00693561459224		6.289999999999992	0_sub-pilot031_SVR_EEG_block1-2.protocol.csv	step11	2499	248.921	STIMULATE	47.5	47.4	47.5	47.5	47.7	11	182.503
186.672	0	93336	wait	20	0	0	0	0	5.0	0.0	5.0	0.0						285.39429700002074	291.17320890002884	291.17320890002884	7.0	['7', 'return']	[2.013925600098446, 2.9587586999405175]	5.77	6.06	1.0	10hz	high_pain	47.5			sub-031	250	31	45.7	47.5	COM11	COM15	COM3	2024-04-17_10h04.57.004	001-EEG_SVR_Officel	2022.2.5	144.00693561459224		10.783999999999992	0_sub-pilot031_SVR_EEG_block1-2.protocol.csv	step13	2727	271.552	STIMULATE	47.5	47.4	47.5	47.5	47.6	13	205.13400000000001
192.438	0	96219	10hz	3	0	0	0	0	5.0	0.0	5.0	0.0						285.39429700002074	291.17320890002884	291.17320890002884	7.0	['7', 'return']	[2.013925600098446, 2.9587586999405175]	5.77	6.06	1.0	10hz	high_pain	47.5			sub-031	250	31	45.7	47.5	COM11	COM15	COM3	2024-04-17_10h04.57.004	001-EEG_SVR_Officel	2022.2.5	144.00693561459224		5.765999999999991	0_sub-pilot031_SVR_EEG_block1-2.protocol.csv	step13	2727	271.552	STIMULATE	47.5	47.4	47.5	47.5	47.6	13	205.13400000000001
199.25	0	99625	10/Hi	1	0	0	0	0	5.0	0.0	5.0	0.0						285.39429700002074	291.17320890002884	291.17320890002884	7.0	['7', 'return']	[2.013925600098446, 2.9587586999405175]	5.77	6.06	1.0	10hz	high_pain	47.5			sub-031	250	31	45.7	47.5	COM11	COM15	COM3	2024-04-17_10h04.57.004	001-EEG_SVR_Officel	2022.2.5	144.00693561459224		6.062000000000012	0_sub-pilot031_SVR_EEG_block1-2.protocol.csv	step13	2727	271.552	STIMULATE	47.5	47.4	47.5	47.5	47.6	13	205.13400000000001
208.418	0	104209	wait	20	0	0	0	0	6.0	0.0	6.0	0.0						307.140368900029	312.1618771001231	312.1618771001231	6.0	['6', 'return']	[2.4570680998731405, 3.0971528000663966]	5.01	6.29	2.0	20hz	low_pain	45.7			sub-031	250	31	45.7	47.5	COM11	COM15	COM3	2024-04-17_10h04.57.004	001-EEG_SVR_Officel	2022.2.5	144.00693561459224		9.918000000000006	0_sub-pilot031_SVR_EEG_block1-2.protocol.csv	step15	2941	292.714	STIMULATE	45.7	45.6	45.6	45.6	45.7	15	226.296
213.428	0	106714	20hz	6	0	0	0	0	6.0	0.0	6.0	0.0						307.140368900029	312.1618771001231	312.1618771001231	6.0	['6', 'return']	[2.4570680998731405, 3.0971528000663966]	5.01	6.29	2.0	20hz	low_pain	45.7			sub-031	250	31	45.7	47.5	COM11	COM15	COM3	2024-04-17_10h04.57.004	001-EEG_SVR_Officel	2022.2.5	144.00693561459224		5.009999999999991	0_sub-pilot031_SVR_EEG_block1-2.protocol.csv	step15	2941	292.714	STIMULATE	45.7	45.6	45.6	45.6	45.7	15	226.296
220.468	0	110234	20/Lo	5	0	0	0	0	6.0	0.0	6.0	0.0						307.140368900029	312.1618771001231	312.1618771001231	6.0	['6', 'return']	[2.4570680998731405, 3.0971528000663966]	5.01	6.29	2.0	20hz	low_pain	45.7			sub-031	250	31	45.7	47.5	COM11	COM15	COM3	2024-04-17_10h04.57.004	001-EEG_SVR_Officel	2022.2.5	144.00693561459224		6.289999999999992	0_sub-pilot031_SVR_EEG_block1-2.protocol.csv	step15	2941	292.714	STIMULATE	45.7	45.6	45.6	45.6	45.7	15	226.296
229.546	0	114773	wait	20	0	0	0	0	7.0	0.0	7.0	0.0						328.2679096001666	333.56735420017503	333.56735420017503	7.0	['7', 'return']	[2.0993000001180917, 2.7088070001918823]	5.29	5.57	3.0	40hz	high_pain	47.5			sub-031	250	31	45.7	47.5	COM11	COM15	COM3	2024-04-17_10h04.57.004	001-EEG_SVR_Officel	2022.2.5	144.00693561459224		9.828000000000003	0_sub-pilot031_SVR_EEG_block1-2.protocol.csv	step17	3150	313.435	STIMULATE	47.4	47.5	47.4	47.5	47.5	17	247.017
234.832	0	117416	40hz	9	0	0	0	0	7.0	0.0	7.0	0.0						328.2679096001666	333.56735420017503	333.56735420017503	7.0	['7', 'return']	[2.0993000001180917, 2.7088070001918823]	5.29	5.57	3.0	40hz	high_pain	47.5			sub-031	250	31	45.7	47.5	COM11	COM15	COM3	2024-04-17_10h04.57.004	001-EEG_SVR_Officel	2022.2.5	144.00693561459224		5.286000000000001	0_sub-pilot031_SVR_EEG_block1-2.protocol.csv	step17	3150	313.435	STIMULATE	47.4	47.5	47.4	47.5	47.5	17	247.017
241.158	0	120579	40/Hi	7	0	0	0	0	7.0	0.0	7.0	0.0						328.2679096001666	333.56735420017503	333.56735420017503	7.0	['7', 'return']	[2.0993000001180917, 2.7088070001918823]	5.29	5.57	3.0	40hz	high_pain	47.5			sub-031	250	31	45.7	47.5	COM11	COM15	COM3	2024-04-17_10h04.57.004	001-EEG_SVR_Officel	2022.2.5	144.00693561459224		5.575999999999993	0_sub-pilot031_SVR_EEG_block1-2.protocol.csv	step17	3150	313.435	STIMULATE	47.4	47.5	47.4	47.5	47.5	17	247.017
250.576	0	125288	wait	20	0	0	0	0	8.0	0.0	8.0	0.0						349.29826549999416	354.9865735999774	354.9865735999774	6.5	['6', 'a', '5', 'return']	[1.9855416999198496, 2.376901000039652, 2.6168853999115527, 3.633503600023687]	5.68	6.23	0.0	10hz	high_pain	47.5			sub-031	250	31	45.7	47.5	COM11	COM15	COM3	2024-04-17_10h04.57.004	001-EEG_SVR_Officel	2022.2.5	144.00693561459224		10.168000000000006	0_sub-pilot031_SVR_EEG_block1-2.protocol.csv	step19	3373	335.564	STIMULATE	47.4	47.4	47.5	47.5	47.6	19	269.146
256.252	0	128126	10hz	3	0	0	0	0	8.0	0.0	8.0	0.0						349.29826549999416	354.9865735999774	354.9865735999774	6.5	['6', 'a', '5', 'return']	[1.9855416999198496, 2.376901000039652, 2.6168853999115527, 3.633503600023687]	5.68	6.23	0.0	10hz	high_pain	47.5			sub-031	250	31	45.7	47.5	COM11	COM15	COM3	2024-04-17_10h04.57.004	001-EEG_SVR_Officel	2022.2.5	144.00693561459224		5.676000000000016	0_sub-pilot031_SVR_EEG_block1-2.protocol.csv	step19	3373	335.564	STIMULATE	47.4	47.4	47.5	47.5	47.6	19	269.146
263.236	0	131618	10/Hi	1	0	0	0	0	8.0	0.0	8.0	0.0						349.29826549999416	354.9865735999774	354.9865735999774	6.5	['6', 'a', '5', 'return']	[1.9855416999198496, 2.376901000039652, 2.6168853999115527, 3.633503600023687]	5.68	6.23	0.0	10hz	high_pain	47.5			sub-031	250	31	45.7	47.5	COM11	COM15	COM3	2024-04-17_10h04.57.004	001-EEG_SVR_Officel	2022.2.5	144.00693561459224		6.2339999999999804	0_sub-pilot031_SVR_EEG_block1-2.protocol.csv	step19	3373	335.564	STIMULATE	47.4	47.4	47.5	47.5	47.6	19	269.146
272.912	0	136456	wait	20	0	0	0	0	9.0	0.0	9.0	0.0						371.6341455001384	378.795042200014	378.795042200014	5.0	['5', 'return']	[2.5435955999419093, 3.1358501000795513]	7.15	5.61	1.0	controle	low_pain	45.7			sub-031	250	31	45.7	47.5	COM11	COM15	COM3	2024-04-17_10h04.57.004	001-EEG_SVR_Officel	2022.2.5	144.00693561459224		10.425999999999988	0_sub-pilot031_SVR_EEG_block1-2.protocol.csv	step21	3607	358.759	STIMULATE	45.7	45.6	45.6	45.6	45.7	21	292.341
280.06	0	140030	CNhz	12	0	0	0	0	9.0	0.0	9.0	0.0						371.6341455001384	378.795042200014	378.795042200014	5.0	['5', 'return']	[2.5435955999419093, 3.1358501000795513]	7.15	5.61	1.0	controle	low_pain	45.7			sub-031	250	31	45.7	47.5	COM11	COM15	COM3	2024-04-17_10h04.57.004	001-EEG_SVR_Officel	2022.2.5	144.00693561459224		7.148000000000025	0_sub-pilot031_SVR_EEG_block1-2.protocol.csv	step21	3607	358.759	STIMULATE	45.7	45.6	45.6	45.6	45.7	21	292.341
286.42	0	143210	CN/Lo	11	0	0	0	0	9.0	0.0	9.0	0.0						371.6341455001384	378.795042200014	378.795042200014	5.0	['5', 'return']	[2.5435955999419093, 3.1358501000795513]	7.15	5.61	1.0	controle	low_pain	45.7			sub-031	250	31	45.7	47.5	COM11	COM15	COM3	2024-04-17_10h04.57.004	001-EEG_SVR_Officel	2022.2.5	144.00693561459224		5.610000000000014	0_sub-pilot031_SVR_EEG_block1-2.protocol.csv	step21	3607	358.759	STIMULATE	45.7	45.6	45.6	45.6	45.7	21	292.341
296.218	0	148109	wait	20	0	0	0	0	10.0	0.0	10.0	0.0						394.9422504000832	401.97206880012527	401.97206880012527	7.0	['7', 'return']	[2.127814100123942, 2.6401229999028146]	7.02	5.61	2.0	10hz	high_pain	47.5			sub-031	250	31	45.7	47.5	COM11	COM15	COM3	2024-04-17_10h04.57.004	001-EEG_SVR_Officel	2022.2.5	144.00693561459224		10.548000000000002	0_sub-pilot031_SVR_EEG_block1-2.protocol.csv	step23	3840	381.898	STIMULATE	47.5	47.4	47.5	47.5	47.5	23	315.48
303.236	0	151618	10hz	3	0	0	0	0	10.0	0.0	10.0	0.0						394.9422504000832	401.97206880012527	401.97206880012527	7.0	['7', 'return']	[2.127814100123942, 2.6401229999028146]	7.02	5.61	2.0	10hz	high_pain	47.5			sub-031	250	31	45.7	47.5	COM11	COM15	COM3	2024-04-17_10h04.57.004	001-EEG_SVR_Officel	2022.2.5	144.00693561459224		7.017999999999972	0_sub-pilot031_SVR_EEG_block1-2.protocol.csv	step23	3840	381.898	STIMULATE	47.5	47.4	47.5	47.5	47.5	23	315.48
309.596	0	154798	10/Hi	1	0	0	0	0	10.0	0.0	10.0	0.0						394.9422504000832	401.97206880012527	401.97206880012527	7.0	['7', 'return']	[2.127814100123942, 2.6401229999028146]	7.02	5.61	2.0	10hz	high_pain	47.5			sub-031	250	31	45.7	47.5	COM11	COM15	COM3	2024-04-17_10h04.57.004	001-EEG_SVR_Officel	2022.2.5	144.00693561459224		5.610000000000014	0_sub-pilot031_SVR_EEG_block1-2.protocol.csv	step23	3840	381.898	STIMULATE	47.5	47.4	47.5	47.5	47.5	23	315.48
318.91	0	159455	wait	20	0	0	0	0	11.0	0.0	11.0	0.0						417.6335621001199	425.5161828000564	425.5161828000564	5.0	['5', 'return']	[2.6782034998759627, 3.2232441999949515]	7.87	5.2	3.0	10hz	low_pain	45.7			sub-031	250	31	45.7	47.5	COM11	COM15	COM3	2024-04-17_10h04.57.004	001-EEG_SVR_Officel	2022.2.5	144.00693561459224		10.064000000000021	0_sub-pilot031_SVR_EEG_block1-2.protocol.csv	step25	4074	405.029	STIMULATE	45.6	45.6	45.6	45.7	45.6	25	338.611
326.78	0	163390	10hz	3	0	0	0	0	11.0	0.0	11.0	0.0						417.6335621001199	425.5161828000564	425.5161828000564	5.0	['5', 'return']	[2.6782034998759627, 3.2232441999949515]	7.87	5.2	3.0	10hz	low_pain	45.7			sub-031	250	31	45.7	47.5	COM11	COM15	COM3	2024-04-17_10h04.57.004	001-EEG_SVR_Officel	2022.2.5	144.00693561459224		7.869999999999948	0_sub-pilot031_SVR_EEG_block1-2.protocol.csv	step25	4074	405.029	STIMULATE	45.6	45.6	45.6	45.7	45.6	25	338.611
332.732	0	166366	10/Lo	2	0	0	0	0	11.0	0.0	11.0	0.0						417.6335621001199	425.5161828000564	425.5161828000564	5.0	['5', 'return']	[2.6782034998759627, 3.2232441999949515]	7.87	5.2	3.0	10hz	low_pain	45.7			sub-031	250	31	45.7	47.5	COM11	COM15	COM3	2024-04-17_10h04.57.004	001-EEG_SVR_Officel	2022.2.5	144.00693561459224		5.202000000000055	0_sub-pilot031_SVR_EEG_block1-2.protocol.csv	step25	4074	405.029	STIMULATE	45.6	45.6	45.6	45.7	45.6	25	338.611
343.038	0	171519	wait	20	0	0	0	0	12.0	0.0	12.0	0.0						441.7612576000392	449.6923915001098	449.6923915001098	6.0	['6', 'return']	[2.5913410999346524, 3.2553787999786437]	7.92	5.1	0.0	20hz	high_pain	47.5			sub-031	250	31	45.7	47.5	COM11	COM15	COM3	2024-04-17_10h04.57.004	001-EEG_SVR_Officel	2022.2.5	144.00693561459224		11.055999999999983	0_sub-pilot031_SVR_EEG_block1-2.protocol.csv	step27	4317	429.124	STIMULATE	47.5	47.4	47.4	47.5	47.7	27	362.706
350.958	0	175479	20hz	6	0	0	0	0	12.0	0.0	12.0	0.0						441.7612576000392	449.6923915001098	449.6923915001098	6.0	['6', 'return']	[2.5913410999346524, 3.2553787999786437]	7.92	5.1	0.0	20hz	high_pain	47.5			sub-031	250	31	45.7	47.5	COM11	COM15	COM3	2024-04-17_10h04.57.004	001-EEG_SVR_Officel	2022.2.5	144.00693561459224		7.920000000000016	0_sub-pilot031_SVR_EEG_block1-2.protocol.csv	step27	4317	429.124	STIMULATE	47.5	47.4	47.4	47.5	47.7	27	362.706
356.81	0	178405	20/Hi	4	0	0	0	0	12.0	0.0	12.0	0.0						441.7612576000392	449.6923915001098	449.6923915001098	6.0	['6', 'return']	[2.5913410999346524, 3.2553787999786437]	7.92	5.1	0.0	20hz	high_pain	47.5			sub-031	250	31	45.7	47.5	COM11	COM15	COM3	2024-04-17_10h04.57.004	001-EEG_SVR_Officel	2022.2.5	144.00693561459224		5.101999999999975	0_sub-pilot031_SVR_EEG_block1-2.protocol.csv	step27	4317	429.124	STIMULATE	47.5	47.4	47.4	47.5	47.7	27	362.706
367.242	0	183621	wait	20	0	0	0	0	13.0	0.0	13.0	0.0						465.96524130017497	473.84812650014646	473.84812650014646	5.0	['5', 'return']	[3.445306799840182, 4.06912889983505]	7.87	6.49	1.0	10hz	low_pain	45.7			sub-031	250	31	45.7	47.5	COM11	COM15	COM3	2024-04-17_10h04.57.004	001-EEG_SVR_Officel	2022.2.5	144.00693561459224		11.182000000000016	0_sub-pilot031_SVR_EEG_block1-2.protocol.csv	step29	4575	454.732	STIMULATE	45.7	45.6	45.6	45.6	45.8	29	388.31399999999996
375.112	0	187556	10hz	3	0	0	0	0	13.0	0.0	13.0	0.0						465.96524130017497	473.84812650014646	473.84812650014646	5.0	['5', 'return']	[3.445306799840182, 4.06912889983505]	7.87	6.49	1.0	10hz	low_pain	45.7			sub-031	250	31	45.7	47.5	COM11	COM15	COM3	2024-04-17_10h04.57.004	001-EEG_SVR_Officel	2022.2.5	144.00693561459224		7.8700000000000045	0_sub-pilot031_SVR_EEG_block1-2.protocol.csv	step29	4575	454.732	STIMULATE	45.7	45.6	45.6	45.6	45.8	29	388.31399999999996
382.356	0	191178	10/Lo	2	0	0	0	0	13.0	0.0	13.0	0.0						465.96524130017497	473.84812650014646	473.84812650014646	5.0	['5', 'return']	[3.445306799840182, 4.06912889983505]	7.87	6.49	1.0	10hz	low_pain	45.7			sub-031	250	31	45.7	47.5	COM11	COM15	COM3	2024-04-17_10h04.57.004	001-EEG_SVR_Officel	2022.2.5	144.00693561459224		6.493999999999971	0_sub-pilot031_SVR_EEG_block1-2.protocol.csv	step29	4575	454.732	STIMULATE	45.7	45.6	45.6	45.6	45.8	29	388.31399999999996
392.21	0	196105	wait	20	0	0	0	0	14.0	0.0	14.0	0.0						490.93276620004326	496.3716836001258	496.3716836001258	7.0	['7', 'return']	[1.8396838998887688, 2.383505699923262]	5.43	6.36	2.0	20hz	high_pain	47.5			sub-031	250	31	45.7	47.5	COM11	COM15	COM3	2024-04-17_10h04.57.004	001-EEG_SVR_Officel	2022.2.5	144.00693561459224		10.603999999999985	0_sub-pilot031_SVR_EEG_block1-2.protocol.csv	step31	4800	477.078	STIMULATE	47.5	47.4	47.5	47.5	47.5	31	410.65999999999997
397.636	0	198818	20hz	6	0	0	0	0	14.0	0.0	14.0	0.0						490.93276620004326	496.3716836001258	496.3716836001258	7.0	['7', 'return']	[1.8396838998887688, 2.383505699923262]	5.43	6.36	2.0	20hz	high_pain	47.5			sub-031	250	31	45.7	47.5	COM11	COM15	COM3	2024-04-17_10h04.57.004	001-EEG_SVR_Officel	2022.2.5	144.00693561459224		5.426000000000045	0_sub-pilot031_SVR_EEG_block1-2.protocol.csv	step31	4800	477.078	STIMULATE	47.5	47.4	47.5	47.5	47.5	31	410.65999999999997
404.746	0	202373	20/Hi	4	0	0	0	0	14.0	0.0	14.0	0.0						490.93276620004326	496.3716836001258	496.3716836001258	7.0	['7', 'return']	[1.8396838998887688, 2.383505699923262]	5.43	6.36	2.0	20hz	high_pain	47.5			sub-031	250	31	45.7	47.5	COM11	COM15	COM3	2024-04-17_10h04.57.004	001-EEG_SVR_Officel	2022.2.5	144.00693561459224		6.359999999999957	0_sub-pilot031_SVR_EEG_block1-2.protocol.csv	step31	4800	477.078	STIMULATE	47.5	47.4	47.5	47.5	47.5	31	410.65999999999997
413.052	0	206526	wait	20	0	0	0	0	15.0	0.0	15.0	0.0						511.7762699001469	518.9367440000642	518.9367440000642	7.2	['7', 'a', '2', 'return']	[2.938625199953094, 3.2512696001213044, 3.5867306001018733, 4.219447599956766]	7.15	6.15	3.0	controle	high_pain	47.5			sub-031	250	31	45.7	47.5	COM11	COM15	COM3	2024-04-17_10h04.57.004	001-EEG_SVR_Officel	2022.2.5	144.00693561459224		9.05600000000004	0_sub-pilot031_SVR_EEG_block1-2.protocol.csv	step33	5026	499.438	STIMULATE	47.5	47.4	47.5	47.5	47.5	33	433.02
420.202	0	210101	CNhz	12	0	0	0	0	15.0	0.0	15.0	0.0						511.7762699001469	518.9367440000642	518.9367440000642	7.2	['7', 'a', '2', 'return']	[2.938625199953094, 3.2512696001213044, 3.5867306001018733, 4.219447599956766]	7.15	6.15	3.0	controle	high_pain	47.5			sub-031	250	31	45.7	47.5	COM11	COM15	COM3	2024-04-17_10h04.57.004	001-EEG_SVR_Officel	2022.2.5	144.00693561459224		7.149999999999977	0_sub-pilot031_SVR_EEG_block1-2.protocol.csv	step33	5026	499.438	STIMULATE	47.5	47.4	47.5	47.5	47.5	33	433.02
427.102	0	213551	CN/Hi	10	0	0	0	0	15.0	0.0	15.0	0.0						511.7762699001469	518.9367440000642	518.9367440000642	7.2	['7', 'a', '2', 'return']	[2.938625199953094, 3.2512696001213044, 3.5867306001018733, 4.219447599956766]	7.15	6.15	3.0	controle	high_pain	47.5			sub-031	250	31	45.7	47.5	COM11	COM15	COM3	2024-04-17_10h04.57.004	001-EEG_SVR_Officel	2022.2.5	144.00693561459224		6.149999999999977	0_sub-pilot031_SVR_EEG_block1-2.protocol.csv	step33	5026	499.438	STIMULATE	47.5	47.4	47.5	47.5	47.5	33	433.02
501.918	0	250959	wait	20	1	0	1	0	0.0	0.0	0.0	0.0				p	1.8559856000356376	600.6411596999969	608.3503035001922	608.3503035001922	4.0	['4', 'return']	[2.4685794000979513, 3.0684809000231326]	7.7	6.29	0.0	10hz	low_pain	45.7			sub-031	250	31	45.7	47.5	COM11	COM15	COM3	2024-04-17_10h04.57.004	001-EEG_SVR_Officel	2022.2.5	144.00693561459224		75.56600000000003	0_sub-pilot031_SVR_EEG_block1-2.protocol.csv	step35	5923	588.972	STIMULATE	45.6	45.6	45.6	45.6	45.9	35	522.544
509.616	0	254808	10hz	3	1	0	1	0	0.0	0.0	0.0	0.0				p	1.8559856000356376	600.6411596999969	608.3503035001922	608.3503035001922	4.0	['4', 'return']	[2.4685794000979513, 3.0684809000231326]	7.7	6.29	0.0	10hz	low_pain	45.7			sub-031	250	31	45.7	47.5	COM11	COM15	COM3	2024-04-17_10h04.57.004	001-EEG_SVR_Officel	2022.2.5	144.00693561459224		7.697999999999979	0_sub-pilot031_SVR_EEG_block1-2.protocol.csv	step35	5923	588.972	STIMULATE	45.6	45.6	45.6	45.6	45.9	35	522.544
516.654	0	258327	10/Lo	2	1	0	1	0	0.0	0.0	0.0	0.0				p	1.8559856000356376	600.6411596999969	608.3503035001922	608.3503035001922	4.0	['4', 'return']	[2.4685794000979513, 3.0684809000231326]	7.7	6.29	0.0	10hz	low_pain	45.7			sub-031	250	31	45.7	47.5	COM11	COM15	COM3	2024-04-17_10h04.57.004	001-EEG_SVR_Officel	2022.2.5	144.00693561459224		6.288000000000011	0_sub-pilot031_SVR_EEG_block1-2.protocol.csv	step35	5923	588.972	STIMULATE	45.6	45.6	45.6	45.6	45.9	35	522.544
525.724	0	262862	wait	20	1	0	1	0	1.0	0.0	1.0	0.0						624.449450999964	631.1795679000206	631.1795679000206	4.5	['4', 'a', '5', 'return']	[2.4233605000190437, 2.6401715001557022, 2.855483900057152, 3.5835405001416802]	6.72	5.15	1.0	40hz	low_pain	45.7			sub-031	250	31	45.7	47.5	COM11	COM15	COM3	2024-04-17_10h04.57.004	001-EEG_SVR_Officel	2022.2.5	144.00693561459224		9.82000000000005	0_sub-pilot031_SVR_EEG_block1-2.protocol.csv	step37	6142	610.709	STIMULATE	45.6	45.6	45.6	45.8	45.8	37	544.281
532.442	0	266221	40hz	9	1	0	1	0	1.0	0.0	1.0	0.0						624.449450999964	631.1795679000206	631.1795679000206	4.5	['4', 'a', '5', 'return']	[2.4233605000190437, 2.6401715001557022, 2.855483900057152, 3.5835405001416802]	6.72	5.15	1.0	40hz	low_pain	45.7			sub-031	250	31	45.7	47.5	COM11	COM15	COM3	2024-04-17_10h04.57.004	001-EEG_SVR_Officel	2022.2.5	144.00693561459224		6.717999999999961	0_sub-pilot031_SVR_EEG_block1-2.protocol.csv	step37	6142	610.709	STIMULATE	45.6	45.6	45.6	45.8	45.8	37	544.281
538.344	0	269172	40/Lo	8	1	0	1	0	1.0	0.0	1.0	0.0						624.449450999964	631.1795679000206	631.1795679000206	4.5	['4', 'a', '5', 'return']	[2.4233605000190437, 2.6401715001557022, 2.855483900057152, 3.5835405001416802]	6.72	5.15	1.0	40hz	low_pain	45.7			sub-031	250	31	45.7	47.5	COM11	COM15	COM3	2024-04-17_10h04.57.004	001-EEG_SVR_Officel	2022.2.5	144.00693561459224		5.152000000000044	0_sub-pilot031_SVR_EEG_block1-2.protocol.csv	step37	6142	610.709	STIMULATE	45.6	45.6	45.6	45.8	45.8	37	544.281
549.048	0	274524	wait	20	1	0	1	0	2.0	0.0	2.0	0.0						647.7714955001138	655.6407121999655	655.6407121999655	4.5	['4', 'a', '5', 'return']	[5.322208099998534, 5.593992299865931, 5.834048300050199, 6.6502749000210315]	7.86	6.2	2.0	controle	low_pain	45.7			sub-031	250	31	45.7	47.5	COM11	COM15	COM3	2024-04-17_10h04.57.004	001-EEG_SVR_Officel	2022.2.5	144.00693561459224		11.45399999999995	0_sub-pilot031_SVR_EEG_block1-2.protocol.csv	step39	6399	636.168	STIMULATE	45.6	45.6	45.6	45.6	45.9	39	569.74
556.904	0	278452	CNhz	12	1	0	1	0	2.0	0.0	2.0	0.0						647.7714955001138	655.6407121999655	655.6407121999655	4.5	['4', 'a', '5', 'return']	[5.322208099998534, 5.593992299865931, 5.834048300050199, 6.6502749000210315]	7.86	6.2	2.0	controle	low_pain	45.7			sub-031	250	31	45.7	47.5	COM11	COM15	COM3	2024-04-17_10h04.57.004	001-EEG_SVR_Officel	2022.2.5	144.00693561459224		7.8559999999999945	0_sub-pilot031_SVR_EEG_block1-2.protocol.csv	step39	6399	636.168	STIMULATE	45.6	45.6	45.6	45.6	45.9	39	569.74
563.854	0	281927	CN/Lo	11	1	0	1	0	2.0	0.0	2.0	0.0						647.7714955001138	655.6407121999655	655.6407121999655	4.5	['4', 'a', '5', 'return']	[5.322208099998534, 5.593992299865931, 5.834048300050199, 6.6502749000210315]	7.86	6.2	2.0	controle	low_pain	45.7			sub-031	250	31	45.7	47.5	COM11	COM15	COM3	2024-04-17_10h04.57.004	001-EEG_SVR_Officel	2022.2.5	144.00693561459224		6.2000000000000455	0_sub-pilot031_SVR_EEG_block1-2.protocol.csv	step39	6399	636.168	STIMULATE	45.6	45.6	45.6	45.6	45.9	39	569.74
576.586	0	288293	wait	20	1	0	1	0	3.0	0.0	3.0	0.0						675.3097541001625	680.880220200168	680.880220200168	5.5	['5', 'a', '5', 'return']	[2.603377199964598, 2.8434104998596013, 3.027241699863225, 5.050821699900553]	5.56	5.15	3.0	20hz	high_pain	47.5			sub-031	250	31	45.7	47.5	COM11	COM15	COM3	2024-04-17_10h04.57.004	001-EEG_SVR_Officel	2022.2.5	144.00693561459224		13.481999999999971	0_sub-pilot031_SVR_EEG_block1-2.protocol.csv	step41	6643	660.405	STIMULATE	47.5	47.4	47.4	47.4	47.5	41	593.977
582.144	0	291072	20hz	6	1	0	1	0	3.0	0.0	3.0	0.0						675.3097541001625	680.880220200168	680.880220200168	5.5	['5', 'a', '5', 'return']	[2.603377199964598, 2.8434104998596013, 3.027241699863225, 5.050821699900553]	5.56	5.15	3.0	20hz	high_pain	47.5			sub-031	250	31	45.7	47.5	COM11	COM15	COM3	2024-04-17_10h04.57.004	001-EEG_SVR_Officel	2022.2.5	144.00693561459224		5.557999999999993	0_sub-pilot031_SVR_EEG_block1-2.protocol.csv	step41	6643	660.405	STIMULATE	47.5	47.4	47.4	47.4	47.5	41	593.977
588.044	0	294022	20/Hi	4	1	0	1	0	3.0	0.0	3.0	0.0						675.3097541001625	680.880220200168	680.880220200168	5.5	['5', 'a', '5', 'return']	[2.603377199964598, 2.8434104998596013, 3.027241699863225, 5.050821699900553]	5.56	5.15	3.0	20hz	high_pain	47.5			sub-031	250	31	45.7	47.5	COM11	COM15	COM3	2024-04-17_10h04.57.004	001-EEG_SVR_Officel	2022.2.5	144.00693561459224		5.149999999999977	0_sub-pilot031_SVR_EEG_block1-2.protocol.csv	step41	6643	660.405	STIMULATE	47.5	47.4	47.4	47.4	47.5	41	593.977
600.226	0	300113	wait	20	1	0	1	0	4.0	0.0	4.0	0.0						698.9516920000315	704.2791387001052	704.2791387001052	3.0	['3', 'return']	[2.8122080001048744, 3.388299599988386]	5.32	5.8	0.0	controle	low_pain	45.7			sub-031	250	31	45.7	47.5	COM11	COM15	COM3	2024-04-17_10h04.57.004	001-EEG_SVR_Officel	2022.2.5	144.00693561459224		12.932000000000016	0_sub-pilot031_SVR_EEG_block1-2.protocol.csv	step43	6886	684.479	STIMULATE	45.6	45.6	45.6	45.6	45.9	43	618.051
605.542	0	302771	CNhz	12	1	0	1	0	4.0	0.0	4.0	0.0						698.9516920000315	704.2791387001052	704.2791387001052	3.0	['3', 'return']	[2.8122080001048744, 3.388299599988386]	5.32	5.8	0.0	controle	low_pain	45.7			sub-031	250	31	45.7	47.5	COM11	COM15	COM3	2024-04-17_10h04.57.004	001-EEG_SVR_Officel	2022.2.5	144.00693561459224		5.316000000000031	0_sub-pilot031_SVR_EEG_block1-2.protocol.csv	step43	6886	684.479	STIMULATE	45.6	45.6	45.6	45.6	45.9	43	618.051
612.096	0	306048	CN/Lo	11	1	0	1	0	4.0	0.0	4.0	0.0						698.9516920000315	704.2791387001052	704.2791387001052	3.0	['3', 'return']	[2.8122080001048744, 3.388299599988386]	5.32	5.8	0.0	controle	low_pain	45.7			sub-031	250	31	45.7	47.5	COM11	COM15	COM3	2024-04-17_10h04.57.004	001-EEG_SVR_Officel	2022.2.5	144.00693561459224		5.803999999999974	0_sub-pilot031_SVR_EEG_block1-2.protocol.csv	step43	6886	684.479	STIMULATE	45.6	45.6	45.6	45.6	45.9	43	618.051
621.952	0	310976	wait	20	1	0	1	0	5.0	0.0	5.0	0.0						720.6758236000314	727.3577845001128	727.3577845001128	3.5	['3', 'a', '5', 'return']	[2.631670800037682, 2.917852600105107, 3.1651260000653565, 4.077407000120729]	6.67	5.26	1.0	20hz	low_pain	45.7			sub-031	250	31	45.7	47.5	COM11	COM15	COM3	2024-04-17_10h04.57.004	001-EEG_SVR_Officel	2022.2.5	144.00693561459224		10.605999999999995	0_sub-pilot031_SVR_EEG_block1-2.protocol.csv	step45	7114	707.047	STIMULATE	45.7	45.6	45.6	45.6	45.8	45	640.619
628.622	0	314311	20hz	6	1	0	1	0	5.0	0.0	5.0	0.0						720.6758236000314	727.3577845001128	727.3577845001128	3.5	['3', 'a', '5', 'return']	[2.631670800037682, 2.917852600105107, 3.1651260000653565, 4.077407000120729]	6.67	5.26	1.0	20hz	low_pain	45.7			sub-031	250	31	45.7	47.5	COM11	COM15	COM3	2024-04-17_10h04.57.004	001-EEG_SVR_Officel	2022.2.5	144.00693561459224		6.669999999999959	0_sub-pilot031_SVR_EEG_block1-2.protocol.csv	step45	7114	707.047	STIMULATE	45.7	45.6	45.6	45.6	45.8	45	640.619
634.634	0	317317	20/Lo	5	1	0	1	0	5.0	0.0	5.0	0.0						720.6758236000314	727.3577845001128	727.3577845001128	3.5	['3', 'a', '5', 'return']	[2.631670800037682, 2.917852600105107, 3.1651260000653565, 4.077407000120729]	6.67	5.26	1.0	20hz	low_pain	45.7			sub-031	250	31	45.7	47.5	COM11	COM15	COM3	2024-04-17_10h04.57.004	001-EEG_SVR_Officel	2022.2.5	144.00693561459224		5.262000000000057	0_sub-pilot031_SVR_EEG_block1-2.protocol.csv	step45	7114	707.047	STIMULATE	45.7	45.6	45.6	45.6	45.8	45	640.619
645.726	0	322863	wait	20	1	0	1	0	6.0	0.0	6.0	0.0						744.4499719000887	749.7006688001566	749.7006688001566	7.0	['7', 'return']	[2.1183560001663864, 2.6550082999747247]	5.24	5.93	2.0	controle	high_pain	47.5			sub-031	250	31	45.7	47.5	COM11	COM15	COM3	2024-04-17_10h04.57.004	001-EEG_SVR_Officel	2022.2.5	144.00693561459224		11.841999999999985	0_sub-pilot031_SVR_EEG_block1-2.protocol.csv	step47	7346	730.085	STIMULATE	47.5	47.5	47.5	47.5	47.5	47	663.657
650.964	0	325482	CNhz	12	1	0	1	0	6.0	0.0	6.0	0.0						744.4499719000887	749.7006688001566	749.7006688001566	7.0	['7', 'return']	[2.1183560001663864, 2.6550082999747247]	5.24	5.93	2.0	controle	high_pain	47.5			sub-031	250	31	45.7	47.5	COM11	COM15	COM3	2024-04-17_10h04.57.004	001-EEG_SVR_Officel	2022.2.5	144.00693561459224		5.238000000000056	0_sub-pilot031_SVR_EEG_block1-2.protocol.csv	step47	7346	730.085	STIMULATE	47.5	47.5	47.5	47.5	47.5	47	663.657
657.642	0	328821	CN/Hi	10	1	0	1	0	6.0	0.0	6.0	0.0						744.4499719000887	749.7006688001566	749.7006688001566	7.0	['7', 'return']	[2.1183560001663864, 2.6550082999747247]	5.24	5.93	2.0	controle	high_pain	47.5			sub-031	250	31	45.7	47.5	COM11	COM15	COM3	2024-04-17_10h04.57.004	001-EEG_SVR_Officel	2022.2.5	144.00693561459224		5.927999999999997	0_sub-pilot031_SVR_EEG_block1-2.protocol.csv	step47	7346	730.085	STIMULATE	47.5	47.5	47.5	47.5	47.5	47	663.657
666.644	0	333322	wait	20	1	0	1	0	7.0	0.0	7.0	0.0						765.3688765000552	772.675622300012	772.675622300012	3.5	['3', 'a', '5', 'return']	[2.1913529001176357, 2.519318599952385, 2.7352905001025647, 3.5594929000362754]	7.3	5.95	3.0	40hz	low_pain	45.7			sub-031	250	31	45.7	47.5	COM11	COM15	COM3	2024-04-17_10h04.57.004	001-EEG_SVR_Officel	2022.2.5	144.00693561459224		9.751999999999953	0_sub-pilot031_SVR_EEG_block1-2.protocol.csv	step49	7578	753.002	STIMULATE	45.6	45.6	45.6	45.6	45.7	49	686.574
673.938	0	336969	40hz	9	1	0	1	0	7.0	0.0	7.0	0.0						765.3688765000552	772.675622300012	772.675622300012	3.5	['3', 'a', '5', 'return']	[2.1913529001176357, 2.519318599952385, 2.7352905001025647, 3.5594929000362754]	7.3	5.95	3.0	40hz	low_pain	45.7			sub-031	250	31	45.7	47.5	COM11	COM15	COM3	2024-04-17_10h04.57.004	001-EEG_SVR_Officel	2022.2.5	144.00693561459224		7.293999999999983	0_sub-pilot031_SVR_EEG_block1-2.protocol.csv	step49	7578	753.002	STIMULATE	45.6	45.6	45.6	45.6	45.7	49	686.574
680.64	0	340320	40/Lo	8	1	0	1	0	7.0	0.0	7.0	0.0						765.3688765000552	772.675622300012	772.675622300012	3.5	['3', 'a', '5', 'return']	[2.1913529001176357, 2.519318599952385, 2.7352905001025647, 3.5594929000362754]	7.3	5.95	3.0	40hz	low_pain	45.7			sub-031	250	31	45.7	47.5	COM11	COM15	COM3	2024-04-17_10h04.57.004	001-EEG_SVR_Officel	2022.2.5	144.00693561459224		5.951999999999998	0_sub-pilot031_SVR_EEG_block1-2.protocol.csv	step49	7578	753.002	STIMULATE	45.6	45.6	45.6	45.6	45.7	49	686.574
690.53	0	345265	wait	20	1	0	1	0	8.0	0.0	8.0	0.0						789.2544919000939	794.5539575000294	794.5539575000294	3.5	['3', 'a', '5', 'return']	[1.8812615999486297, 2.15364950010553, 2.402174800168723, 3.1692965000402182]	5.29	6.08	0.0	40hz	low_pain	45.7			sub-031	250	31	45.7	47.5	COM11	COM15	COM3	2024-04-17_10h04.57.004	001-EEG_SVR_Officel	2022.2.5	144.00693561459224		10.639999999999986	0_sub-pilot031_SVR_EEG_block1-2.protocol.csv	step51	7801	775.097	STIMULATE	45.6	45.6	45.6	45.6	45.8	51	708.669
695.816	0	347908	40hz	9	1	0	1	0	8.0	0.0	8.0	0.0						789.2544919000939	794.5539575000294	794.5539575000294	3.5	['3', 'a', '5', 'return']	[1.8812615999486297, 2.15364950010553, 2.402174800168723, 3.1692965000402182]	5.29	6.08	0.0	40hz	low_pain	45.7			sub-031	250	31	45.7	47.5	COM11	COM15	COM3	2024-04-17_10h04.57.004	001-EEG_SVR_Officel	2022.2.5	144.00693561459224		5.286000000000058	0_sub-pilot031_SVR_EEG_block1-2.protocol.csv	step51	7801	775.097	STIMULATE	45.6	45.6	45.6	45.6	45.8	51	708.669
702.65	0	351325	40/Lo	8	1	0	1	0	8.0	0.0	8.0	0.0						789.2544919000939	794.5539575000294	794.5539575000294	3.5	['3', 'a', '5', 'return']	[1.8812615999486297, 2.15364950010553, 2.402174800168723, 3.1692965000402182]	5.29	6.08	0.0	40hz	low_pain	45.7			sub-031	250	31	45.7	47.5	COM11	COM15	COM3	2024-04-17_10h04.57.004	001-EEG_SVR_Officel	2022.2.5	144.00693561459224		6.083999999999946	0_sub-pilot031_SVR_EEG_block1-2.protocol.csv	step51	7801	775.097	STIMULATE	45.6	45.6	45.6	45.6	45.8	51	708.669
712.01	0	356005	wait	20	1	0	1	0	9.0	0.0	9.0	0.0						810.7357591001783	816.9033193001524	816.9033193001524	7.2	['7', 'a', '2', 'return']	[1.995737599907443, 2.3321380000561476, 2.6683966000564396, 3.3957156999967992]	6.16	5.65	1.0	20hz	high_pain	47.5			sub-031	250	31	45.7	47.5	COM11	COM15	COM3	2024-04-17_10h04.57.004	001-EEG_SVR_Officel	2022.2.5	144.00693561459224		10.110000000000014	0_sub-pilot031_SVR_EEG_block1-2.protocol.csv	step53	8020	796.874	STIMULATE	47.4	47.5	47.5	47.5	47.7	53	730.446
718.166	0	359083	20hz	6	1	0	1	0	9.0	0.0	9.0	0.0						810.7357591001783	816.9033193001524	816.9033193001524	7.2	['7', 'a', '2', 'return']	[1.995737599907443, 2.3321380000561476, 2.6683966000564396, 3.3957156999967992]	6.16	5.65	1.0	20hz	high_pain	47.5			sub-031	250	31	45.7	47.5	COM11	COM15	COM3	2024-04-17_10h04.57.004	001-EEG_SVR_Officel	2022.2.5	144.00693561459224		6.156000000000063	0_sub-pilot031_SVR_EEG_block1-2.protocol.csv	step53	8020	796.874	STIMULATE	47.4	47.5	47.5	47.5	47.7	53	730.446
724.568	0	362284	20/Hi	4	1	0	1	0	9.0	0.0	9.0	0.0						810.7357591001783	816.9033193001524	816.9033193001524	7.2	['7', 'a', '2', 'return']	[1.995737599907443, 2.3321380000561476, 2.6683966000564396, 3.3957156999967992]	6.16	5.65	1.0	20hz	high_pain	47.5			sub-031	250	31	45.7	47.5	COM11	COM15	COM3	2024-04-17_10h04.57.004	001-EEG_SVR_Officel	2022.2.5	144.00693561459224		5.65199999999993	0_sub-pilot031_SVR_EEG_block1-2.protocol.csv	step53	8020	796.874	STIMULATE	47.4	47.5	47.5	47.5	47.7	53	730.446
734.59	0	367295	wait	20	1	0	1	0	10.0	0.0	10.0	0.0						833.3149185001384	840.8366819000803	840.8366819000803	6.5	['6', 'a', '5', 'return']	[2.6384226998779923, 2.846162299858406, 3.0862499999348074, 4.104131700005382]	7.51	5.84	2.0	10hz	low_pain	45.7			sub-031	250	31	45.7	47.5	COM11	COM15	COM3	2024-04-17_10h04.57.004	001-EEG_SVR_Officel	2022.2.5	144.00693561459224		10.772000000000048	0_sub-pilot031_SVR_EEG_block1-2.protocol.csv	step55	8264	821.082	STIMULATE	45.7	45.6	45.6	45.7	45.8	55	754.654
742.098	0	371049	10hz	3	1	0	1	0	10.0	0.0	10.0	0.0						833.3149185001384	840.8366819000803	840.8366819000803	6.5	['6', 'a', '5', 'return']	[2.6384226998779923, 2.846162299858406, 3.0862499999348074, 4.104131700005382]	7.51	5.84	2.0	10hz	low_pain	45.7			sub-031	250	31	45.7	47.5	COM11	COM15	COM3	2024-04-17_10h04.57.004	001-EEG_SVR_Officel	2022.2.5	144.00693561459224		7.5079999999999245	0_sub-pilot031_SVR_EEG_block1-2.protocol.csv	step55	8264	821.082	STIMULATE	45.7	45.6	45.6	45.7	45.8	55	754.654
748.688	0	374344	10/Lo	2	1	0	1	0	10.0	0.0	10.0	0.0						833.3149185001384	840.8366819000803	840.8366819000803	6.5	['6', 'a', '5', 'return']	[2.6384226998779923, 2.846162299858406, 3.0862499999348074, 4.104131700005382]	7.51	5.84	2.0	10hz	low_pain	45.7			sub-031	250	31	45.7	47.5	COM11	COM15	COM3	2024-04-17_10h04.57.004	001-EEG_SVR_Officel	2022.2.5	144.00693561459224		5.840000000000032	0_sub-pilot031_SVR_EEG_block1-2.protocol.csv	step55	8264	821.082	STIMULATE	45.7	45.6	45.6	45.7	45.8	55	754.654
759.23	0	379615	wait	20	1	0	1	0	11.0	0.0	11.0	0.0						857.9569783001207	863.7977016000077	863.7977016000077	3.0	['3', 'return']	[2.221778800012544, 2.7735496000386775]	5.83	5.89	3.0	20hz	low_pain	45.7			sub-031	250	31	45.7	47.5	COM11	COM15	COM3	2024-04-17_10h04.57.004	001-EEG_SVR_Officel	2022.2.5	144.00693561459224		11.29200000000003	0_sub-pilot031_SVR_EEG_block1-2.protocol.csv	step57	8487	844.035	STIMULATE	45.6	45.6	45.6	45.7	45.7	57	777.607
765.06	0	382530	20hz	6	1	0	1	0	11.0	0.0	11.0	0.0						857.9569783001207	863.7977016000077	863.7977016000077	3.0	['3', 'return']	[2.221778800012544, 2.7735496000386775]	5.83	5.89	3.0	20hz	low_pain	45.7			sub-031	250	31	45.7	47.5	COM11	COM15	COM3	2024-04-17_10h04.57.004	001-EEG_SVR_Officel	2022.2.5	144.00693561459224		5.829999999999927	0_sub-pilot031_SVR_EEG_block1-2.protocol.csv	step57	8487	844.035	STIMULATE	45.6	45.6	45.6	45.7	45.7	57	777.607
771.704	0	385852	20/Lo	5	1	0	1	0	11.0	0.0	11.0	0.0						857.9569783001207	863.7977016000077	863.7977016000077	3.0	['3', 'return']	[2.221778800012544, 2.7735496000386775]	5.83	5.89	3.0	20hz	low_pain	45.7			sub-031	250	31	45.7	47.5	COM11	COM15	COM3	2024-04-17_10h04.57.004	001-EEG_SVR_Officel	2022.2.5	144.00693561459224		5.8940000000000055	0_sub-pilot031_SVR_EEG_block1-2.protocol.csv	step57	8487	844.035	STIMULATE	45.6	45.6	45.6	45.7	45.7	57	777.607
780.858	0	390429	wait	20	1	0	1	0	12.0	0.0	12.0	0.0						879.5846200999804	886.4324315001722	886.4324315001722	3.0	['3', 'return']	[2.187942399876192, 2.8524523000232875]	6.84	5.08	0.0	20hz	low_pain	45.7			sub-031	250	31	45.7	47.5	COM11	COM15	COM3	2024-04-17_10h04.57.004	001-EEG_SVR_Officel	2022.2.5	144.00693561459224		9.903999999999996	0_sub-pilot031_SVR_EEG_block1-2.protocol.csv	step59	8696	865.962	STIMULATE	45.7	45.6	45.6	45.6	45.9	59	799.534
787.694	0	393847	20hz	6	1	0	1	0	12.0	0.0	12.0	0.0						879.5846200999804	886.4324315001722	886.4324315001722	3.0	['3', 'return']	[2.187942399876192, 2.8524523000232875]	6.84	5.08	0.0	20hz	low_pain	45.7			sub-031	250	31	45.7	47.5	COM11	COM15	COM3	2024-04-17_10h04.57.004	001-EEG_SVR_Officel	2022.2.5	144.00693561459224		6.836000000000013	0_sub-pilot031_SVR_EEG_block1-2.protocol.csv	step59	8696	865.962	STIMULATE	45.7	45.6	45.6	45.6	45.9	59	799.534
793.526	0	396763	20/Lo	5	1	0	1	0	12.0	0.0	12.0	0.0						879.5846200999804	886.4324315001722	886.4324315001722	3.0	['3', 'return']	[2.187942399876192, 2.8524523000232875]	6.84	5.08	0.0	20hz	low_pain	45.7			sub-031	250	31	45.7	47.5	COM11	COM15	COM3	2024-04-17_10h04.57.004	001-EEG_SVR_Officel	2022.2.5	144.00693561459224		5.081999999999994	0_sub-pilot031_SVR_EEG_block1-2.protocol.csv	step59	8696	865.962	STIMULATE	45.7	45.6	45.6	45.6	45.9	59	799.534
803.576	0	401788	wait	20	1	0	1	0	13.0	0.0	13.0	0.0						902.303037600126	909.6650801000652	909.6650801000652	7.2	['7', 'a', '2', 'return']	[2.634147400036454, 2.946160600055009, 3.2980051999911666, 4.0187109999824315]	7.35	5.8	1.0	40hz	high_pain	47.5			sub-031	250	31	45.7	47.5	COM11	COM15	COM3	2024-04-17_10h04.57.004	001-EEG_SVR_Officel	2022.2.5	144.00693561459224		10.800000000000068	0_sub-pilot031_SVR_EEG_block1-2.protocol.csv	step61	8922	889.835	STIMULATE	47.5	47.5	47.5	47.5	47.6	61	823.407
810.928	0	405464	40hz	9	1	0	1	0	13.0	0.0	13.0	0.0						902.303037600126	909.6650801000652	909.6650801000652	7.2	['7', 'a', '2', 'return']	[2.634147400036454, 2.946160600055009, 3.2980051999911666, 4.0187109999824315]	7.35	5.8	1.0	40hz	high_pain	47.5			sub-031	250	31	45.7	47.5	COM11	COM15	COM3	2024-04-17_10h04.57.004	001-EEG_SVR_Officel	2022.2.5	144.00693561459224		7.351999999999975	0_sub-pilot031_SVR_EEG_block1-2.protocol.csv	step61	8922	889.835	STIMULATE	47.5	47.5	47.5	47.5	47.6	61	823.407
817.482	0	408741	40/Hi	7	1	0	1	0	13.0	0.0	13.0	0.0						902.303037600126	909.6650801000652	909.6650801000652	7.2	['7', 'a', '2', 'return']	[2.634147400036454, 2.946160600055009, 3.2980051999911666, 4.0187109999824315]	7.35	5.8	1.0	40hz	high_pain	47.5			sub-031	250	31	45.7	47.5	COM11	COM15	COM3	2024-04-17_10h04.57.004	001-EEG_SVR_Officel	2022.2.5	144.00693561459224		5.803999999999974	0_sub-pilot031_SVR_EEG_block1-2.protocol.csv	step61	8922	889.835	STIMULATE	47.5	47.5	47.5	47.5	47.6	61	823.407
827.976	0	413988	wait	20	1	0	1	0	14.0	0.0	14.0	0.0						926.7016839999706	931.8332436999772	931.8332436999772	5.0	['5', 'return']	[1.8175967000424862, 2.3214428999926895]	5.12	5.42	2.0	40hz	low_pain	45.7			sub-031	250	31	45.7	47.5	COM11	COM15	COM3	2024-04-17_10h04.57.004	001-EEG_SVR_Officel	2022.2.5	144.00693561459224		11.244000000000028	0_sub-pilot031_SVR_EEG_block1-2.protocol.csv	step63	9127	911.736	STIMULATE	45.6	45.6	45.6	45.6	45.8	63	845.308
833.096	0	416548	40hz	9	1	0	1	0	14.0	0.0	14.0	0.0						926.7016839999706	931.8332436999772	931.8332436999772	5.0	['5', 'return']	[1.8175967000424862, 2.3214428999926895]	5.12	5.42	2.0	40hz	low_pain	45.7			sub-031	250	31	45.7	47.5	COM11	COM15	COM3	2024-04-17_10h04.57.004	001-EEG_SVR_Officel	2022.2.5	144.00693561459224		5.1200000000000045	0_sub-pilot031_SVR_EEG_block1-2.protocol.csv	step63	9127	911.736	STIMULATE	45.6	45.6	45.6	45.6	45.8	63	845.308
839.268	0	419634	40/Lo	8	1	0	1	0	14.0	0.0	14.0	0.0						926.7016839999706	931.8332436999772	931.8332436999772	5.0	['5', 'return']	[1.8175967000424862, 2.3214428999926895]	5.12	5.42	2.0	40hz	low_pain	45.7			sub-031	250	31	45.7	47.5	COM11	COM15	COM3	2024-04-17_10h04.57.004	001-EEG_SVR_Officel	2022.2.5	144.00693561459224		5.4220000000000255	0_sub-pilot031_SVR_EEG_block1-2.protocol.csv	step63	9127	911.736	STIMULATE	45.6	45.6	45.6	45.6	45.8	63	845.308
848.442	0	424221	wait	20	1	0	1	0	15.0	0.0	15.0	0.0						947.1688447999768	954.3781690001488	954.3781690001488	4.0	['4', 'return']	[2.4258016000967473, 2.914097199914977]	7.2	5.02	3.0	10hz	high_pain	47.5			sub-031	250	31	45.7	47.5	COM11	COM15	COM3	2024-04-17_10h04.57.004	001-EEG_SVR_Officel	2022.2.5	144.00693561459224		9.923999999999978	0_sub-pilot031_SVR_EEG_block1-2.protocol.csv	step65	9333	933.831	STIMULATE	47.5	47.4	47.5	47.5	47.6	65	867.403
855.64	0	427820	10hz	3	1	0	1	0	15.0	0.0	15.0	0.0						947.1688447999768	954.3781690001488	954.3781690001488	4.0	['4', 'return']	[2.4258016000967473, 2.914097199914977]	7.2	5.02	3.0	10hz	high_pain	47.5			sub-031	250	31	45.7	47.5	COM11	COM15	COM3	2024-04-17_10h04.57.004	001-EEG_SVR_Officel	2022.2.5	144.00693561459224		7.197999999999979	0_sub-pilot031_SVR_EEG_block1-2.protocol.csv	step65	9333	933.831	STIMULATE	47.5	47.4	47.5	47.5	47.6	65	867.403
861.408	0	430704	10/Hi	1	1	0	1	0	15.0	0.0	15.0	0.0						947.1688447999768	954.3781690001488	954.3781690001488	4.0	['4', 'return']	[2.4258016000967473, 2.914097199914977]	7.2	5.02	3.0	10hz	high_pain	47.5			sub-031	250	31	45.7	47.5	COM11	COM15	COM3	2024-04-17_10h04.57.004	001-EEG_SVR_Officel	2022.2.5	144.00693561459224		5.018000000000029	0_sub-pilot031_SVR_EEG_block1-2.protocol.csv	step65	9333	933.831	STIMULATE	47.5	47.4	47.5	47.5	47.6	65	867.403
971.728	0	485864	wait	20	2	0	2	0	0.0	0.0	0.0	0.0				p	0.4986596999224275	1070.4545530001633	1075.5940255001187	1075.5940255001187	3.0	['3', 'return']	[2.105195299955085, 2.697280300082639]	5.13	5.66	0.0	10hz	low_pain	45.7			sub-031	250	31	45.7	47.5	COM11	COM15	COM3	2024-04-17_10h04.57.004	001-EEG_SVR_Officel	2022.2.5	144.00693561459224		111.06999999999994	1_sub-pilot031_SVR_EEG_block3-4.protocol.csv	step3	234	23.22	STIMULATE	45.7	45.6	45.6	45.6	45.8	3	989.117
976.856	0	488428	10hz	3	2	0	2	0	0.0	0.0	0.0	0.0				p	0.4986596999224275	1070.4545530001633	1075.5940255001187	1075.5940255001187	3.0	['3', 'return']	[2.105195299955085, 2.697280300082639]	5.13	5.66	0.0	10hz	low_pain	45.7			sub-031	250	31	45.7	47.5	COM11	COM15	COM3	2024-04-17_10h04.57.004	001-EEG_SVR_Officel	2022.2.5	144.00693561459224		5.128000000000043	1_sub-pilot031_SVR_EEG_block3-4.protocol.csv	step3	234	23.22	STIMULATE	45.7	45.6	45.6	45.6	45.8	3	989.117
983.264	0	491632	10/Lo	2	2	0	2	0	0.0	0.0	0.0	0.0				p	0.4986596999224275	1070.4545530001633	1075.5940255001187	1075.5940255001187	3.0	['3', 'return']	[2.105195299955085, 2.697280300082639]	5.13	5.66	0.0	10hz	low_pain	45.7			sub-031	250	31	45.7	47.5	COM11	COM15	COM3	2024-04-17_10h04.57.004	001-EEG_SVR_Officel	2022.2.5	144.00693561459224		5.6580000000000155	1_sub-pilot031_SVR_EEG_block3-4.protocol.csv	step3	234	23.22	STIMULATE	45.7	45.6	45.6	45.6	45.8	3	989.117
992.578	0	496289	wait	20	2	0	2	0	1.0	0.0	1.0	0.0						1091.303568500094	1096.714713399997	1096.714713399997	6.0	['6', 'return']	[2.0483193998225033, 2.6012592997867614]	5.4	5.28	1.0	10hz	high_pain	47.5			sub-031	250	31	45.7	47.5	COM11	COM15	COM3	2024-04-17_10h04.57.004	001-EEG_SVR_Officel	2022.2.5	144.00693561459224		10.063999999999965	1_sub-pilot031_SVR_EEG_block3-4.protocol.csv	step5	443	43.901	STIMULATE	47.5	47.4	47.4	47.5	47.6	5	1009.798
997.976	0	498988	10hz	3	2	0	2	0	1.0	0.0	1.0	0.0						1091.303568500094	1096.714713399997	1096.714713399997	6.0	['6', 'return']	[2.0483193998225033, 2.6012592997867614]	5.4	5.28	1.0	10hz	high_pain	47.5			sub-031	250	31	45.7	47.5	COM11	COM15	COM3	2024-04-17_10h04.57.004	001-EEG_SVR_Officel	2022.2.5	144.00693561459224		5.398000000000025	1_sub-pilot031_SVR_EEG_block3-4.protocol.csv	step5	443	43.901	STIMULATE	47.5	47.4	47.4	47.5	47.6	5	1009.798
1004.01	0	502005	10/Hi	1	2	0	2	0	1.0	0.0	1.0	0.0						1091.303568500094	1096.714713399997	1096.714713399997	6.0	['6', 'return']	[2.0483193998225033, 2.6012592997867614]	5.4	5.28	1.0	10hz	high_pain	47.5			sub-031	250	31	45.7	47.5	COM11	COM15	COM3	2024-04-17_10h04.57.004	001-EEG_SVR_Officel	2022.2.5	144.00693561459224		5.283999999999992	1_sub-pilot031_SVR_EEG_block3-4.protocol.csv	step5	443	43.901	STIMULATE	47.5	47.4	47.4	47.5	47.6	5	1009.798
1013.608	0	506804	wait	20	2	0	2	0	2.0	0.0	2.0	0.0						1112.334551300155	1117.8769918000326	1117.8769918000326	6.0	['6', 'return']	[2.2383077000267804, 2.791520900093019]	5.53	5.94	2.0	10hz	low_pain	45.7			sub-031	250	31	45.7	47.5	COM11	COM15	COM3	2024-04-17_10h04.57.004	001-EEG_SVR_Officel	2022.2.5	144.00693561459224		10.347999999999956	1_sub-pilot031_SVR_EEG_block3-4.protocol.csv	step7	664	65.847	STIMULATE	45.7	45.6	45.6	45.6	45.8	7	1031.744
1019.138	0	509569	10hz	3	2	0	2	0	2.0	0.0	2.0	0.0						1112.334551300155	1117.8769918000326	1117.8769918000326	6.0	['6', 'return']	[2.2383077000267804, 2.791520900093019]	5.53	5.94	2.0	10hz	low_pain	45.7			sub-031	250	31	45.7	47.5	COM11	COM15	COM3	2024-04-17_10h04.57.004	001-EEG_SVR_Officel	2022.2.5	144.00693561459224		5.530000000000086	1_sub-pilot031_SVR_EEG_block3-4.protocol.csv	step7	664	65.847	STIMULATE	45.7	45.6	45.6	45.6	45.8	7	1031.744
1025.832	0	512916	10/Lo	2	2	0	2	0	2.0	0.0	2.0	0.0						1112.334551300155	1117.8769918000326	1117.8769918000326	6.0	['6', 'return']	[2.2383077000267804, 2.791520900093019]	5.53	5.94	2.0	10hz	low_pain	45.7			sub-031	250	31	45.7	47.5	COM11	COM15	COM3	2024-04-17_10h04.57.004	001-EEG_SVR_Officel	2022.2.5	144.00693561459224		5.944000000000074	1_sub-pilot031_SVR_EEG_block3-4.protocol.csv	step7	664	65.847	STIMULATE	45.7	45.6	45.6	45.6	45.8	7	1031.744
1034.952	0	517476	wait	20	2	0	2	0	3.0	0.0	3.0	0.0						1133.6778888001572	1138.727353000082	1138.727353000082	4.5	['4', 'a', '5', 'return']	[3.876727799884975, 4.164960299851373, 4.357743399916217, 4.98903359984979]	5.04	6.47	3.0	40hz	low_pain	45.7			sub-031	250	31	45.7	47.5	COM11	COM15	COM3	2024-04-17_10h04.57.004	001-EEG_SVR_Officel	2022.2.5	144.00693561459224		9.86999999999989	1_sub-pilot031_SVR_EEG_block3-4.protocol.csv	step9	879	87.15	STIMULATE	45.6	45.6	45.6	45.6	45.7	9	1053.047
1039.988	0	519994	40hz	9	2	0	2	0	3.0	0.0	3.0	0.0						1133.6778888001572	1138.727353000082	1138.727353000082	4.5	['4', 'a', '5', 'return']	[3.876727799884975, 4.164960299851373, 4.357743399916217, 4.98903359984979]	5.04	6.47	3.0	40hz	low_pain	45.7			sub-031	250	31	45.7	47.5	COM11	COM15	COM3	2024-04-17_10h04.57.004	001-EEG_SVR_Officel	2022.2.5	144.00693561459224		5.036000000000058	1_sub-pilot031_SVR_EEG_block3-4.protocol.csv	step9	879	87.15	STIMULATE	45.6	45.6	45.6	45.6	45.7	9	1053.047
1047.21	0	523605	40/Lo	8	2	0	2	0	3.0	0.0	3.0	0.0						1133.6778888001572	1138.727353000082	1138.727353000082	4.5	['4', 'a', '5', 'return']	[3.876727799884975, 4.164960299851373, 4.357743399916217, 4.98903359984979]	5.04	6.47	3.0	40hz	low_pain	45.7			sub-031	250	31	45.7	47.5	COM11	COM15	COM3	2024-04-17_10h04.57.004	001-EEG_SVR_Officel	2022.2.5	144.00693561459224		6.47199999999998	1_sub-pilot031_SVR_EEG_block3-4.protocol.csv	step9	879	87.15	STIMULATE	45.6	45.6	45.6	45.6	45.7	9	1053.047
1058.01	0	529005	wait	20	2	0	2	0	4.0	0.0	4.0	0.0						1156.7364599001594	1164.5429066000506	1164.5429066000506	5.0	['5', 'return']	[1.7649908000603318, 2.325310700107366]	7.8	5.0	0.0	20hz	high_pain	47.5			sub-031	250	31	45.7	47.5	COM11	COM15	COM3	2024-04-17_10h04.57.004	001-EEG_SVR_Officel	2022.2.5	144.00693561459224		11.549999999999955	1_sub-pilot031_SVR_EEG_block3-4.protocol.csv	step11	1125	111.53	STIMULATE	47.5	47.5	47.4	47.6	47.7	11	1077.427
1065.804	0	532902	20hz	6	2	0	2	0	4.0	0.0	4.0	0.0						1156.7364599001594	1164.5429066000506	1164.5429066000506	5.0	['5', 'return']	[1.7649908000603318, 2.325310700107366]	7.8	5.0	0.0	20hz	high_pain	47.5			sub-031	250	31	45.7	47.5	COM11	COM15	COM3	2024-04-17_10h04.57.004	001-EEG_SVR_Officel	2022.2.5	144.00693561459224		7.794000000000096	1_sub-pilot031_SVR_EEG_block3-4.protocol.csv	step11	1125	111.53	STIMULATE	47.5	47.5	47.4	47.6	47.7	11	1077.427
1071.558	0	535779	20/Hi	4	2	0	2	0	4.0	0.0	4.0	0.0						1156.7364599001594	1164.5429066000506	1164.5429066000506	5.0	['5', 'return']	[1.7649908000603318, 2.325310700107366]	7.8	5.0	0.0	20hz	high_pain	47.5			sub-031	250	31	45.7	47.5	COM11	COM15	COM3	2024-04-17_10h04.57.004	001-EEG_SVR_Officel	2022.2.5	144.00693561459224		5.003999999999905	1_sub-pilot031_SVR_EEG_block3-4.protocol.csv	step11	1125	111.53	STIMULATE	47.5	47.5	47.4	47.6	47.7	11	1077.427
1081.15	0	540575	wait	20	2	0	2	0	5.0	0.0	5.0	0.0						1179.877368200105	1187.7533837000374	1187.7533837000374	6.0	['6', 'return']	[2.754424799932167, 3.3064685999415815]	7.87	5.88	1.0	40hz	high_pain	47.5			sub-031	250	31	45.7	47.5	COM11	COM15	COM3	2024-04-17_10h04.57.004	001-EEG_SVR_Officel	2022.2.5	144.00693561459224		10.342000000000098	1_sub-pilot031_SVR_EEG_block3-4.protocol.csv	step13	1368	135.648	STIMULATE	47.5	47.5	47.5	47.6	47.7	13	1101.545
1089.014	0	544507	40hz	9	2	0	2	0	5.0	0.0	5.0	0.0						1179.877368200105	1187.7533837000374	1187.7533837000374	6.0	['6', 'return']	[2.754424799932167, 3.3064685999415815]	7.87	5.88	1.0	40hz	high_pain	47.5			sub-031	250	31	45.7	47.5	COM11	COM15	COM3	2024-04-17_10h04.57.004	001-EEG_SVR_Officel	2022.2.5	144.00693561459224		7.863999999999805	1_sub-pilot031_SVR_EEG_block3-4.protocol.csv	step13	1368	135.648	STIMULATE	47.5	47.5	47.5	47.6	47.7	13	1101.545
1095.646	0	547823	40/Hi	7	2	0	2	0	5.0	0.0	5.0	0.0						1179.877368200105	1187.7533837000374	1187.7533837000374	6.0	['6', 'return']	[2.754424799932167, 3.3064685999415815]	7.87	5.88	1.0	40hz	high_pain	47.5			sub-031	250	31	45.7	47.5	COM11	COM15	COM3	2024-04-17_10h04.57.004	001-EEG_SVR_Officel	2022.2.5	144.00693561459224		5.882000000000062	1_sub-pilot031_SVR_EEG_block3-4.protocol.csv	step13	1368	135.648	STIMULATE	47.5	47.5	47.5	47.6	47.7	13	1101.545
1105.348	0	552674	wait	20	2	0	2	0	6.0	0.0	6.0	0.0						1204.074213600019	1211.2561638001353	1211.2561638001353	7.0	['7', 'return']	[2.0915268000680953, 2.914739799918607]	7.17	5.27	2.0	40hz	high_pain	47.5			sub-031	250	31	45.7	47.5	COM11	COM15	COM3	2024-04-17_10h04.57.004	001-EEG_SVR_Officel	2022.2.5	144.00693561459224		10.451999999999998	1_sub-pilot031_SVR_EEG_block3-4.protocol.csv	step15	1599	158.542	STIMULATE	47.5	47.5	47.5	47.5	47.7	15	1124.439
1112.516	0	556258	40hz	9	2	0	2	0	6.0	0.0	6.0	0.0						1204.074213600019	1211.2561638001353	1211.2561638001353	7.0	['7', 'return']	[2.0915268000680953, 2.914739799918607]	7.17	5.27	2.0	40hz	high_pain	47.5			sub-031	250	31	45.7	47.5	COM11	COM15	COM3	2024-04-17_10h04.57.004	001-EEG_SVR_Officel	2022.2.5	144.00693561459224		7.16800000000012	1_sub-pilot031_SVR_EEG_block3-4.protocol.csv	step15	1599	158.542	STIMULATE	47.5	47.5	47.5	47.5	47.7	15	1124.439
1118.536	0	559268	40/Hi	7	2	0	2	0	6.0	0.0	6.0	0.0						1204.074213600019	1211.2561638001353	1211.2561638001353	7.0	['7', 'return']	[2.0915268000680953, 2.914739799918607]	7.17	5.27	2.0	40hz	high_pain	47.5			sub-031	250	31	45.7	47.5	COM11	COM15	COM3	2024-04-17_10h04.57.004	001-EEG_SVR_Officel	2022.2.5	144.00693561459224		5.269999999999982	1_sub-pilot031_SVR_EEG_block3-4.protocol.csv	step15	1599	158.542	STIMULATE	47.5	47.5	47.5	47.5	47.7	15	1124.439
1128.454	0	564227	wait	20	2	0	2	0	7.0	0.0	7.0	0.0						1227.1812567000743	1232.2378813000396	1232.2378813000396	5.0	['5', 'return']	[2.1411123999860138, 2.8939873999916017]	5.05	6.48	3.0	10hz	low_pain	45.7			sub-031	250	31	45.7	47.5	COM11	COM15	COM3	2024-04-17_10h04.57.004	001-EEG_SVR_Officel	2022.2.5	144.00693561459224		10.667999999999893	1_sub-pilot031_SVR_EEG_block3-4.protocol.csv	step17	1822	180.638	STIMULATE	45.6	45.6	45.6	45.6	45.7	17	1146.535
1133.498	0	566749	10hz	3	2	0	2	0	7.0	0.0	7.0	0.0						1227.1812567000743	1232.2378813000396	1232.2378813000396	5.0	['5', 'return']	[2.1411123999860138, 2.8939873999916017]	5.05	6.48	3.0	10hz	low_pain	45.7			sub-031	250	31	45.7	47.5	COM11	COM15	COM3	2024-04-17_10h04.57.004	001-EEG_SVR_Officel	2022.2.5	144.00693561459224		5.044000000000096	1_sub-pilot031_SVR_EEG_block3-4.protocol.csv	step17	1822	180.638	STIMULATE	45.6	45.6	45.6	45.6	45.7	17	1146.535
1140.732	0	570366	10/Lo	2	2	0	2	0	7.0	0.0	7.0	0.0						1227.1812567000743	1232.2378813000396	1232.2378813000396	5.0	['5', 'return']	[2.1411123999860138, 2.8939873999916017]	5.05	6.48	3.0	10hz	low_pain	45.7			sub-031	250	31	45.7	47.5	COM11	COM15	COM3	2024-04-17_10h04.57.004	001-EEG_SVR_Officel	2022.2.5	144.00693561459224		6.483999999999924	1_sub-pilot031_SVR_EEG_block3-4.protocol.csv	step17	1822	180.638	STIMULATE	45.6	45.6	45.6	45.6	45.7	17	1146.535
1149.42	0	574710	wait	20	2	0	2	0	8.0	0.0	8.0	0.0						1248.1495789000764	1256.0463764001615	1256.0463764001615	0.0	['0', 'return']	[6.8204575998242944, 8.324097599834204]	7.89	5.79	0.0	20hz	low_pain	45.7			sub-031	250	31	45.7	47.5	COM11	COM15	COM3	2024-04-17_10h04.57.004	001-EEG_SVR_Officel	2022.2.5	144.00693561459224		9.438000000000102	1_sub-pilot031_SVR_EEG_block3-4.protocol.csv	step19	2056	203.852	STIMULATE	45.6	45.6	45.6	45.8	45.8	19	1169.749
1157.306	0	578653	20hz	6	2	0	2	0	8.0	0.0	8.0	0.0						1248.1495789000764	1256.0463764001615	1256.0463764001615	0.0	['0', 'return']	[6.8204575998242944, 8.324097599834204]	7.89	5.79	0.0	20hz	low_pain	45.7			sub-031	250	31	45.7	47.5	COM11	COM15	COM3	2024-04-17_10h04.57.004	001-EEG_SVR_Officel	2022.2.5	144.00693561459224		7.885999999999967	1_sub-pilot031_SVR_EEG_block3-4.protocol.csv	step19	2056	203.852	STIMULATE	45.6	45.6	45.6	45.8	45.8	19	1169.749
1163.846	0	581923	20/Lo	5	2	0	2	0	8.0	0.0	8.0	0.0						1248.1495789000764	1256.0463764001615	1256.0463764001615	0.0	['0', 'return']	[6.8204575998242944, 8.324097599834204]	7.89	5.79	0.0	20hz	low_pain	45.7			sub-031	250	31	45.7	47.5	COM11	COM15	COM3	2024-04-17_10h04.57.004	001-EEG_SVR_Officel	2022.2.5	144.00693561459224		5.789999999999964	1_sub-pilot031_SVR_EEG_block3-4.protocol.csv	step19	2056	203.852	STIMULATE	45.6	45.6	45.6	45.8	45.8	19	1169.749
1178.654	0	589327	wait	20	2	0	2	0	9.0	0.0	9.0	0.0						1277.382599600125	1285.168835400138	1285.168835400138	2.5	['2', 'a', '5', 'return']	[2.6197544999886304, 2.947436099871993, 3.1714254999533296, 3.812362999888137]	7.78	5.62	1.0	20hz	low_pain	45.7			sub-031	250	31	45.7	47.5	COM11	COM15	COM3	2024-04-17_10h04.57.004	001-EEG_SVR_Officel	2022.2.5	144.00693561459224		15.557999999999993	1_sub-pilot031_SVR_EEG_block3-4.protocol.csv	step21	2347	232.786	STIMULATE	45.7	45.6	45.6	45.7	45.9	21	1198.683
1186.428	0	593214	20hz	6	2	0	2	0	9.0	0.0	9.0	0.0						1277.382599600125	1285.168835400138	1285.168835400138	2.5	['2', 'a', '5', 'return']	[2.6197544999886304, 2.947436099871993, 3.1714254999533296, 3.812362999888137]	7.78	5.62	1.0	20hz	low_pain	45.7			sub-031	250	31	45.7	47.5	COM11	COM15	COM3	2024-04-17_10h04.57.004	001-EEG_SVR_Officel	2022.2.5	144.00693561459224		7.774000000000115	1_sub-pilot031_SVR_EEG_block3-4.protocol.csv	step21	2347	232.786	STIMULATE	45.7	45.6	45.6	45.7	45.9	21	1198.683
1192.802	0	596401	20/Lo	5	2	0	2	0	9.0	0.0	9.0	0.0						1277.382599600125	1285.168835400138	1285.168835400138	2.5	['2', 'a', '5', 'return']	[2.6197544999886304, 2.947436099871993, 3.1714254999533296, 3.812362999888137]	7.78	5.62	1.0	20hz	low_pain	45.7			sub-031	250	31	45.7	47.5	COM11	COM15	COM3	2024-04-17_10h04.57.004	001-EEG_SVR_Officel	2022.2.5	144.00693561459224		5.623999999999796	1_sub-pilot031_SVR_EEG_block3-4.protocol.csv	step21	2347	232.786	STIMULATE	45.7	45.6	45.6	45.7	45.9	21	1198.683
1203.268	0	601634	wait	20	2	0	2	0	10.0	0.0	10.0	0.0						1301.9963601001073	1307.906701600179	1307.906701600179	7.0	['7', 'return']	[3.3443422000855207, 3.9537082999013364]	5.9	5.6	2.0	controle	high_pain	47.5			sub-031	250	31	45.7	47.5	COM11	COM15	COM3	2024-04-17_10h04.57.004	001-EEG_SVR_Officel	2022.2.5	144.00693561459224		11.216000000000122	1_sub-pilot031_SVR_EEG_block3-4.protocol.csv	step23	2576	255.41	STIMULATE	47.5	47.5	47.5	47.5	47.5	23	1221.307
1209.166	0	604583	CNhz	12	2	0	2	0	10.0	0.0	10.0	0.0						1301.9963601001073	1307.906701600179	1307.906701600179	7.0	['7', 'return']	[3.3443422000855207, 3.9537082999013364]	5.9	5.6	2.0	controle	high_pain	47.5			sub-031	250	31	45.7	47.5	COM11	COM15	COM3	2024-04-17_10h04.57.004	001-EEG_SVR_Officel	2022.2.5	144.00693561459224		5.897999999999911	1_sub-pilot031_SVR_EEG_block3-4.protocol.csv	step23	2576	255.41	STIMULATE	47.5	47.5	47.5	47.5	47.5	23	1221.307
1215.52	0	607760	CN/Hi	10	2	0	2	0	10.0	0.0	10.0	0.0						1301.9963601001073	1307.906701600179	1307.906701600179	7.0	['7', 'return']	[3.3443422000855207, 3.9537082999013364]	5.9	5.6	2.0	controle	high_pain	47.5			sub-031	250	31	45.7	47.5	COM11	COM15	COM3	2024-04-17_10h04.57.004	001-EEG_SVR_Officel	2022.2.5	144.00693561459224		5.604000000000042	1_sub-pilot031_SVR_EEG_block3-4.protocol.csv	step23	2576	255.41	STIMULATE	47.5	47.5	47.5	47.5	47.5	23	1221.307
1226.152	0	613076	wait	20	2	0	2	0	11.0	0.0	11.0	0.0						1324.881012200145	1329.937141200062	1329.937141200062	6.0	['6', 'return']	[2.5298992001917213, 3.1550853000953794]	5.05	5.89	3.0	10hz	high_pain	47.5			sub-031	250	31	45.7	47.5	COM11	COM15	COM3	2024-04-17_10h04.57.004	001-EEG_SVR_Officel	2022.2.5	144.00693561459224		11.382000000000062	1_sub-pilot031_SVR_EEG_block3-4.protocol.csv	step25	2802	277.819	STIMULATE	47.5	47.5	47.5	47.5	47.5	25	1243.716
1231.198	0	615599	10hz	3	2	0	2	0	11.0	0.0	11.0	0.0						1324.881012200145	1329.937141200062	1329.937141200062	6.0	['6', 'return']	[2.5298992001917213, 3.1550853000953794]	5.05	5.89	3.0	10hz	high_pain	47.5			sub-031	250	31	45.7	47.5	COM11	COM15	COM3	2024-04-17_10h04.57.004	001-EEG_SVR_Officel	2022.2.5	144.00693561459224		5.046000000000049	1_sub-pilot031_SVR_EEG_block3-4.protocol.csv	step25	2802	277.819	STIMULATE	47.5	47.5	47.5	47.5	47.5	25	1243.716
1237.842	0	618921	10/Hi	1	2	0	2	0	11.0	0.0	11.0	0.0						1324.881012200145	1329.937141200062	1329.937141200062	6.0	['6', 'return']	[2.5298992001917213, 3.1550853000953794]	5.05	5.89	3.0	10hz	high_pain	47.5			sub-031	250	31	45.7	47.5	COM11	COM15	COM3	2024-04-17_10h04.57.004	001-EEG_SVR_Officel	2022.2.5	144.00693561459224		5.8940000000000055	1_sub-pilot031_SVR_EEG_block3-4.protocol.csv	step25	2802	277.819	STIMULATE	47.5	47.5	47.5	47.5	47.5	25	1243.716
1247.384	0	623692	wait	20	2	0	2	0	12.0	0.0	12.0	0.0						1346.1129205999896	1353.9400025000796	1353.9400025000796	2.0	['2', 'return']	[2.2852102001197636, 2.9570425001438707]	7.82	6.12	0.0	40hz	low_pain	45.7			sub-031	250	31	45.7	47.5	COM11	COM15	COM3	2024-04-17_10h04.57.004	001-EEG_SVR_Officel	2022.2.5	144.00693561459224		10.291999999999916	1_sub-pilot031_SVR_EEG_block3-4.protocol.csv	step27	3046	302.061	STIMULATE	45.6	45.6	45.6	45.8	45.9	27	1267.958
1255.2	0	627600	40hz	9	2	0	2	0	12.0	0.0	12.0	0.0						1346.1129205999896	1353.9400025000796	1353.9400025000796	2.0	['2', 'return']	[2.2852102001197636, 2.9570425001438707]	7.82	6.12	0.0	40hz	low_pain	45.7			sub-031	250	31	45.7	47.5	COM11	COM15	COM3	2024-04-17_10h04.57.004	001-EEG_SVR_Officel	2022.2.5	144.00693561459224		7.816000000000031	1_sub-pilot031_SVR_EEG_block3-4.protocol.csv	step27	3046	302.061	STIMULATE	45.6	45.6	45.6	45.8	45.9	27	1267.958
1262.074	0	631037	40/Lo	8	2	0	2	0	12.0	0.0	12.0	0.0						1346.1129205999896	1353.9400025000796	1353.9400025000796	2.0	['2', 'return']	[2.2852102001197636, 2.9570425001438707]	7.82	6.12	0.0	40hz	low_pain	45.7			sub-031	250	31	45.7	47.5	COM11	COM15	COM3	2024-04-17_10h04.57.004	001-EEG_SVR_Officel	2022.2.5	144.00693561459224		6.124000000000024	1_sub-pilot031_SVR_EEG_block3-4.protocol.csv	step27	3046	302.061	STIMULATE	45.6	45.6	45.6	45.8	45.9	27	1267.958
1271.194	0	635597	wait	20	2	0	2	0	13.0	0.0	13.0	0.0						1369.9211615000386	1375.4217291001696	1375.4217291001696	6.0	['6', 'return']	[3.1819249000400305, 3.9419883999507874]	5.49	5.61	1.0	20hz	high_pain	47.5			sub-031	250	31	45.7	47.5	COM11	COM15	COM3	2024-04-17_10h04.57.004	001-EEG_SVR_Officel	2022.2.5	144.00693561459224		9.86999999999989	1_sub-pilot031_SVR_EEG_block3-4.protocol.csv	step29	3258	323.037	STIMULATE	47.5	47.5	47.4	47.6	47.7	29	1288.934
1276.682	0	638341	20hz	6	2	0	2	0	13.0	0.0	13.0	0.0						1369.9211615000386	1375.4217291001696	1375.4217291001696	6.0	['6', 'return']	[3.1819249000400305, 3.9419883999507874]	5.49	5.61	1.0	20hz	high_pain	47.5			sub-031	250	31	45.7	47.5	COM11	COM15	COM3	2024-04-17_10h04.57.004	001-EEG_SVR_Officel	2022.2.5	144.00693561459224		5.488000000000056	1_sub-pilot031_SVR_EEG_block3-4.protocol.csv	step29	3258	323.037	STIMULATE	47.5	47.5	47.4	47.6	47.7	29	1288.934
1283.042	0	641521	20/Hi	4	2	0	2	0	13.0	0.0	13.0	0.0						1369.9211615000386	1375.4217291001696	1375.4217291001696	6.0	['6', 'return']	[3.1819249000400305, 3.9419883999507874]	5.49	5.61	1.0	20hz	high_pain	47.5			sub-031	250	31	45.7	47.5	COM11	COM15	COM3	2024-04-17_10h04.57.004	001-EEG_SVR_Officel	2022.2.5	144.00693561459224		5.6099999999999	1_sub-pilot031_SVR_EEG_block3-4.protocol.csv	step29	3258	323.037	STIMULATE	47.5	47.5	47.4	47.6	47.7	29	1288.934
1293.654	0	646827	wait	20	2	0	2	0	14.0	0.0	14.0	0.0						1392.3824794001412	1397.61224450008	1397.61224450008	4.5	['4', 'a', '5', 'return']	[2.631573300110176, 2.9037195001728833, 3.1107785999774933, 3.8799303001724184]	5.22	5.73	2.0	40hz	low_pain	45.7			sub-031	250	31	45.7	47.5	COM11	COM15	COM3	2024-04-17_10h04.57.004	001-EEG_SVR_Officel	2022.2.5	144.00693561459224		11.36200000000008	1_sub-pilot031_SVR_EEG_block3-4.protocol.csv	step31	3483	345.344	STIMULATE	45.6	45.6	45.6	45.6	45.8	31	1311.241
1298.872	0	649436	40hz	9	2	0	2	0	14.0	0.0	14.0	0.0						1392.3824794001412	1397.61224450008	1397.61224450008	4.5	['4', 'a', '5', 'return']	[2.631573300110176, 2.9037195001728833, 3.1107785999774933, 3.8799303001724184]	5.22	5.73	2.0	40hz	low_pain	45.7			sub-031	250	31	45.7	47.5	COM11	COM15	COM3	2024-04-17_10h04.57.004	001-EEG_SVR_Officel	2022.2.5	144.00693561459224		5.218000000000075	1_sub-pilot031_SVR_EEG_block3-4.protocol.csv	step31	3483	345.344	STIMULATE	45.6	45.6	45.6	45.6	45.8	31	1311.241
1305.356	0	652678	40/Lo	8	2	0	2	0	14.0	0.0	14.0	0.0						1392.3824794001412	1397.61224450008	1397.61224450008	4.5	['4', 'a', '5', 'return']	[2.631573300110176, 2.9037195001728833, 3.1107785999774933, 3.8799303001724184]	5.22	5.73	2.0	40hz	low_pain	45.7			sub-031	250	31	45.7	47.5	COM11	COM15	COM3	2024-04-17_10h04.57.004	001-EEG_SVR_Officel	2022.2.5	144.00693561459224		5.733999999999924	1_sub-pilot031_SVR_EEG_block3-4.protocol.csv	step31	3483	345.344	STIMULATE	45.6	45.6	45.6	45.6	45.8	31	1311.241
1315.774	0	657887	wait	20	2	0	2	0	15.0	0.0	15.0	0.0						1414.5027974001132	1420.614629900083	1420.614629900083	3.0	['3', 'return']	[4.572192899882793, 5.229517699917778]	6.1	5.94	3.0	controle	low_pain	45.7			sub-031	250	31	45.7	47.5	COM11	COM15	COM3	2024-04-17_10h04.57.004	001-EEG_SVR_Officel	2022.2.5	144.00693561459224		11.167999999999893	1_sub-pilot031_SVR_EEG_block3-4.protocol.csv	step33	3717	368.57	STIMULATE	45.7	45.6	45.6	45.6	45.7	33	1334.467
1321.874	0	660937	CNhz	12	2	0	2	0	15.0	0.0	15.0	0.0						1414.5027974001132	1420.614629900083	1420.614629900083	3.0	['3', 'return']	[4.572192899882793, 5.229517699917778]	6.1	5.94	3.0	controle	low_pain	45.7			sub-031	250	31	45.7	47.5	COM11	COM15	COM3	2024-04-17_10h04.57.004	001-EEG_SVR_Officel	2022.2.5	144.00693561459224		6.100000000000136	1_sub-pilot031_SVR_EEG_block3-4.protocol.csv	step33	3717	368.57	STIMULATE	45.7	45.6	45.6	45.6	45.7	33	1334.467
1328.566	0	664283	CN/Lo	11	2	0	2	0	15.0	0.0	15.0	0.0						1414.5027974001132	1420.614629900083	1420.614629900083	3.0	['3', 'return']	[4.572192899882793, 5.229517699917778]	6.1	5.94	3.0	controle	low_pain	45.7			sub-031	250	31	45.7	47.5	COM11	COM15	COM3	2024-04-17_10h04.57.004	001-EEG_SVR_Officel	2022.2.5	144.00693561459224		5.942000000000007	1_sub-pilot031_SVR_EEG_block3-4.protocol.csv	step33	3717	368.57	STIMULATE	45.7	45.6	45.6	45.6	45.7	33	1334.467
1418.112	0	709056	wait	20	3	0	3	0	0.0	0.0	0.0	0.0				p	0.4744971999898553	1516.8418464001734	1524.3845782000571	1524.3845782000571	6.0	['6', 'return']	[2.7160378999542445, 3.330464700004086]	7.53	6.32	0.0	controle	high_pain	47.5			sub-031	250	31	45.7	47.5	COM11	COM15	COM3	2024-04-17_10h04.57.004	001-EEG_SVR_Officel	2022.2.5	144.00693561459224		90.29600000000005	1_sub-pilot031_SVR_EEG_block3-4.protocol.csv	step35	4761	472.728	STIMULATE	47.5	47.4	47.4	47.5	47.8	35	1438.612
1425.642	0	712821	CNhz	12	3	0	3	0	0.0	0.0	0.0	0.0				p	0.4744971999898553	1516.8418464001734	1524.3845782000571	1524.3845782000571	6.0	['6', 'return']	[2.7160378999542445, 3.330464700004086]	7.53	6.32	0.0	controle	high_pain	47.5			sub-031	250	31	45.7	47.5	COM11	COM15	COM3	2024-04-17_10h04.57.004	001-EEG_SVR_Officel	2022.2.5	144.00693561459224		7.529999999999973	1_sub-pilot031_SVR_EEG_block3-4.protocol.csv	step35	4761	472.728	STIMULATE	47.5	47.4	47.4	47.5	47.8	35	1438.612
1432.71	0	716355	CN/Hi	10	3	0	3	0	0.0	0.0	0.0	0.0				p	0.4744971999898553	1516.8418464001734	1524.3845782000571	1524.3845782000571	6.0	['6', 'return']	[2.7160378999542445, 3.330464700004086]	7.53	6.32	0.0	controle	high_pain	47.5			sub-031	250	31	45.7	47.5	COM11	COM15	COM3	2024-04-17_10h04.57.004	001-EEG_SVR_Officel	2022.2.5	144.00693561459224		6.317999999999984	1_sub-pilot031_SVR_EEG_block3-4.protocol.csv	step35	4761	472.728	STIMULATE	47.5	47.4	47.4	47.5	47.8	35	1438.612
1441.996	0	720998	wait	20	3	0	3	0	1.0	0.0	1.0	0.0						1540.7256508001592	1545.9633937000765	1545.9633937000765	5.0	['5', 'return']	[2.99278760002926, 3.448462100001052]	5.23	5.68	1.0	10hz	low_pain	45.7			sub-031	250	31	45.7	47.5	COM11	COM15	COM3	2024-04-17_10h04.57.004	001-EEG_SVR_Officel	2022.2.5	144.00693561459224		10.036000000000058	1_sub-pilot031_SVR_EEG_block3-4.protocol.csv	step37	4973	493.736	STIMULATE	45.7	45.6	45.6	45.6	45.7	37	1459.62
1447.222	0	723611	10hz	3	3	0	3	0	1.0	0.0	1.0	0.0						1540.7256508001592	1545.9633937000765	1545.9633937000765	5.0	['5', 'return']	[2.99278760002926, 3.448462100001052]	5.23	5.68	1.0	10hz	low_pain	45.7			sub-031	250	31	45.7	47.5	COM11	COM15	COM3	2024-04-17_10h04.57.004	001-EEG_SVR_Officel	2022.2.5	144.00693561459224		5.225999999999885	1_sub-pilot031_SVR_EEG_block3-4.protocol.csv	step37	4973	493.736	STIMULATE	45.7	45.6	45.6	45.6	45.7	37	1459.62
1453.65	0	726825	10/Lo	2	3	0	3	0	1.0	0.0	1.0	0.0						1540.7256508001592	1545.9633937000765	1545.9633937000765	5.0	['5', 'return']	[2.99278760002926, 3.448462100001052]	5.23	5.68	1.0	10hz	low_pain	45.7			sub-031	250	31	45.7	47.5	COM11	COM15	COM3	2024-04-17_10h04.57.004	001-EEG_SVR_Officel	2022.2.5	144.00693561459224		5.678000000000111	1_sub-pilot031_SVR_EEG_block3-4.protocol.csv	step37	4973	493.736	STIMULATE	45.7	45.6	45.6	45.6	45.7	37	1459.62
1463.694	0	731847	wait	20	3	0	3	0	2.0	0.0	2.0	0.0						1562.422939500073	1568.5144214001484	1568.5144214001484	7.0	['7', 'return']	[2.0573614998720586, 2.5694146000314504]	6.08	6.09	2.0	10hz	high_pain	47.5			sub-031	250	31	45.7	47.5	COM11	COM15	COM3	2024-04-17_10h04.57.004	001-EEG_SVR_Officel	2022.2.5	144.00693561459224		10.793999999999869	1_sub-pilot031_SVR_EEG_block3-4.protocol.csv	step39	5203	516.564	STIMULATE	47.5	47.4	47.5	47.5	47.7	39	1482.4479999999999
1469.772	0	734886	10hz	3	3	0	3	0	2.0	0.0	2.0	0.0						1562.422939500073	1568.5144214001484	1568.5144214001484	7.0	['7', 'return']	[2.0573614998720586, 2.5694146000314504]	6.08	6.09	2.0	10hz	high_pain	47.5			sub-031	250	31	45.7	47.5	COM11	COM15	COM3	2024-04-17_10h04.57.004	001-EEG_SVR_Officel	2022.2.5	144.00693561459224		6.0779999999999745	1_sub-pilot031_SVR_EEG_block3-4.protocol.csv	step39	5203	516.564	STIMULATE	47.5	47.4	47.5	47.5	47.7	39	1482.4479999999999
1476.612	0	738306	10/Hi	1	3	0	3	0	2.0	0.0	2.0	0.0						1562.422939500073	1568.5144214001484	1568.5144214001484	7.0	['7', 'return']	[2.0573614998720586, 2.5694146000314504]	6.08	6.09	2.0	10hz	high_pain	47.5			sub-031	250	31	45.7	47.5	COM11	COM15	COM3	2024-04-17_10h04.57.004	001-EEG_SVR_Officel	2022.2.5	144.00693561459224		6.0900000000001455	1_sub-pilot031_SVR_EEG_block3-4.protocol.csv	step39	5203	516.564	STIMULATE	47.5	47.4	47.5	47.5	47.7	39	1482.4479999999999
1485.368	0	742684	wait	20	3	0	3	0	3.0	0.0	3.0	0.0						1584.0999070999678	1591.0309868999757	1591.0309868999757	7.0	['7', 'return']	[1.8765368999447674, 2.4373474998865277]	6.92	5.85	3.0	40hz	high_pain	47.5			sub-031	250	31	45.7	47.5	COM11	COM15	COM3	2024-04-17_10h04.57.004	001-EEG_SVR_Officel	2022.2.5	144.00693561459224		9.505999999999858	1_sub-pilot031_SVR_EEG_block3-4.protocol.csv	step41	5429	538.931	STIMULATE	47.5	47.4	47.5	47.5	47.5	41	1504.815
1492.29	0	746145	40hz	9	3	0	3	0	3.0	0.0	3.0	0.0						1584.0999070999678	1591.0309868999757	1591.0309868999757	7.0	['7', 'return']	[1.8765368999447674, 2.4373474998865277]	6.92	5.85	3.0	40hz	high_pain	47.5			sub-031	250	31	45.7	47.5	COM11	COM15	COM3	2024-04-17_10h04.57.004	001-EEG_SVR_Officel	2022.2.5	144.00693561459224		6.9220000000000255	1_sub-pilot031_SVR_EEG_block3-4.protocol.csv	step41	5429	538.931	STIMULATE	47.5	47.4	47.5	47.5	47.5	41	1504.815
1498.892	0	749446	40/Hi	7	3	0	3	0	3.0	0.0	3.0	0.0						1584.0999070999678	1591.0309868999757	1591.0309868999757	7.0	['7', 'return']	[1.8765368999447674, 2.4373474998865277]	6.92	5.85	3.0	40hz	high_pain	47.5			sub-031	250	31	45.7	47.5	COM11	COM15	COM3	2024-04-17_10h04.57.004	001-EEG_SVR_Officel	2022.2.5	144.00693561459224		5.852000000000089	1_sub-pilot031_SVR_EEG_block3-4.protocol.csv	step41	5429	538.931	STIMULATE	47.5	47.4	47.5	47.5	47.5	41	1504.815
1507.748	0	753874	wait	20	3	0	3	0	4.0	0.0	4.0	0.0						1606.4770113001578	1611.7072438001633	1611.7072438001633	7.0	['7', 'return']	[2.2795927999541163, 2.823611400090158]	5.22	5.26	0.0	10hz	high_pain	47.5			sub-031	250	31	45.7	47.5	COM11	COM15	COM3	2024-04-17_10h04.57.004	001-EEG_SVR_Officel	2022.2.5	144.00693561459224		9.605999999999995	1_sub-pilot031_SVR_EEG_block3-4.protocol.csv	step43	5631	558.979	STIMULATE	47.5	47.5	47.5	47.5	47.7	43	1524.863
1512.966	0	756483	10hz	3	3	0	3	0	4.0	0.0	4.0	0.0						1606.4770113001578	1611.7072438001633	1611.7072438001633	7.0	['7', 'return']	[2.2795927999541163, 2.823611400090158]	5.22	5.26	0.0	10hz	high_pain	47.5			sub-031	250	31	45.7	47.5	COM11	COM15	COM3	2024-04-17_10h04.57.004	001-EEG_SVR_Officel	2022.2.5	144.00693561459224		5.217999999999847	1_sub-pilot031_SVR_EEG_block3-4.protocol.csv	step43	5631	558.979	STIMULATE	47.5	47.5	47.5	47.5	47.7	43	1524.863
1518.978	0	759489	10/Hi	1	3	0	3	0	4.0	0.0	4.0	0.0						1606.4770113001578	1611.7072438001633	1611.7072438001633	7.0	['7', 'return']	[2.2795927999541163, 2.823611400090158]	5.22	5.26	0.0	10hz	high_pain	47.5			sub-031	250	31	45.7	47.5	COM11	COM15	COM3	2024-04-17_10h04.57.004	001-EEG_SVR_Officel	2022.2.5	144.00693561459224		5.262000000000171	1_sub-pilot031_SVR_EEG_block3-4.protocol.csv	step43	5631	558.979	STIMULATE	47.5	47.5	47.5	47.5	47.7	43	1524.863
1528.82	0	764410	wait	20	3	0	3	0	5.0	0.0	5.0	0.0						1627.549755500164	1634.1014700001106	1634.1014700001106	4.0	['4', 'return']	[2.0243541998788714, 2.760241699870676]	6.54	5.82	1.0	controle	low_pain	45.7			sub-031	250	31	45.7	47.5	COM11	COM15	COM3	2024-04-17_10h04.57.004	001-EEG_SVR_Officel	2022.2.5	144.00693561459224		10.59199999999987	1_sub-pilot031_SVR_EEG_block3-4.protocol.csv	step45	5863	581.923	STIMULATE	45.7	45.6	45.6	45.7	45.9	45	1547.807
1535.356	0	767678	CNhz	12	3	0	3	0	5.0	0.0	5.0	0.0						1627.549755500164	1634.1014700001106	1634.1014700001106	4.0	['4', 'return']	[2.0243541998788714, 2.760241699870676]	6.54	5.82	1.0	controle	low_pain	45.7			sub-031	250	31	45.7	47.5	COM11	COM15	COM3	2024-04-17_10h04.57.004	001-EEG_SVR_Officel	2022.2.5	144.00693561459224		6.536000000000058	1_sub-pilot031_SVR_EEG_block3-4.protocol.csv	step45	5863	581.923	STIMULATE	45.7	45.6	45.6	45.7	45.9	45	1547.807
1541.924	0	770962	CN/Lo	11	3	0	3	0	5.0	0.0	5.0	0.0						1627.549755500164	1634.1014700001106	1634.1014700001106	4.0	['4', 'return']	[2.0243541998788714, 2.760241699870676]	6.54	5.82	1.0	controle	low_pain	45.7			sub-031	250	31	45.7	47.5	COM11	COM15	COM3	2024-04-17_10h04.57.004	001-EEG_SVR_Officel	2022.2.5	144.00693561459224		5.817999999999984	1_sub-pilot031_SVR_EEG_block3-4.protocol.csv	step45	5863	581.923	STIMULATE	45.7	45.6	45.6	45.7	45.9	45	1547.807
1551.148	0	775574	wait	20	3	0	3	0	6.0	0.0	6.0	0.0						1649.8784765000455	1655.969747000141	1655.969747000141	6.5	['6', 'a', '5', 'return']	[1.7140416998881847, 1.9702618999872357, 2.1784727999474853, 2.8678325000219047]	6.08	5.54	2.0	20hz	high_pain	47.5			sub-031	250	31	45.7	47.5	COM11	COM15	COM3	2024-04-17_10h04.57.004	001-EEG_SVR_Officel	2022.2.5	144.00693561459224		9.973999999999933	1_sub-pilot031_SVR_EEG_block3-4.protocol.csv	step47	6081	603.537	STIMULATE	47.5	47.5	47.5	47.5	47.5	47	1569.421
1557.228	0	778614	20hz	6	3	0	3	0	6.0	0.0	6.0	0.0						1649.8784765000455	1655.969747000141	1655.969747000141	6.5	['6', 'a', '5', 'return']	[1.7140416998881847, 1.9702618999872357, 2.1784727999474853, 2.8678325000219047]	6.08	5.54	2.0	20hz	high_pain	47.5			sub-031	250	31	45.7	47.5	COM11	COM15	COM3	2024-04-17_10h04.57.004	001-EEG_SVR_Officel	2022.2.5	144.00693561459224		6.080000000000155	1_sub-pilot031_SVR_EEG_block3-4.protocol.csv	step47	6081	603.537	STIMULATE	47.5	47.5	47.5	47.5	47.5	47	1569.421
1563.518	0	781759	20/Hi	4	3	0	3	0	6.0	0.0	6.0	0.0						1649.8784765000455	1655.969747000141	1655.969747000141	6.5	['6', 'a', '5', 'return']	[1.7140416998881847, 1.9702618999872357, 2.1784727999474853, 2.8678325000219047]	6.08	5.54	2.0	20hz	high_pain	47.5			sub-031	250	31	45.7	47.5	COM11	COM15	COM3	2024-04-17_10h04.57.004	001-EEG_SVR_Officel	2022.2.5	144.00693561459224		5.539999999999964	1_sub-pilot031_SVR_EEG_block3-4.protocol.csv	step47	6081	603.537	STIMULATE	47.5	47.5	47.5	47.5	47.5	47	1569.421
1573.116	0	786558	wait	20	3	0	3	0	7.0	0.0	7.0	0.0						1671.846247700043	1677.2289023001213	1677.2289023001213	3.0	['3', 'return']	[2.1420740999747068, 2.903520599938929]	5.37	6.13	3.0	20hz	low_pain	45.7			sub-031	250	31	45.7	47.5	COM11	COM15	COM3	2024-04-17_10h04.57.004	001-EEG_SVR_Officel	2022.2.5	144.00693561459224		10.347999999999956	1_sub-pilot031_SVR_EEG_block3-4.protocol.csv	step49	6301	625.35	STIMULATE	45.7	45.6	45.6	45.7	45.7	49	1591.234
1578.486	0	789243	20hz	6	3	0	3	0	7.0	0.0	7.0	0.0						1671.846247700043	1677.2289023001213	1677.2289023001213	3.0	['3', 'return']	[2.1420740999747068, 2.903520599938929]	5.37	6.13	3.0	20hz	low_pain	45.7			sub-031	250	31	45.7	47.5	COM11	COM15	COM3	2024-04-17_10h04.57.004	001-EEG_SVR_Officel	2022.2.5	144.00693561459224		5.370000000000118	1_sub-pilot031_SVR_EEG_block3-4.protocol.csv	step49	6301	625.35	STIMULATE	45.7	45.6	45.6	45.7	45.7	49	1591.234
1585.368	0	792684	20/Lo	5	3	0	3	0	7.0	0.0	7.0	0.0						1671.846247700043	1677.2289023001213	1677.2289023001213	3.0	['3', 'return']	[2.1420740999747068, 2.903520599938929]	5.37	6.13	3.0	20hz	low_pain	45.7			sub-031	250	31	45.7	47.5	COM11	COM15	COM3	2024-04-17_10h04.57.004	001-EEG_SVR_Officel	2022.2.5	144.00693561459224		6.1319999999998345	1_sub-pilot031_SVR_EEG_block3-4.protocol.csv	step49	6301	625.35	STIMULATE	45.7	45.6	45.6	45.7	45.7	49	1591.234
1594.424	0	797212	wait	20	3	0	3	0	8.0	0.0	8.0	0.0						1693.154380599968	1698.3842195000034	1698.3842195000034	7.0	['7', 'return']	[2.5876038998831064, 3.075561099918559]	5.22	6.2	0.0	40hz	high_pain	47.5			sub-031	250	31	45.7	47.5	COM11	COM15	COM3	2024-04-17_10h04.57.004	001-EEG_SVR_Officel	2022.2.5	144.00693561459224		9.80600000000004	1_sub-pilot031_SVR_EEG_block3-4.protocol.csv	step51	6516	646.639	STIMULATE	47.5	47.4	47.5	47.5	47.7	51	1612.5230000000001
1599.642	0	799821	40hz	9	3	0	3	0	8.0	0.0	8.0	0.0						1693.154380599968	1698.3842195000034	1698.3842195000034	7.0	['7', 'return']	[2.5876038998831064, 3.075561099918559]	5.22	6.2	0.0	40hz	high_pain	47.5			sub-031	250	31	45.7	47.5	COM11	COM15	COM3	2024-04-17_10h04.57.004	001-EEG_SVR_Officel	2022.2.5	144.00693561459224		5.218000000000075	1_sub-pilot031_SVR_EEG_block3-4.protocol.csv	step51	6516	646.639	STIMULATE	47.5	47.4	47.5	47.5	47.7	51	1612.5230000000001
1606.592	0	803296	40/Hi	7	3	0	3	0	8.0	0.0	8.0	0.0						1693.154380599968	1698.3842195000034	1698.3842195000034	7.0	['7', 'return']	[2.5876038998831064, 3.075561099918559]	5.22	6.2	0.0	40hz	high_pain	47.5			sub-031	250	31	45.7	47.5	COM11	COM15	COM3	2024-04-17_10h04.57.004	001-EEG_SVR_Officel	2022.2.5	144.00693561459224		6.2000000000000455	1_sub-pilot031_SVR_EEG_block3-4.protocol.csv	step51	6516	646.639	STIMULATE	47.5	47.4	47.5	47.5	47.7	51	1612.5230000000001
1615.746	0	807873	wait	20	3	0	3	0	9.0	0.0	9.0	0.0						1714.4764918000435	1719.7826894000173	1719.7826894000173	7.2	['7', 'a', '2', 'return']	[2.5491530001163483, 2.9816248000133783, 3.3407471000682563, 3.9900452999863774]	5.3	6.23	1.0	controle	high_pain	47.5			sub-031	250	31	45.7	47.5	COM11	COM15	COM3	2024-04-17_10h04.57.004	001-EEG_SVR_Officel	2022.2.5	144.00693561459224		9.903999999999996	1_sub-pilot031_SVR_EEG_block3-4.protocol.csv	step53	6732	668.083	STIMULATE	47.5	47.4	47.5	47.5	47.7	53	1633.967
1621.04	0	810520	CNhz	12	3	0	3	0	9.0	0.0	9.0	0.0						1714.4764918000435	1719.7826894000173	1719.7826894000173	7.2	['7', 'a', '2', 'return']	[2.5491530001163483, 2.9816248000133783, 3.3407471000682563, 3.9900452999863774]	5.3	6.23	1.0	controle	high_pain	47.5			sub-031	250	31	45.7	47.5	COM11	COM15	COM3	2024-04-17_10h04.57.004	001-EEG_SVR_Officel	2022.2.5	144.00693561459224		5.293999999999869	1_sub-pilot031_SVR_EEG_block3-4.protocol.csv	step53	6732	668.083	STIMULATE	47.5	47.4	47.5	47.5	47.7	53	1633.967
1628.024	0	814012	CN/Hi	10	3	0	3	0	9.0	0.0	9.0	0.0						1714.4764918000435	1719.7826894000173	1719.7826894000173	7.2	['7', 'a', '2', 'return']	[2.5491530001163483, 2.9816248000133783, 3.3407471000682563, 3.9900452999863774]	5.3	6.23	1.0	controle	high_pain	47.5			sub-031	250	31	45.7	47.5	COM11	COM15	COM3	2024-04-17_10h04.57.004	001-EEG_SVR_Officel	2022.2.5	144.00693561459224		6.233999999999924	1_sub-pilot031_SVR_EEG_block3-4.protocol.csv	step53	6732	668.083	STIMULATE	47.5	47.4	47.5	47.5	47.7	53	1633.967
1638.06	0	819030	wait	20	3	0	3	0	10.0	0.0	10.0	0.0						1736.791628099978	1741.9313827999867	1741.9313827999867	5.0	['5', 'return']	[2.4570186000782996, 3.1202070999424905]	5.13	6.11	2.0	20hz	low_pain	45.7			sub-031	250	31	45.7	47.5	COM11	COM15	COM3	2024-04-17_10h04.57.004	001-EEG_SVR_Officel	2022.2.5	144.00693561459224		10.786000000000058	1_sub-pilot031_SVR_EEG_block3-4.protocol.csv	step55	6954	690.105	STIMULATE	45.7	45.6	45.6	45.6	45.9	55	1655.989
1643.188	0	821594	20hz	6	3	0	3	0	10.0	0.0	10.0	0.0						1736.791628099978	1741.9313827999867	1741.9313827999867	5.0	['5', 'return']	[2.4570186000782996, 3.1202070999424905]	5.13	6.11	2.0	20hz	low_pain	45.7			sub-031	250	31	45.7	47.5	COM11	COM15	COM3	2024-04-17_10h04.57.004	001-EEG_SVR_Officel	2022.2.5	144.00693561459224		5.128000000000156	1_sub-pilot031_SVR_EEG_block3-4.protocol.csv	step55	6954	690.105	STIMULATE	45.7	45.6	45.6	45.6	45.9	55	1655.989
1650.048	0	825024	20/Lo	5	3	0	3	0	10.0	0.0	10.0	0.0						1736.791628099978	1741.9313827999867	1741.9313827999867	5.0	['5', 'return']	[2.4570186000782996, 3.1202070999424905]	5.13	6.11	2.0	20hz	low_pain	45.7			sub-031	250	31	45.7	47.5	COM11	COM15	COM3	2024-04-17_10h04.57.004	001-EEG_SVR_Officel	2022.2.5	144.00693561459224		6.1099999999999	1_sub-pilot031_SVR_EEG_block3-4.protocol.csv	step55	6954	690.105	STIMULATE	45.7	45.6	45.6	45.6	45.9	55	1655.989
1659.342	0	829671	wait	20	3	0	3	0	11.0	0.0	11.0	0.0						1758.0723388001788	1765.6287644000258	1765.6287644000258	7.0	['7', 'return']	[1.9191349998582155, 2.4878495999146253]	7.55	6.37	3.0	controle	high_pain	47.5			sub-031	250	31	45.7	47.5	COM11	COM15	COM3	2024-04-17_10h04.57.004	001-EEG_SVR_Officel	2022.2.5	144.00693561459224		10.044000000000096	1_sub-pilot031_SVR_EEG_block3-4.protocol.csv	step57	7195	713.946	STIMULATE	47.5	47.4	47.5	47.5	47.7	57	1679.83
1666.886	0	833443	CNhz	12	3	0	3	0	11.0	0.0	11.0	0.0						1758.0723388001788	1765.6287644000258	1765.6287644000258	7.0	['7', 'return']	[1.9191349998582155, 2.4878495999146253]	7.55	6.37	3.0	controle	high_pain	47.5			sub-031	250	31	45.7	47.5	COM11	COM15	COM3	2024-04-17_10h04.57.004	001-EEG_SVR_Officel	2022.2.5	144.00693561459224		7.543999999999869	1_sub-pilot031_SVR_EEG_block3-4.protocol.csv	step57	7195	713.946	STIMULATE	47.5	47.4	47.5	47.5	47.7	57	1679.83
1674.01	0	837005	CN/Hi	10	3	0	3	0	11.0	0.0	11.0	0.0						1758.0723388001788	1765.6287644000258	1765.6287644000258	7.0	['7', 'return']	[1.9191349998582155, 2.4878495999146253]	7.55	6.37	3.0	controle	high_pain	47.5			sub-031	250	31	45.7	47.5	COM11	COM15	COM3	2024-04-17_10h04.57.004	001-EEG_SVR_Officel	2022.2.5	144.00693561459224		6.374000000000024	1_sub-pilot031_SVR_EEG_block3-4.protocol.csv	step57	7195	713.946	STIMULATE	47.5	47.4	47.5	47.5	47.7	57	1679.83
1682.398	0	841199	wait	20	3	0	3	0	12.0	0.0	12.0	0.0						1781.1296695000492	1788.4783307001926	1788.4783307001926	3.0	['3', 'return']	[2.5579578999895602, 4.245379199972376]	7.34	5.21	0.0	controle	low_pain	45.7			sub-031	250	31	45.7	47.5	COM11	COM15	COM3	2024-04-17_10h04.57.004	001-EEG_SVR_Officel	2022.2.5	144.00693561459224		9.13799999999992	1_sub-pilot031_SVR_EEG_block3-4.protocol.csv	step59	7414	735.718	STIMULATE	45.6	45.6	45.6	45.6	45.8	59	1701.6019999999999
1689.734	0	844867	CNhz	12	3	0	3	0	12.0	0.0	12.0	0.0						1781.1296695000492	1788.4783307001926	1788.4783307001926	3.0	['3', 'return']	[2.5579578999895602, 4.245379199972376]	7.34	5.21	0.0	controle	low_pain	45.7			sub-031	250	31	45.7	47.5	COM11	COM15	COM3	2024-04-17_10h04.57.004	001-EEG_SVR_Officel	2022.2.5	144.00693561459224		7.336000000000013	1_sub-pilot031_SVR_EEG_block3-4.protocol.csv	step59	7414	735.718	STIMULATE	45.6	45.6	45.6	45.6	45.8	59	1701.6019999999999
1695.7	0	847850	CN/Lo	11	3	0	3	0	12.0	0.0	12.0	0.0						1781.1296695000492	1788.4783307001926	1788.4783307001926	3.0	['3', 'return']	[2.5579578999895602, 4.245379199972376]	7.34	5.21	0.0	controle	low_pain	45.7			sub-031	250	31	45.7	47.5	COM11	COM15	COM3	2024-04-17_10h04.57.004	001-EEG_SVR_Officel	2022.2.5	144.00693561459224		5.216000000000122	1_sub-pilot031_SVR_EEG_block3-4.protocol.csv	step59	7414	735.718	STIMULATE	45.6	45.6	45.6	45.6	45.8	59	1701.6019999999999
1707.006	0	853503	wait	20	3	0	3	0	13.0	0.0	13.0	0.0						1805.736795600038	1813.363244000124	1813.363244000124	5.0	['5', 'return']	[2.7445482001639903, 3.312972400104627]	7.62	5.67	1.0	40hz	low_pain	45.7			sub-031	250	31	45.7	47.5	COM11	COM15	COM3	2024-04-17_10h04.57.004	001-EEG_SVR_Officel	2022.2.5	144.00693561459224		12.05600000000004	1_sub-pilot031_SVR_EEG_block3-4.protocol.csv	step61	7669	761.016	STIMULATE	45.6	45.6	45.6	45.6	45.7	61	1726.9
1714.62	0	857310	40hz	9	3	0	3	0	13.0	0.0	13.0	0.0						1805.736795600038	1813.363244000124	1813.363244000124	5.0	['5', 'return']	[2.7445482001639903, 3.312972400104627]	7.62	5.67	1.0	40hz	low_pain	45.7			sub-031	250	31	45.7	47.5	COM11	COM15	COM3	2024-04-17_10h04.57.004	001-EEG_SVR_Officel	2022.2.5	144.00693561459224		7.613999999999805	1_sub-pilot031_SVR_EEG_block3-4.protocol.csv	step61	7669	761.016	STIMULATE	45.6	45.6	45.6	45.6	45.7	61	1726.9
1721.042	0	860521	40/Lo	8	3	0	3	0	13.0	0.0	13.0	0.0						1805.736795600038	1813.363244000124	1813.363244000124	5.0	['5', 'return']	[2.7445482001639903, 3.312972400104627]	7.62	5.67	1.0	40hz	low_pain	45.7			sub-031	250	31	45.7	47.5	COM11	COM15	COM3	2024-04-17_10h04.57.004	001-EEG_SVR_Officel	2022.2.5	144.00693561459224		5.6720000000000255	1_sub-pilot031_SVR_EEG_block3-4.protocol.csv	step61	7669	761.016	STIMULATE	45.6	45.6	45.6	45.6	45.7	61	1726.9
1730.954	0	865477	wait	20	3	0	3	0	14.0	0.0	14.0	0.0						1829.6851391000675	1836.9355200000573	1836.9355200000573	5.5	['5', 'a', '5', 'return']	[3.4911280998494476, 3.7871341998688877, 3.9392084998544306, 4.532549999887124]	7.24	5.65	2.0	controle	low_pain	45.7			sub-031	250	31	45.7	47.5	COM11	COM15	COM3	2024-04-17_10h04.57.004	001-EEG_SVR_Officel	2022.2.5	144.00693561459224		10.662000000000035	1_sub-pilot031_SVR_EEG_block3-4.protocol.csv	step63	7902	784.702	STIMULATE	45.6	45.6	45.6	45.6	45.7	63	1750.586
1738.192	0	869096	CNhz	12	3	0	3	0	14.0	0.0	14.0	0.0						1829.6851391000675	1836.9355200000573	1836.9355200000573	5.5	['5', 'a', '5', 'return']	[3.4911280998494476, 3.7871341998688877, 3.9392084998544306, 4.532549999887124]	7.24	5.65	2.0	controle	low_pain	45.7			sub-031	250	31	45.7	47.5	COM11	COM15	COM3	2024-04-17_10h04.57.004	001-EEG_SVR_Officel	2022.2.5	144.00693561459224		7.238000000000056	1_sub-pilot031_SVR_EEG_block3-4.protocol.csv	step63	7902	784.702	STIMULATE	45.6	45.6	45.6	45.6	45.7	63	1750.586
1744.594	0	872297	CN/Lo	11	3	0	3	0	14.0	0.0	14.0	0.0						1829.6851391000675	1836.9355200000573	1836.9355200000573	5.5	['5', 'a', '5', 'return']	[3.4911280998494476, 3.7871341998688877, 3.9392084998544306, 4.532549999887124]	7.24	5.65	2.0	controle	low_pain	45.7			sub-031	250	31	45.7	47.5	COM11	COM15	COM3	2024-04-17_10h04.57.004	001-EEG_SVR_Officel	2022.2.5	144.00693561459224		5.652000000000044	1_sub-pilot031_SVR_EEG_block3-4.protocol.csv	step63	7902	784.702	STIMULATE	45.6	45.6	45.6	45.6	45.7	63	1750.586
1755.754	0	877877	wait	20	3	0	3	0	15.0	0.0	15.0	0.0						1854.486272400012	1861.924632600043	1861.924632600043	7.0	['7', 'return']	[2.4772407999262214, 2.9492671999614686]	7.43	5.24	3.0	20hz	high_pain	47.5			sub-031	250	31	45.7	47.5	COM11	COM15	COM3	2024-04-17_10h04.57.004	001-EEG_SVR_Officel	2022.2.5	144.00693561459224		11.909999999999854	1_sub-pilot031_SVR_EEG_block3-4.protocol.csv	step65	8140	809.182	STIMULATE	47.5	47.4	47.5	47.5	47.5	65	1775.066
1763.18	0	881590	20hz	6	3	0	3	0	15.0	0.0	15.0	0.0						1854.486272400012	1861.924632600043	1861.924632600043	7.0	['7', 'return']	[2.4772407999262214, 2.9492671999614686]	7.43	5.24	3.0	20hz	high_pain	47.5			sub-031	250	31	45.7	47.5	COM11	COM15	COM3	2024-04-17_10h04.57.004	001-EEG_SVR_Officel	2022.2.5	144.00693561459224		7.426000000000158	1_sub-pilot031_SVR_EEG_block3-4.protocol.csv	step65	8140	809.182	STIMULATE	47.5	47.4	47.5	47.5	47.5	65	1775.066
1769.174	0	884587	20/Hi	4	3	0	3	0	15.0	0.0	15.0	0.0						1854.486272400012	1861.924632600043	1861.924632600043	7.0	['7', 'return']	[2.4772407999262214, 2.9492671999614686]	7.43	5.24	3.0	20hz	high_pain	47.5			sub-031	250	31	45.7	47.5	COM11	COM15	COM3	2024-04-17_10h04.57.004	001-EEG_SVR_Officel	2022.2.5	144.00693561459224		5.2439999999999145	1_sub-pilot031_SVR_EEG_block3-4.protocol.csv	step65	8140	809.182	STIMULATE	47.5	47.4	47.5	47.5	47.5	65	1775.066
1842.44	0	921220	wait	20	4	0	4	0	0.0	0.0	0.0	0.0				p	2.112180999945849	1941.1708535000216	1948.157300800085	1948.157300800085	7.0	['7', 'return']	[2.6516178001184016, 3.1319486000575125]	6.98	5.36	0.0	40hz	high_pain	47.5			sub-031	250	31	45.7	47.5	COM11	COM15	COM3	2024-04-17_10h04.57.004	001-EEG_SVR_Officel	2022.2.5	144.00693561459224		74.01600000000008	2_sub-pilot031_SVR_EEG_block5-6.protocol.csv	step3	744	74.21	STIMULATE	47.5	47.4	47.5	47.4	47.6	3	1861.4119999999998
1849.414	0	924707	40hz	9	4	0	4	0	0.0	0.0	0.0	0.0				p	2.112180999945849	1941.1708535000216	1948.157300800085	1948.157300800085	7.0	['7', 'return']	[2.6516178001184016, 3.1319486000575125]	6.98	5.36	0.0	40hz	high_pain	47.5			sub-031	250	31	45.7	47.5	COM11	COM15	COM3	2024-04-17_10h04.57.004	001-EEG_SVR_Officel	2022.2.5	144.00693561459224		6.973999999999933	2_sub-pilot031_SVR_EEG_block5-6.protocol.csv	step3	744	74.21	STIMULATE	47.5	47.4	47.5	47.4	47.6	3	1861.4119999999998
1855.524	0	927762	40/Hi	7	4	0	4	0	0.0	0.0	0.0	0.0				p	2.112180999945849	1941.1708535000216	1948.157300800085	1948.157300800085	7.0	['7', 'return']	[2.6516178001184016, 3.1319486000575125]	6.98	5.36	0.0	40hz	high_pain	47.5			sub-031	250	31	45.7	47.5	COM11	COM15	COM3	2024-04-17_10h04.57.004	001-EEG_SVR_Officel	2022.2.5	144.00693561459224		5.3599999999999	2_sub-pilot031_SVR_EEG_block5-6.protocol.csv	step3	744	74.21	STIMULATE	47.5	47.4	47.5	47.4	47.6	3	1861.4119999999998
1865.588	0	932794	wait	20	4	0	4	0	1.0	0.0	1.0	0.0						1964.3194222999737	1970.7156201000323	1970.7156201000323	5.5	['5', 'a', '5', 'return']	[2.5041221000719815, 2.8633256999310106, 3.070972800021991, 3.862979199970141]	6.39	5.56	1.0	20hz	low_pain	45.7			sub-031	250	31	45.7	47.5	COM11	COM15	COM3	2024-04-17_10h04.57.004	001-EEG_SVR_Officel	2022.2.5	144.00693561459224		10.814000000000078	2_sub-pilot031_SVR_EEG_block5-6.protocol.csv	step5	973	96.95	STIMULATE	45.6	45.6	45.6	45.6	45.7	5	1884.1519999999998
1871.972	0	935986	20hz	6	4	0	4	0	1.0	0.0	1.0	0.0						1964.3194222999737	1970.7156201000323	1970.7156201000323	5.5	['5', 'a', '5', 'return']	[2.5041221000719815, 2.8633256999310106, 3.070972800021991, 3.862979199970141]	6.39	5.56	1.0	20hz	low_pain	45.7			sub-031	250	31	45.7	47.5	COM11	COM15	COM3	2024-04-17_10h04.57.004	001-EEG_SVR_Officel	2022.2.5	144.00693561459224		6.3840000000000146	2_sub-pilot031_SVR_EEG_block5-6.protocol.csv	step5	973	96.95	STIMULATE	45.6	45.6	45.6	45.6	45.7	5	1884.1519999999998
1878.282	0	939141	20/Lo	5	4	0	4	0	1.0	0.0	1.0	0.0						1964.3194222999737	1970.7156201000323	1970.7156201000323	5.5	['5', 'a', '5', 'return']	[2.5041221000719815, 2.8633256999310106, 3.070972800021991, 3.862979199970141]	6.39	5.56	1.0	20hz	low_pain	45.7			sub-031	250	31	45.7	47.5	COM11	COM15	COM3	2024-04-17_10h04.57.004	001-EEG_SVR_Officel	2022.2.5	144.00693561459224		5.559999999999945	2_sub-pilot031_SVR_EEG_block5-6.protocol.csv	step5	973	96.95	STIMULATE	45.6	45.6	45.6	45.6	45.7	5	1884.1519999999998
1888.86	0	944430	wait	20	4	0	4	0	2.0	0.0	2.0	0.0						1987.59282180015	1994.781506099971	1994.781506099971	6.0	['6', 'return']	[3.6710028001107275, 4.455661300104111]	7.18	6.07	2.0	20hz	low_pain	45.7			sub-031	250	31	45.7	47.5	COM11	COM15	COM3	2024-04-17_10h04.57.004	001-EEG_SVR_Officel	2022.2.5	144.00693561459224		11.327999999999975	2_sub-pilot031_SVR_EEG_block5-6.protocol.csv	step7	1221	121.507	STIMULATE	45.7	45.6	45.6	45.6	45.7	7	1908.7089999999998
1896.036	0	948018	20hz	6	4	0	4	0	2.0	0.0	2.0	0.0						1987.59282180015	1994.781506099971	1994.781506099971	6.0	['6', 'return']	[3.6710028001107275, 4.455661300104111]	7.18	6.07	2.0	20hz	low_pain	45.7			sub-031	250	31	45.7	47.5	COM11	COM15	COM3	2024-04-17_10h04.57.004	001-EEG_SVR_Officel	2022.2.5	144.00693561459224		7.176000000000158	2_sub-pilot031_SVR_EEG_block5-6.protocol.csv	step7	1221	121.507	STIMULATE	45.7	45.6	45.6	45.6	45.7	7	1908.7089999999998
1902.854	0	951427	20/Lo	5	4	0	4	0	2.0	0.0	2.0	0.0						1987.59282180015	1994.781506099971	1994.781506099971	6.0	['6', 'return']	[3.6710028001107275, 4.455661300104111]	7.18	6.07	2.0	20hz	low_pain	45.7			sub-031	250	31	45.7	47.5	COM11	COM15	COM3	2024-04-17_10h04.57.004	001-EEG_SVR_Officel	2022.2.5	144.00693561459224		6.067999999999984	2_sub-pilot031_SVR_EEG_block5-6.protocol.csv	step7	1221	121.507	STIMULATE	45.7	45.6	45.6	45.6	45.7	7	1908.7089999999998
1913.522	0	956761	wait	20	4	0	4	0	3.0	0.0	3.0	0.0						2012.255300299963	2019.6520452001128	2019.6520452001128	7.2	['7', 'a', '2', 'return']	[3.4477151001337916, 3.903388800099492, 4.128361500101164, 4.872080000117421]	7.39	5.54	3.0	10hz	high_pain	47.5			sub-031	250	31	45.7	47.5	COM11	COM15	COM3	2024-04-17_10h04.57.004	001-EEG_SVR_Officel	2022.2.5	144.00693561459224		11.417999999999893	2_sub-pilot031_SVR_EEG_block5-6.protocol.csv	step9	1465	145.723	STIMULATE	47.5	47.4	47.5	47.5	47.5	9	1932.925
1920.908	0	960454	10hz	3	4	0	4	0	3.0	0.0	3.0	0.0						2012.255300299963	2019.6520452001128	2019.6520452001128	7.2	['7', 'a', '2', 'return']	[3.4477151001337916, 3.903388800099492, 4.128361500101164, 4.872080000117421]	7.39	5.54	3.0	10hz	high_pain	47.5			sub-031	250	31	45.7	47.5	COM11	COM15	COM3	2024-04-17_10h04.57.004	001-EEG_SVR_Officel	2022.2.5	144.00693561459224		7.385999999999967	2_sub-pilot031_SVR_EEG_block5-6.protocol.csv	step9	1465	145.723	STIMULATE	47.5	47.4	47.5	47.5	47.5	9	1932.925
1927.198	0	963599	10/Hi	1	4	0	4	0	3.0	0.0	3.0	0.0						2012.255300299963	2019.6520452001128	2019.6520452001128	7.2	['7', 'a', '2', 'return']	[3.4477151001337916, 3.903388800099492, 4.128361500101164, 4.872080000117421]	7.39	5.54	3.0	10hz	high_pain	47.5			sub-031	250	31	45.7	47.5	COM11	COM15	COM3	2024-04-17_10h04.57.004	001-EEG_SVR_Officel	2022.2.5	144.00693561459224		5.540000000000191	2_sub-pilot031_SVR_EEG_block5-6.protocol.csv	step9	1465	145.723	STIMULATE	47.5	47.4	47.5	47.5	47.5	9	1932.925
1938.804	0	969402	wait	20	4	0	4	0	4.0	0.0	4.0	0.0						2037.5360089000317	2043.82855039998	2043.82855039998	7.0	['7', 'return']	[2.4082595000509173, 3.038371999980882]	6.28	5.28	0.0	20hz	high_pain	47.5			sub-031	250	31	45.7	47.5	COM11	COM15	COM3	2024-04-17_10h04.57.004	001-EEG_SVR_Officel	2022.2.5	144.00693561459224		12.355999999999995	2_sub-pilot031_SVR_EEG_block5-6.protocol.csv	step11	1707	169.734	STIMULATE	47.5	47.5	47.5	47.5	47.6	11	1956.936
1945.084	0	972542	20hz	6	4	0	4	0	4.0	0.0	4.0	0.0						2037.5360089000317	2043.82855039998	2043.82855039998	7.0	['7', 'return']	[2.4082595000509173, 3.038371999980882]	6.28	5.28	0.0	20hz	high_pain	47.5			sub-031	250	31	45.7	47.5	COM11	COM15	COM3	2024-04-17_10h04.57.004	001-EEG_SVR_Officel	2022.2.5	144.00693561459224		6.279999999999973	2_sub-pilot031_SVR_EEG_block5-6.protocol.csv	step11	1707	169.734	STIMULATE	47.5	47.5	47.5	47.5	47.6	11	1956.936
1951.116	0	975558	20/Hi	4	4	0	4	0	4.0	0.0	4.0	0.0						2037.5360089000317	2043.82855039998	2043.82855039998	7.0	['7', 'return']	[2.4082595000509173, 3.038371999980882]	6.28	5.28	0.0	20hz	high_pain	47.5			sub-031	250	31	45.7	47.5	COM11	COM15	COM3	2024-04-17_10h04.57.004	001-EEG_SVR_Officel	2022.2.5	144.00693561459224		5.281999999999925	2_sub-pilot031_SVR_EEG_block5-6.protocol.csv	step11	1707	169.734	STIMULATE	47.5	47.5	47.5	47.5	47.6	11	1956.936
1961.146	0	980573	wait	20	4	0	4	0	5.0	0.0	5.0	0.0						2059.878069299972	2066.768705800176	2066.768705800176	7.0	['7', 'return']	[2.75456769997254, 3.2836300001945347]	6.88	5.1	1.0	40hz	high_pain	47.5			sub-031	250	31	45.7	47.5	COM11	COM15	COM3	2024-04-17_10h04.57.004	001-EEG_SVR_Officel	2022.2.5	144.00693561459224		10.779999999999973	2_sub-pilot031_SVR_EEG_block5-6.protocol.csv	step13	1937	192.535	STIMULATE	47.5	47.4	47.5	47.5	47.6	13	1979.7369999999999
1968.024	0	984012	40hz	9	4	0	4	0	5.0	0.0	5.0	0.0						2059.878069299972	2066.768705800176	2066.768705800176	7.0	['7', 'return']	[2.75456769997254, 3.2836300001945347]	6.88	5.1	1.0	40hz	high_pain	47.5			sub-031	250	31	45.7	47.5	COM11	COM15	COM3	2024-04-17_10h04.57.004	001-EEG_SVR_Officel	2022.2.5	144.00693561459224		6.877999999999929	2_sub-pilot031_SVR_EEG_block5-6.protocol.csv	step13	1937	192.535	STIMULATE	47.5	47.4	47.5	47.5	47.6	13	1979.7369999999999
1973.878	0	986939	40/Hi	7	4	0	4	0	5.0	0.0	5.0	0.0						2059.878069299972	2066.768705800176	2066.768705800176	7.0	['7', 'return']	[2.75456769997254, 3.2836300001945347]	6.88	5.1	1.0	40hz	high_pain	47.5			sub-031	250	31	45.7	47.5	COM11	COM15	COM3	2024-04-17_10h04.57.004	001-EEG_SVR_Officel	2022.2.5	144.00693561459224		5.104000000000042	2_sub-pilot031_SVR_EEG_block5-6.protocol.csv	step13	1937	192.535	STIMULATE	47.5	47.4	47.5	47.5	47.6	13	1979.7369999999999
1984.33	0	992165	wait	20	4	0	4	0	6.0	0.0	6.0	0.0						2083.0623145999853	2089.389462500112	2089.389462500112	6.0	['6', 'return']	[3.445659999968484, 4.006666800007224]	6.32	5.98	2.0	controle	low_pain	45.7			sub-031	250	31	45.7	47.5	COM11	COM15	COM3	2024-04-17_10h04.57.004	001-EEG_SVR_Officel	2022.2.5	144.00693561459224		11.201999999999998	2_sub-pilot031_SVR_EEG_block5-6.protocol.csv	step15	2174	216.031	STIMULATE	45.7	45.6	45.6	45.6	45.8	15	2003.233
1990.644	0	995322	CNhz	12	4	0	4	0	6.0	0.0	6.0	0.0						2083.0623145999853	2089.389462500112	2089.389462500112	6.0	['6', 'return']	[3.445659999968484, 4.006666800007224]	6.32	5.98	2.0	controle	low_pain	45.7			sub-031	250	31	45.7	47.5	COM11	COM15	COM3	2024-04-17_10h04.57.004	001-EEG_SVR_Officel	2022.2.5	144.00693561459224		6.314000000000078	2_sub-pilot031_SVR_EEG_block5-6.protocol.csv	step15	2174	216.031	STIMULATE	45.7	45.6	45.6	45.6	45.8	15	2003.233
