onset	duration	sample	trial_type	value	block.thisRepN	block.thisTrialN	block.thisN	block.thisIndex	reps.thisRepN	reps.thisTrialN	reps.thisN	reps.thisIndex	afrec_start	rec_start	rec_start_egi	key_resp.keys	key_resp.rt	wait_time_text.started	wait_time_text.stopped	therm_loca_text.started	subResponse	keyResp.keys	keyResp.rt	ITI_wait	wait_trigger	loca_thermode	Hz_condition	temp_condition	temp_valeur	text.started	text.stopped	participant	brightness	num_part	low	high	com_svr	com_thermode	com_eeg	date	expName	psychopyVersion	frameRate	Unnamed: 39	distance_from_previous	file	step	index	time	type	temp1	temp2	temp3	temp4	temp5	step_num	time_sync
7.22	0	3610	wait	20	0	0	0	0	0.0	0.0	0.0	0.0	147.97636790003162	147.5962907000212	1700171524.1491108	p	6.90004300000146	154.90966540004592	162.3473502000561	162.3473502000561	8.0	['8', 'return']	[4.309198800008744, 5.093491899897344]	7.43	6.14	0.0	10hz	high_pain	47.0			sub-pilot018	250	18	45	47	COM11	COM7	COM3	2023-11-16_16h49.53.214	001-EEG_SVR_Officel	2022.2.5	143.9258955408424		7.22	0_sub-pilot018_SVR_EEG_block1-2.protocol.csv	step3	1412	141.01	STIMULATE	47.2	46.9	46.9	46.9	47.2	3	27.188999999999997
14.556	0	7278	10hz	3	0	0	0	0	0.0	0.0	0.0	0.0	147.97636790003162	147.5962907000212	1700171524.1491108	p	6.90004300000146	154.90966540004592	162.3473502000561	162.3473502000561	8.0	['8', 'return']	[4.309198800008744, 5.093491899897344]	7.43	6.14	0.0	10hz	high_pain	47.0			sub-pilot018	250	18	45	47	COM11	COM7	COM3	2023-11-16_16h49.53.214	001-EEG_SVR_Officel	2022.2.5	143.9258955408424		7.335999999999999	0_sub-pilot018_SVR_EEG_block1-2.protocol.csv	step3	1412	141.01	STIMULATE	47.2	46.9	46.9	46.9	47.2	3	27.188999999999997
21.446	0	10723	10/Hi	1	0	0	0	0	0.0	0.0	0.0	0.0	147.97636790003162	147.5962907000212	1700171524.1491108	p	6.90004300000146	154.90966540004592	162.3473502000561	162.3473502000561	8.0	['8', 'return']	[4.309198800008744, 5.093491899897344]	7.43	6.14	0.0	10hz	high_pain	47.0			sub-pilot018	250	18	45	47	COM11	COM7	COM3	2023-11-16_16h49.53.214	001-EEG_SVR_Officel	2022.2.5	143.9258955408424		6.140000000000002	0_sub-pilot018_SVR_EEG_block1-2.protocol.csv	step3	1412	141.01	STIMULATE	47.2	46.9	46.9	46.9	47.2	3	27.188999999999997
32.684	0	16341	wait	20	0	0	0	0	1.0	0.0	1.0	0.0						180.46134390006773	186.1218441000674	186.1218441000674	9.0	['9', 'return']	[2.957482500001788, 3.7245301000075415]	5.65	5.48	1.0	20hz	high_pain	47.0			sub-pilot018	250	18	45	47	COM11	COM7	COM3	2023-11-16_16h49.53.214	001-EEG_SVR_Officel	2022.2.5	143.9258955408424		11.987999999999996	0_sub-pilot018_SVR_EEG_block1-2.protocol.csv	step5	1646	164.219	STIMULATE	47.0	46.9	46.9	46.9	47.2	5	50.397999999999996
38.332	0	19166	20hz	6	0	0	0	0	1.0	0.0	1.0	0.0						180.46134390006773	186.1218441000674	186.1218441000674	9.0	['9', 'return']	[2.957482500001788, 3.7245301000075415]	5.65	5.48	1.0	20hz	high_pain	47.0			sub-pilot018	250	18	45	47	COM11	COM7	COM3	2023-11-16_16h49.53.214	001-EEG_SVR_Officel	2022.2.5	143.9258955408424		5.648000000000003	0_sub-pilot018_SVR_EEG_block1-2.protocol.csv	step5	1646	164.219	STIMULATE	47.0	46.9	46.9	46.9	47.2	5	50.397999999999996
44.56	0	22280	20/Hi	4	0	0	0	0	1.0	0.0	1.0	0.0						180.46134390006773	186.1218441000674	186.1218441000674	9.0	['9', 'return']	[2.957482500001788, 3.7245301000075415]	5.65	5.48	1.0	20hz	high_pain	47.0			sub-pilot018	250	18	45	47	COM11	COM7	COM3	2023-11-16_16h49.53.214	001-EEG_SVR_Officel	2022.2.5	143.9258955408424		5.4780000000000015	0_sub-pilot018_SVR_EEG_block1-2.protocol.csv	step5	1646	164.219	STIMULATE	47.0	46.9	46.9	46.9	47.2	5	50.397999999999996
55.088	0	27544	wait	20	0	0	0	0	2.0	0.0	2.0	0.0						202.86675530008503	209.0066470000893	209.0066470000893	9.0	['9', 'return']	[2.7941149999387562, 3.259240800049156]	6.13	6.05	2.0	controle	low_pain	45.0			sub-pilot018	250	18	45	47	COM11	COM7	COM3	2023-11-16_16h49.53.214	001-EEG_SVR_Officel	2022.2.5	143.9258955408424		11.277999999999999	0_sub-pilot018_SVR_EEG_block1-2.protocol.csv	step7	1882	187.611	STIMULATE	44.9	44.8	44.9	44.9	45.2	7	73.78999999999999
61.216	0	30608	CNhz	12	0	0	0	0	2.0	0.0	2.0	0.0						202.86675530008503	209.0066470000893	209.0066470000893	9.0	['9', 'return']	[2.7941149999387562, 3.259240800049156]	6.13	6.05	2.0	controle	low_pain	45.0			sub-pilot018	250	18	45	47	COM11	COM7	COM3	2023-11-16_16h49.53.214	001-EEG_SVR_Officel	2022.2.5	143.9258955408424		6.128	0_sub-pilot018_SVR_EEG_block1-2.protocol.csv	step7	1882	187.611	STIMULATE	44.9	44.8	44.9	44.9	45.2	7	73.78999999999999
68.02	0	34010	CN/Lo	11	0	0	0	0	2.0	0.0	2.0	0.0						202.86675530008503	209.0066470000893	209.0066470000893	9.0	['9', 'return']	[2.7941149999387562, 3.259240800049156]	6.13	6.05	2.0	controle	low_pain	45.0			sub-pilot018	250	18	45	47	COM11	COM7	COM3	2023-11-16_16h49.53.214	001-EEG_SVR_Officel	2022.2.5	143.9258955408424		6.053999999999995	0_sub-pilot018_SVR_EEG_block1-2.protocol.csv	step7	1882	187.611	STIMULATE	44.9	44.8	44.9	44.9	45.2	7	73.78999999999999
77.508	0	38754	wait	20	0	0	0	0	3.0	0.0	3.0	0.0						225.2866087000584	232.60687160003	232.60687160003	9.5	['9', 'a', '5', 'return']	[3.047903300030157, 3.6637116000056267, 3.9195595000637695, 4.6084436000091955]	7.31	6.06	3.0	controle	high_pain	47.0			sub-pilot018	250	18	45	47	COM11	COM7	COM3	2023-11-16_16h49.53.214	001-EEG_SVR_Officel	2022.2.5	143.9258955408424		10.238	0_sub-pilot018_SVR_EEG_block1-2.protocol.csv	step9	2121	211.31	STIMULATE	46.9	46.9	46.9	47.0	47.1	9	97.489
84.816	0	42408	CNhz	12	0	0	0	0	3.0	0.0	3.0	0.0						225.2866087000584	232.60687160003	232.60687160003	9.5	['9', 'a', '5', 'return']	[3.047903300030157, 3.6637116000056267, 3.9195595000637695, 4.6084436000091955]	7.31	6.06	3.0	controle	high_pain	47.0			sub-pilot018	250	18	45	47	COM11	COM7	COM3	2023-11-16_16h49.53.214	001-EEG_SVR_Officel	2022.2.5	143.9258955408424		7.308000000000007	0_sub-pilot018_SVR_EEG_block1-2.protocol.csv	step9	2121	211.31	STIMULATE	46.9	46.9	46.9	47.0	47.1	9	97.489
91.628	0	45814	CN/Hi	10	0	0	0	0	3.0	0.0	3.0	0.0						225.2866087000584	232.60687160003	232.60687160003	9.5	['9', 'a', '5', 'return']	[3.047903300030157, 3.6637116000056267, 3.9195595000637695, 4.6084436000091955]	7.31	6.06	3.0	controle	high_pain	47.0			sub-pilot018	250	18	45	47	COM11	COM7	COM3	2023-11-16_16h49.53.214	001-EEG_SVR_Officel	2022.2.5	143.9258955408424		6.061999999999998	0_sub-pilot018_SVR_EEG_block1-2.protocol.csv	step9	2121	211.31	STIMULATE	46.9	46.9	46.9	47.0	47.1	9	97.489
102.448	0	51224	wait	20	0	0	0	0	4.0	0.0	4.0	0.0						250.2262805000646	257.25535660004243	257.25535660004243	2.0	['2', 'return']	[3.0809538000030443, 3.682076000026427]	7.02	6.11	0.0	40hz	low_pain	45.0			sub-pilot018	250	18	45	47	COM11	COM7	COM3	2023-11-16_16h49.53.214	001-EEG_SVR_Officel	2022.2.5	143.9258955408424		11.569999999999993	0_sub-pilot018_SVR_EEG_block1-2.protocol.csv	step11	2369	235.925	STIMULATE	45.0	44.9	44.9	44.9	45.2	11	122.10400000000001
109.464	0	54732	40hz	9	0	0	0	0	4.0	0.0	4.0	0.0						250.2262805000646	257.25535660004243	257.25535660004243	2.0	['2', 'return']	[3.0809538000030443, 3.682076000026427]	7.02	6.11	0.0	40hz	low_pain	45.0			sub-pilot018	250	18	45	47	COM11	COM7	COM3	2023-11-16_16h49.53.214	001-EEG_SVR_Officel	2022.2.5	143.9258955408424		7.016000000000005	0_sub-pilot018_SVR_EEG_block1-2.protocol.csv	step11	2369	235.925	STIMULATE	45.0	44.9	44.9	44.9	45.2	11	122.10400000000001
116.324	0	58162	40/Lo	8	0	0	0	0	4.0	0.0	4.0	0.0						250.2262805000646	257.25535660004243	257.25535660004243	2.0	['2', 'return']	[3.0809538000030443, 3.682076000026427]	7.02	6.11	0.0	40hz	low_pain	45.0			sub-pilot018	250	18	45	47	COM11	COM7	COM3	2023-11-16_16h49.53.214	001-EEG_SVR_Officel	2022.2.5	143.9258955408424		6.109999999999999	0_sub-pilot018_SVR_EEG_block1-2.protocol.csv	step11	2369	235.925	STIMULATE	45.0	44.9	44.9	44.9	45.2	11	122.10400000000001
126.18	0	63090	wait	20	0	0	0	0	5.0	0.0	5.0	0.0						273.95941240002867	281.07091270003	281.07091270003	8.0	['8', 'return']	[2.553289799951017, 3.008735300041735]	7.1	5.7	1.0	40hz	high_pain	47.0			sub-pilot018	250	18	45	47	COM11	COM7	COM3	2023-11-16_16h49.53.214	001-EEG_SVR_Officel	2022.2.5	143.9258955408424		10.606000000000009	0_sub-pilot018_SVR_EEG_block1-2.protocol.csv	step13	2606	259.434	STIMULATE	47.0	46.9	46.9	47.0	47.2	13	145.61300000000003
133.28	0	66640	40hz	9	0	0	0	0	5.0	0.0	5.0	0.0						273.95941240002867	281.07091270003	281.07091270003	8.0	['8', 'return']	[2.553289799951017, 3.008735300041735]	7.1	5.7	1.0	40hz	high_pain	47.0			sub-pilot018	250	18	45	47	COM11	COM7	COM3	2023-11-16_16h49.53.214	001-EEG_SVR_Officel	2022.2.5	143.9258955408424		7.099999999999994	0_sub-pilot018_SVR_EEG_block1-2.protocol.csv	step13	2606	259.434	STIMULATE	47.0	46.9	46.9	47.0	47.2	13	145.61300000000003
139.728	0	69864	40/Hi	7	0	0	0	0	5.0	0.0	5.0	0.0						273.95941240002867	281.07091270003	281.07091270003	8.0	['8', 'return']	[2.553289799951017, 3.008735300041735]	7.1	5.7	1.0	40hz	high_pain	47.0			sub-pilot018	250	18	45	47	COM11	COM7	COM3	2023-11-16_16h49.53.214	001-EEG_SVR_Officel	2022.2.5	143.9258955408424		5.6980000000000075	0_sub-pilot018_SVR_EEG_block1-2.protocol.csv	step13	2606	259.434	STIMULATE	47.0	46.9	46.9	47.0	47.2	13	145.61300000000003
149.314	0	74657	wait	20	0	0	0	0	6.0	0.0	6.0	0.0						297.0930795000168	302.9553674000781	302.9553674000781	10.0	['1', '0', 'return']	[3.2293006000109017, 3.7496345000108704, 4.373255199985579]	5.85	5.48	2.0	10hz	high_pain	47.0			sub-pilot018	250	18	45	47	COM11	COM7	COM3	2023-11-16_16h49.53.214	001-EEG_SVR_Officel	2022.2.5	143.9258955408424		10.335999999999984	0_sub-pilot018_SVR_EEG_block1-2.protocol.csv	step15	2824	281.019	STIMULATE	47.0	46.9	47.0	47.0	47.2	15	167.198
155.164	0	77582	10hz	3	0	0	0	0	6.0	0.0	6.0	0.0						297.0930795000168	302.9553674000781	302.9553674000781	10.0	['1', '0', 'return']	[3.2293006000109017, 3.7496345000108704, 4.373255199985579]	5.85	5.48	2.0	10hz	high_pain	47.0			sub-pilot018	250	18	45	47	COM11	COM7	COM3	2023-11-16_16h49.53.214	001-EEG_SVR_Officel	2022.2.5	143.9258955408424		5.849999999999994	0_sub-pilot018_SVR_EEG_block1-2.protocol.csv	step15	2824	281.019	STIMULATE	47.0	46.9	47.0	47.0	47.2	15	167.198
161.398	0	80699	10/Hi	1	0	0	0	0	6.0	0.0	6.0	0.0						297.0930795000168	302.9553674000781	302.9553674000781	10.0	['1', '0', 'return']	[3.2293006000109017, 3.7496345000108704, 4.373255199985579]	5.85	5.48	2.0	10hz	high_pain	47.0			sub-pilot018	250	18	45	47	COM11	COM7	COM3	2023-11-16_16h49.53.214	001-EEG_SVR_Officel	2022.2.5	143.9258955408424		5.484000000000009	0_sub-pilot018_SVR_EEG_block1-2.protocol.csv	step15	2824	281.019	STIMULATE	47.0	46.9	47.0	47.0	47.2	15	167.198
172.56	0	86280	wait	20	0	0	0	0	7.0	0.0	7.0	0.0						320.33941230003256	326.1596838000696	326.1596838000696	2.0	['2', 'return']	[2.8497503000544384, 3.3527137000346556]	5.81	5.87	3.0	10hz	low_pain	45.0			sub-pilot018	250	18	45	47	COM11	COM7	COM3	2023-11-16_16h49.53.214	001-EEG_SVR_Officel	2022.2.5	143.9258955408424		11.912000000000006	0_sub-pilot018_SVR_EEG_block1-2.protocol.csv	step17	3062	304.68	STIMULATE	44.9	44.9	44.9	44.9	45.1	17	190.859
178.368	0	89184	10hz	3	0	0	0	0	7.0	0.0	7.0	0.0						320.33941230003256	326.1596838000696	326.1596838000696	2.0	['2', 'return']	[2.8497503000544384, 3.3527137000346556]	5.81	5.87	3.0	10hz	low_pain	45.0			sub-pilot018	250	18	45	47	COM11	COM7	COM3	2023-11-16_16h49.53.214	001-EEG_SVR_Officel	2022.2.5	143.9258955408424		5.807999999999993	0_sub-pilot018_SVR_EEG_block1-2.protocol.csv	step17	3062	304.68	STIMULATE	44.9	44.9	44.9	44.9	45.1	17	190.859
184.992	0	92496	10/Lo	2	0	0	0	0	7.0	0.0	7.0	0.0						320.33941230003256	326.1596838000696	326.1596838000696	2.0	['2', 'return']	[2.8497503000544384, 3.3527137000346556]	5.81	5.87	3.0	10hz	low_pain	45.0			sub-pilot018	250	18	45	47	COM11	COM7	COM3	2023-11-16_16h49.53.214	001-EEG_SVR_Officel	2022.2.5	143.9258955408424		5.873999999999995	0_sub-pilot018_SVR_EEG_block1-2.protocol.csv	step17	3062	304.68	STIMULATE	44.9	44.9	44.9	44.9	45.1	17	190.859
194.744	0	97372	wait	20	0	0	0	0	8.0	0.0	8.0	0.0						342.52333750005346	349.4617613001028	349.4617613001028	8.0	['8', 'return']	[2.290932600037195, 2.7400128999724984]	6.93	5.9	0.0	20hz	high_pain	47.0			sub-pilot018	250	18	45	47	COM11	COM7	COM3	2023-11-16_16h49.53.214	001-EEG_SVR_Officel	2022.2.5	143.9258955408424		10.50200000000001	0_sub-pilot018_SVR_EEG_block1-2.protocol.csv	step19	3298	328.089	STIMULATE	47.0	46.9	46.9	47.0	47.2	19	214.268
201.67	0	100835	20hz	6	0	0	0	0	8.0	0.0	8.0	0.0						342.52333750005346	349.4617613001028	349.4617613001028	8.0	['8', 'return']	[2.290932600037195, 2.7400128999724984]	6.93	5.9	0.0	20hz	high_pain	47.0			sub-pilot018	250	18	45	47	COM11	COM7	COM3	2023-11-16_16h49.53.214	001-EEG_SVR_Officel	2022.2.5	143.9258955408424		6.925999999999988	0_sub-pilot018_SVR_EEG_block1-2.protocol.csv	step19	3298	328.089	STIMULATE	47.0	46.9	46.9	47.0	47.2	19	214.268
208.32	0	104160	20/Hi	4	0	0	0	0	8.0	0.0	8.0	0.0						342.52333750005346	349.4617613001028	349.4617613001028	8.0	['8', 'return']	[2.290932600037195, 2.7400128999724984]	6.93	5.9	0.0	20hz	high_pain	47.0			sub-pilot018	250	18	45	47	COM11	COM7	COM3	2023-11-16_16h49.53.214	001-EEG_SVR_Officel	2022.2.5	143.9258955408424		5.900000000000006	0_sub-pilot018_SVR_EEG_block1-2.protocol.csv	step19	3298	328.089	STIMULATE	47.0	46.9	46.9	47.0	47.2	19	214.268
217.448	0	108724	wait	20	0	0	0	0	9.0	0.0	9.0	0.0						365.2273026000476	372.5194092000602	372.5194092000602	3.0	['3', 'return']	[2.642104299971834, 3.3136027000145987]	7.28	6.14	1.0	controle	low_pain	45.0			sub-pilot018	250	18	45	47	COM11	COM7	COM3	2023-11-16_16h49.53.214	001-EEG_SVR_Officel	2022.2.5	143.9258955408424		9.878000000000014	0_sub-pilot018_SVR_EEG_block1-2.protocol.csv	step21	3533	351.343	STIMULATE	44.9	44.9	44.9	44.9	45.1	21	237.52200000000002
224.726	0	112363	CNhz	12	0	0	0	0	9.0	0.0	9.0	0.0						365.2273026000476	372.5194092000602	372.5194092000602	3.0	['3', 'return']	[2.642104299971834, 3.3136027000145987]	7.28	6.14	1.0	controle	low_pain	45.0			sub-pilot018	250	18	45	47	COM11	COM7	COM3	2023-11-16_16h49.53.214	001-EEG_SVR_Officel	2022.2.5	143.9258955408424		7.277999999999992	0_sub-pilot018_SVR_EEG_block1-2.protocol.csv	step21	3533	351.343	STIMULATE	44.9	44.9	44.9	44.9	45.1	21	237.52200000000002
231.622	0	115811	CN/Lo	11	0	0	0	0	9.0	0.0	9.0	0.0						365.2273026000476	372.5194092000602	372.5194092000602	3.0	['3', 'return']	[2.642104299971834, 3.3136027000145987]	7.28	6.14	1.0	controle	low_pain	45.0			sub-pilot018	250	18	45	47	COM11	COM7	COM3	2023-11-16_16h49.53.214	001-EEG_SVR_Officel	2022.2.5	143.9258955408424		6.146000000000015	0_sub-pilot018_SVR_EEG_block1-2.protocol.csv	step21	3533	351.343	STIMULATE	44.9	44.9	44.9	44.9	45.1	21	237.52200000000002
241.074	0	120537	wait	20	0	0	0	0	10.0	0.0	10.0	0.0						388.8547571999952	395.39720250002574	395.39720250002574	2.0	['2', 'return']	[2.980612999992445, 3.6123710999963805]	6.53	5.93	2.0	20hz	low_pain	45.0			sub-pilot018	250	18	45	47	COM11	COM7	COM3	2023-11-16_16h49.53.214	001-EEG_SVR_Officel	2022.2.5	143.9258955408424		10.201999999999998	0_sub-pilot018_SVR_EEG_block1-2.protocol.csv	step23	3761	373.997	STIMULATE	45.1	44.9	44.9	44.9	45.1	23	260.17600000000004
247.606	0	123803	20hz	6	0	0	0	0	10.0	0.0	10.0	0.0						388.8547571999952	395.39720250002574	395.39720250002574	2.0	['2', 'return']	[2.980612999992445, 3.6123710999963805]	6.53	5.93	2.0	20hz	low_pain	45.0			sub-pilot018	250	18	45	47	COM11	COM7	COM3	2023-11-16_16h49.53.214	001-EEG_SVR_Officel	2022.2.5	143.9258955408424		6.531999999999982	0_sub-pilot018_SVR_EEG_block1-2.protocol.csv	step23	3761	373.997	STIMULATE	45.1	44.9	44.9	44.9	45.1	23	260.17600000000004
254.286	0	127143	20/Lo	5	0	0	0	0	10.0	0.0	10.0	0.0						388.8547571999952	395.39720250002574	395.39720250002574	2.0	['2', 'return']	[2.980612999992445, 3.6123710999963805]	6.53	5.93	2.0	20hz	low_pain	45.0			sub-pilot018	250	18	45	47	COM11	COM7	COM3	2023-11-16_16h49.53.214	001-EEG_SVR_Officel	2022.2.5	143.9258955408424		5.930000000000007	0_sub-pilot018_SVR_EEG_block1-2.protocol.csv	step23	3761	373.997	STIMULATE	45.1	44.9	44.9	44.9	45.1	23	260.17600000000004
264.244	0	132122	wait	20	0	0	0	0	11.0	0.0	11.0	0.0						412.0238839000231	419.5529664000496	419.5529664000496	4.0	['4', 'return']	[2.711825600010343, 3.224539199960418]	7.52	6.24	3.0	10hz	high_pain	47.0			sub-pilot018	250	18	45	47	COM11	COM7	COM3	2023-11-16_16h49.53.214	001-EEG_SVR_Officel	2022.2.5	143.9258955408424		10.708000000000027	0_sub-pilot018_SVR_EEG_block1-2.protocol.csv	step25	4008	398.448	STIMULATE	47.0	46.9	47.0	47.0	47.1	25	284.627
271.762	0	135881	10hz	3	0	0	0	0	11.0	0.0	11.0	0.0						412.0238839000231	419.5529664000496	419.5529664000496	4.0	['4', 'return']	[2.711825600010343, 3.224539199960418]	7.52	6.24	3.0	10hz	high_pain	47.0			sub-pilot018	250	18	45	47	COM11	COM7	COM3	2023-11-16_16h49.53.214	001-EEG_SVR_Officel	2022.2.5	143.9258955408424		7.517999999999972	0_sub-pilot018_SVR_EEG_block1-2.protocol.csv	step25	4008	398.448	STIMULATE	47.0	46.9	47.0	47.0	47.1	25	284.627
278.752	0	139376	10/Hi	1	0	0	0	0	11.0	0.0	11.0	0.0						412.0238839000231	419.5529664000496	419.5529664000496	4.0	['4', 'return']	[2.711825600010343, 3.224539199960418]	7.52	6.24	3.0	10hz	high_pain	47.0			sub-pilot018	250	18	45	47	COM11	COM7	COM3	2023-11-16_16h49.53.214	001-EEG_SVR_Officel	2022.2.5	143.9258955408424		6.240000000000009	0_sub-pilot018_SVR_EEG_block1-2.protocol.csv	step25	4008	398.448	STIMULATE	47.0	46.9	47.0	47.0	47.1	25	284.627
288.01	0	144005	wait	20	0	0	0	0	12.0	0.0	12.0	0.0						435.7909220000729	441.1318777000997	441.1318777000997	2.0	['2', 'return']	[2.5737463000696152, 3.189017500029877]	5.33	5.69	0.0	controle	low_pain	45.0			sub-pilot018	250	18	45	47	COM11	COM7	COM3	2023-11-16_16h49.53.214	001-EEG_SVR_Officel	2022.2.5	143.9258955408424		10.007999999999981	0_sub-pilot018_SVR_EEG_block1-2.protocol.csv	step27	4220	419.447	STIMULATE	45.1	44.9	44.9	44.9	45.2	27	305.62600000000003
293.34	0	146670	CNhz	12	0	0	0	0	12.0	0.0	12.0	0.0						435.7909220000729	441.1318777000997	441.1318777000997	2.0	['2', 'return']	[2.5737463000696152, 3.189017500029877]	5.33	5.69	0.0	controle	low_pain	45.0			sub-pilot018	250	18	45	47	COM11	COM7	COM3	2023-11-16_16h49.53.214	001-EEG_SVR_Officel	2022.2.5	143.9258955408424		5.329999999999984	0_sub-pilot018_SVR_EEG_block1-2.protocol.csv	step27	4220	419.447	STIMULATE	45.1	44.9	44.9	44.9	45.2	27	305.62600000000003
299.782	0	149891	CN/Lo	11	0	0	0	0	12.0	0.0	12.0	0.0						435.7909220000729	441.1318777000997	441.1318777000997	2.0	['2', 'return']	[2.5737463000696152, 3.189017500029877]	5.33	5.69	0.0	controle	low_pain	45.0			sub-pilot018	250	18	45	47	COM11	COM7	COM3	2023-11-16_16h49.53.214	001-EEG_SVR_Officel	2022.2.5	143.9258955408424		5.692000000000007	0_sub-pilot018_SVR_EEG_block1-2.protocol.csv	step27	4220	419.447	STIMULATE	45.1	44.9	44.9	44.9	45.2	27	305.62600000000003
309.562	0	154781	wait	20	0	0	0	0	13.0	0.0	13.0	0.0						457.3422007000772	464.8440126000205	464.8440126000205	1.0	['1', 'return']	[2.829451399971731, 3.5889845999190584]	7.49	5.31	1.0	10hz	low_pain	45.0			sub-pilot018	250	18	45	47	COM11	COM7	COM3	2023-11-16_16h49.53.214	001-EEG_SVR_Officel	2022.2.5	143.9258955408424		10.53000000000003	0_sub-pilot018_SVR_EEG_block1-2.protocol.csv	step29	4456	442.83	STIMULATE	44.9	44.9	44.9	44.9	45.1	29	329.009
317.05	0	158525	10hz	3	0	0	0	0	13.0	0.0	13.0	0.0						457.3422007000772	464.8440126000205	464.8440126000205	1.0	['1', 'return']	[2.829451399971731, 3.5889845999190584]	7.49	5.31	1.0	10hz	low_pain	45.0			sub-pilot018	250	18	45	47	COM11	COM7	COM3	2023-11-16_16h49.53.214	001-EEG_SVR_Officel	2022.2.5	143.9258955408424		7.4879999999999995	0_sub-pilot018_SVR_EEG_block1-2.protocol.csv	step29	4456	442.83	STIMULATE	44.9	44.9	44.9	44.9	45.1	29	329.009
323.112	0	161556	10/Lo	2	0	0	0	0	13.0	0.0	13.0	0.0						457.3422007000772	464.8440126000205	464.8440126000205	1.0	['1', 'return']	[2.829451399971731, 3.5889845999190584]	7.49	5.31	1.0	10hz	low_pain	45.0			sub-pilot018	250	18	45	47	COM11	COM7	COM3	2023-11-16_16h49.53.214	001-EEG_SVR_Officel	2022.2.5	143.9258955408424		5.312000000000012	0_sub-pilot018_SVR_EEG_block1-2.protocol.csv	step29	4456	442.83	STIMULATE	44.9	44.9	44.9	44.9	45.1	29	329.009
333.668	0	166834	wait	20	0	0	0	0	14.0	0.0	14.0	0.0						481.44976200000383	488.7560070001055	488.7560070001055	9.0	['9', 'return']	[2.525251500075683, 2.836947500007227]	7.3	6.31	2.0	40hz	high_pain	47.0			sub-pilot018	250	18	45	47	COM11	COM7	COM3	2023-11-16_16h49.53.214	001-EEG_SVR_Officel	2022.2.5	143.9258955408424		11.305999999999983	0_sub-pilot018_SVR_EEG_block1-2.protocol.csv	step31	4707	467.739	STIMULATE	47.2	46.9	47.0	47.0	47.1	31	353.918
340.962	0	170481	40hz	9	0	0	0	0	14.0	0.0	14.0	0.0						481.44976200000383	488.7560070001055	488.7560070001055	9.0	['9', 'return']	[2.525251500075683, 2.836947500007227]	7.3	6.31	2.0	40hz	high_pain	47.0			sub-pilot018	250	18	45	47	COM11	COM7	COM3	2023-11-16_16h49.53.214	001-EEG_SVR_Officel	2022.2.5	143.9258955408424		7.293999999999983	0_sub-pilot018_SVR_EEG_block1-2.protocol.csv	step31	4707	467.739	STIMULATE	47.2	46.9	47.0	47.0	47.1	31	353.918
348.024	0	174012	40/Hi	7	0	0	0	0	14.0	0.0	14.0	0.0						481.44976200000383	488.7560070001055	488.7560070001055	9.0	['9', 'return']	[2.525251500075683, 2.836947500007227]	7.3	6.31	2.0	40hz	high_pain	47.0			sub-pilot018	250	18	45	47	COM11	COM7	COM3	2023-11-16_16h49.53.214	001-EEG_SVR_Officel	2022.2.5	143.9258955408424		6.312000000000012	0_sub-pilot018_SVR_EEG_block1-2.protocol.csv	step31	4707	467.739	STIMULATE	47.2	46.9	47.0	47.0	47.1	31	353.918
356.832	0	178416	wait	20	0	0	0	0	15.0	0.0	15.0	0.0						504.61184520006645	511.5228163000429	511.5228163000429	8.0	['8', 'return']	[2.487351599964313, 2.743845699937083]	6.9	5.9	3.0	20hz	high_pain	47.0			sub-pilot018	250	18	45	47	COM11	COM7	COM3	2023-11-16_16h49.53.214	001-EEG_SVR_Officel	2022.2.5	143.9258955408424		9.557999999999993	0_sub-pilot018_SVR_EEG_block1-2.protocol.csv	step33	4932	490.071	STIMULATE	47.0	46.9	47.0	46.9	47.0	33	376.25000000000006
363.73	0	181865	20hz	6	0	0	0	0	15.0	0.0	15.0	0.0						504.61184520006645	511.5228163000429	511.5228163000429	8.0	['8', 'return']	[2.487351599964313, 2.743845699937083]	6.9	5.9	3.0	20hz	high_pain	47.0			sub-pilot018	250	18	45	47	COM11	COM7	COM3	2023-11-16_16h49.53.214	001-EEG_SVR_Officel	2022.2.5	143.9258955408424		6.898000000000025	0_sub-pilot018_SVR_EEG_block1-2.protocol.csv	step33	4932	490.071	STIMULATE	47.0	46.9	47.0	46.9	47.0	33	376.25000000000006
370.382	0	185191	20/Hi	4	0	0	0	0	15.0	0.0	15.0	0.0						504.61184520006645	511.5228163000429	511.5228163000429	8.0	['8', 'return']	[2.487351599964313, 2.743845699937083]	6.9	5.9	3.0	20hz	high_pain	47.0			sub-pilot018	250	18	45	47	COM11	COM7	COM3	2023-11-16_16h49.53.214	001-EEG_SVR_Officel	2022.2.5	143.9258955408424		5.901999999999987	0_sub-pilot018_SVR_EEG_block1-2.protocol.csv	step33	4932	490.071	STIMULATE	47.0	46.9	47.0	46.9	47.0	33	376.25000000000006
417.776	0	208888	wait	20	1	0	1	0	0.0	0.0	0.0	0.0				p	1.906493499991484	565.5568285000045	573.0090996000217	573.0090996000217	6.0	['6', 'return']	[2.6393455000361428, 3.00011160003487]	7.44	5.05	0.0	40hz	high_pain	47.0			sub-pilot018	250	18	45	47	COM11	COM7	COM3	2023-11-16_16h49.53.214	001-EEG_SVR_Officel	2022.2.5	143.9258955408424		48.144000000000005	0_sub-pilot018_SVR_EEG_block1-2.protocol.csv	step35	5541	550.748	STIMULATE	47.2	46.9	46.9	46.9	47.2	35	436.923
425.216	0	212608	40hz	9	1	0	1	0	0.0	0.0	0.0	0.0				p	1.906493499991484	565.5568285000045	573.0090996000217	573.0090996000217	6.0	['6', 'return']	[2.6393455000361428, 3.00011160003487]	7.44	5.05	0.0	40hz	high_pain	47.0			sub-pilot018	250	18	45	47	COM11	COM7	COM3	2023-11-16_16h49.53.214	001-EEG_SVR_Officel	2022.2.5	143.9258955408424		7.439999999999998	0_sub-pilot018_SVR_EEG_block1-2.protocol.csv	step35	5541	550.748	STIMULATE	47.2	46.9	46.9	46.9	47.2	35	436.923
431.014	0	215507	40/Hi	7	1	0	1	0	0.0	0.0	0.0	0.0				p	1.906493499991484	565.5568285000045	573.0090996000217	573.0090996000217	6.0	['6', 'return']	[2.6393455000361428, 3.00011160003487]	7.44	5.05	0.0	40hz	high_pain	47.0			sub-pilot018	250	18	45	47	COM11	COM7	COM3	2023-11-16_16h49.53.214	001-EEG_SVR_Officel	2022.2.5	143.9258955408424		5.048000000000002	0_sub-pilot018_SVR_EEG_block1-2.protocol.csv	step35	5541	550.748	STIMULATE	47.2	46.9	46.9	46.9	47.2	35	436.923
441.244	0	220622	wait	20	1	0	1	0	1.0	0.0	1.0	0.0						589.0255715000676	595.7277967000846	595.7277967000846	1.0	['1', 'return']	[4.60252880002372, 5.5704306999687105]	6.69	5.02	1.0	20hz	low_pain	45.0			sub-pilot018	250	18	45	47	COM11	COM7	COM3	2023-11-16_16h49.53.214	001-EEG_SVR_Officel	2022.2.5	143.9258955408424		10.980000000000018	0_sub-pilot018_SVR_EEG_block1-2.protocol.csv	step37	5770	573.448	STIMULATE	44.9	44.9	44.9	44.9	45.2	37	459.62299999999993
447.932	0	223966	20hz	6	1	0	1	0	1.0	0.0	1.0	0.0						589.0255715000676	595.7277967000846	595.7277967000846	1.0	['1', 'return']	[4.60252880002372, 5.5704306999687105]	6.69	5.02	1.0	20hz	low_pain	45.0			sub-pilot018	250	18	45	47	COM11	COM7	COM3	2023-11-16_16h49.53.214	001-EEG_SVR_Officel	2022.2.5	143.9258955408424		6.687999999999988	0_sub-pilot018_SVR_EEG_block1-2.protocol.csv	step37	5770	573.448	STIMULATE	44.9	44.9	44.9	44.9	45.2	37	459.62299999999993
453.704	0	226852	20/Lo	5	1	0	1	0	1.0	0.0	1.0	0.0						589.0255715000676	595.7277967000846	595.7277967000846	1.0	['1', 'return']	[4.60252880002372, 5.5704306999687105]	6.69	5.02	1.0	20hz	low_pain	45.0			sub-pilot018	250	18	45	47	COM11	COM7	COM3	2023-11-16_16h49.53.214	001-EEG_SVR_Officel	2022.2.5	143.9258955408424		5.021999999999991	0_sub-pilot018_SVR_EEG_block1-2.protocol.csv	step37	5770	573.448	STIMULATE	44.9	44.9	44.9	44.9	45.2	37	459.62299999999993
466.53	0	233265	wait	20	1	0	1	0	2.0	0.0	2.0	0.0						614.3120219000848	620.6537007000297	620.6537007000297	5.0	['5', 'return']	[2.1867055000038818, 2.6509634000249207]	6.33	5.15	2.0	20hz	high_pain	47.0			sub-pilot018	250	18	45	47	COM11	COM7	COM3	2023-11-16_16h49.53.214	001-EEG_SVR_Officel	2022.2.5	143.9258955408424		13.575999999999965	0_sub-pilot018_SVR_EEG_block1-2.protocol.csv	step39	6022	598.498	STIMULATE	47.0	46.9	47.0	47.0	47.2	39	484.673
472.86	0	236430	20hz	6	1	0	1	0	2.0	0.0	2.0	0.0						614.3120219000848	620.6537007000297	620.6537007000297	5.0	['5', 'return']	[2.1867055000038818, 2.6509634000249207]	6.33	5.15	2.0	20hz	high_pain	47.0			sub-pilot018	250	18	45	47	COM11	COM7	COM3	2023-11-16_16h49.53.214	001-EEG_SVR_Officel	2022.2.5	143.9258955408424		6.330000000000041	0_sub-pilot018_SVR_EEG_block1-2.protocol.csv	step39	6022	598.498	STIMULATE	47.0	46.9	47.0	47.0	47.2	39	484.673
478.762	0	239381	20/Hi	4	1	0	1	0	2.0	0.0	2.0	0.0						614.3120219000848	620.6537007000297	620.6537007000297	5.0	['5', 'return']	[2.1867055000038818, 2.6509634000249207]	6.33	5.15	2.0	20hz	high_pain	47.0			sub-pilot018	250	18	45	47	COM11	COM7	COM3	2023-11-16_16h49.53.214	001-EEG_SVR_Officel	2022.2.5	143.9258955408424		5.151999999999987	0_sub-pilot018_SVR_EEG_block1-2.protocol.csv	step39	6022	598.498	STIMULATE	47.0	46.9	47.0	47.0	47.2	39	484.673
488.54	0	244270	wait	20	1	0	1	0	3.0	0.0	3.0	0.0						636.3223835000535	643.4897917000344	643.4897917000344	2.0	['2', 'return']	[2.3912943999748677, 3.0802198000019416]	7.16	5.01	3.0	20hz	low_pain	45.0			sub-pilot018	250	18	45	47	COM11	COM7	COM3	2023-11-16_16h49.53.214	001-EEG_SVR_Officel	2022.2.5	143.9258955408424		10.52800000000002	0_sub-pilot018_SVR_EEG_block1-2.protocol.csv	step41	6252	621.223	STIMULATE	44.9	44.9	44.9	44.9	45.1	41	507.3979999999999
495.696	0	247848	20hz	6	1	0	1	0	3.0	0.0	3.0	0.0						636.3223835000535	643.4897917000344	643.4897917000344	2.0	['2', 'return']	[2.3912943999748677, 3.0802198000019416]	7.16	5.01	3.0	20hz	low_pain	45.0			sub-pilot018	250	18	45	47	COM11	COM7	COM3	2023-11-16_16h49.53.214	001-EEG_SVR_Officel	2022.2.5	143.9258955408424		7.156000000000006	0_sub-pilot018_SVR_EEG_block1-2.protocol.csv	step41	6252	621.223	STIMULATE	44.9	44.9	44.9	44.9	45.1	41	507.3979999999999
501.458	0	250729	20/Lo	5	1	0	1	0	3.0	0.0	3.0	0.0						636.3223835000535	643.4897917000344	643.4897917000344	2.0	['2', 'return']	[2.3912943999748677, 3.0802198000019416]	7.16	5.01	3.0	20hz	low_pain	45.0			sub-pilot018	250	18	45	47	COM11	COM7	COM3	2023-11-16_16h49.53.214	001-EEG_SVR_Officel	2022.2.5	143.9258955408424		5.0120000000000005	0_sub-pilot018_SVR_EEG_block1-2.protocol.csv	step41	6252	621.223	STIMULATE	44.9	44.9	44.9	44.9	45.1	41	507.3979999999999
511.798	0	255899	wait	20	1	0	1	0	4.0	0.0	4.0	0.0						659.5812879001023	666.9581590000307	666.9581590000307	4.0	['4', 'return']	[2.362618999904953, 2.938777899951674]	7.37	5.71	0.0	controle	high_pain	47.0			sub-pilot018	250	18	45	47	COM11	COM7	COM3	2023-11-16_16h49.53.214	001-EEG_SVR_Officel	2022.2.5	143.9258955408424		11.089999999999975	0_sub-pilot018_SVR_EEG_block1-2.protocol.csv	step43	6495	645.371	STIMULATE	47.2	46.9	46.9	46.9	47.2	43	531.5459999999999
519.164	0	259582	CNhz	12	1	0	1	0	4.0	0.0	4.0	0.0						659.5812879001023	666.9581590000307	666.9581590000307	4.0	['4', 'return']	[2.362618999904953, 2.938777899951674]	7.37	5.71	0.0	controle	high_pain	47.0			sub-pilot018	250	18	45	47	COM11	COM7	COM3	2023-11-16_16h49.53.214	001-EEG_SVR_Officel	2022.2.5	143.9258955408424		7.3659999999999854	0_sub-pilot018_SVR_EEG_block1-2.protocol.csv	step43	6495	645.371	STIMULATE	47.2	46.9	46.9	46.9	47.2	43	531.5459999999999
525.628	0	262814	CN/Hi	10	1	0	1	0	4.0	0.0	4.0	0.0						659.5812879001023	666.9581590000307	666.9581590000307	4.0	['4', 'return']	[2.362618999904953, 2.938777899951674]	7.37	5.71	0.0	controle	high_pain	47.0			sub-pilot018	250	18	45	47	COM11	COM7	COM3	2023-11-16_16h49.53.214	001-EEG_SVR_Officel	2022.2.5	143.9258955408424		5.7140000000000555	0_sub-pilot018_SVR_EEG_block1-2.protocol.csv	step43	6495	645.371	STIMULATE	47.2	46.9	46.9	46.9	47.2	43	531.5459999999999
535.128	0	267564	wait	20	1	0	1	0	5.0	0.0	5.0	0.0						682.9109517000616	690.7525796000846	690.7525796000846	7.0	['7', 'return']	[2.3196434000274166, 2.608882699976675]	7.83	5.09	1.0	controle	high_pain	47.0			sub-pilot018	250	18	45	47	COM11	COM7	COM3	2023-11-16_16h49.53.214	001-EEG_SVR_Officel	2022.2.5	143.9258955408424		10.25	0_sub-pilot018_SVR_EEG_block1-2.protocol.csv	step45	6729	668.512	STIMULATE	47.0	46.9	46.9	47.0	47.2	45	554.6869999999999
542.958	0	271479	CNhz	12	1	0	1	0	5.0	0.0	5.0	0.0						682.9109517000616	690.7525796000846	690.7525796000846	7.0	['7', 'return']	[2.3196434000274166, 2.608882699976675]	7.83	5.09	1.0	controle	high_pain	47.0			sub-pilot018	250	18	45	47	COM11	COM7	COM3	2023-11-16_16h49.53.214	001-EEG_SVR_Officel	2022.2.5	143.9258955408424		7.829999999999927	0_sub-pilot018_SVR_EEG_block1-2.protocol.csv	step45	6729	668.512	STIMULATE	47.0	46.9	46.9	47.0	47.2	45	554.6869999999999
548.798	0	274399	CN/Hi	10	1	0	1	0	5.0	0.0	5.0	0.0						682.9109517000616	690.7525796000846	690.7525796000846	7.0	['7', 'return']	[2.3196434000274166, 2.608882699976675]	7.83	5.09	1.0	controle	high_pain	47.0			sub-pilot018	250	18	45	47	COM11	COM7	COM3	2023-11-16_16h49.53.214	001-EEG_SVR_Officel	2022.2.5	143.9258955408424		5.090000000000032	0_sub-pilot018_SVR_EEG_block1-2.protocol.csv	step45	6729	668.512	STIMULATE	47.0	46.9	46.9	47.0	47.2	45	554.6869999999999
558.598	0	279299	wait	20	1	0	1	0	6.0	0.0	6.0	0.0						706.3798558000708	712.4500056999968	712.4500056999968	2.0	['2', 'return']	[2.8372306999517605, 3.4293386000208557]	6.06	5.37	2.0	40hz	low_pain	45.0			sub-pilot018	250	18	45	47	COM11	COM7	COM3	2023-11-16_16h49.53.214	001-EEG_SVR_Officel	2022.2.5	143.9258955408424		10.549999999999955	0_sub-pilot018_SVR_EEG_block1-2.protocol.csv	step47	6951	690.564	STIMULATE	45.1	44.9	44.9	44.9	45.1	47	576.7389999999999
564.656	0	282328	40hz	9	1	0	1	0	6.0	0.0	6.0	0.0						706.3798558000708	712.4500056999968	712.4500056999968	2.0	['2', 'return']	[2.8372306999517605, 3.4293386000208557]	6.06	5.37	2.0	40hz	low_pain	45.0			sub-pilot018	250	18	45	47	COM11	COM7	COM3	2023-11-16_16h49.53.214	001-EEG_SVR_Officel	2022.2.5	143.9258955408424		6.057999999999993	0_sub-pilot018_SVR_EEG_block1-2.protocol.csv	step47	6951	690.564	STIMULATE	45.1	44.9	44.9	44.9	45.1	47	576.7389999999999
570.78	0	285390	40/Lo	8	1	0	1	0	6.0	0.0	6.0	0.0						706.3798558000708	712.4500056999968	712.4500056999968	2.0	['2', 'return']	[2.8372306999517605, 3.4293386000208557]	6.06	5.37	2.0	40hz	low_pain	45.0			sub-pilot018	250	18	45	47	COM11	COM7	COM3	2023-11-16_16h49.53.214	001-EEG_SVR_Officel	2022.2.5	143.9258955408424		5.374000000000024	0_sub-pilot018_SVR_EEG_block1-2.protocol.csv	step47	6951	690.564	STIMULATE	45.1	44.9	44.9	44.9	45.1	47	576.7389999999999
581.122	0	290561	wait	20	1	0	1	0	7.0	0.0	7.0	0.0						728.9029159999918	736.3343631000025	736.3343631000025	2.0	['2', 'return']	[2.713729099952616, 3.3288198999362066]	7.42	6.24	3.0	40hz	low_pain	45.0			sub-pilot018	250	18	45	47	COM11	COM7	COM3	2023-11-16_16h49.53.214	001-EEG_SVR_Officel	2022.2.5	143.9258955408424		11.091999999999985	0_sub-pilot018_SVR_EEG_block1-2.protocol.csv	step49	7200	715.229	STIMULATE	44.9	44.9	44.9	44.9	45.1	49	601.404
588.542	0	294271	40hz	9	1	0	1	0	7.0	0.0	7.0	0.0						728.9029159999918	736.3343631000025	736.3343631000025	2.0	['2', 'return']	[2.713729099952616, 3.3288198999362066]	7.42	6.24	3.0	40hz	low_pain	45.0			sub-pilot018	250	18	45	47	COM11	COM7	COM3	2023-11-16_16h49.53.214	001-EEG_SVR_Officel	2022.2.5	143.9258955408424		7.420000000000073	0_sub-pilot018_SVR_EEG_block1-2.protocol.csv	step49	7200	715.229	STIMULATE	44.9	44.9	44.9	44.9	45.1	49	601.404
595.532	0	297766	40/Lo	8	1	0	1	0	7.0	0.0	7.0	0.0						728.9029159999918	736.3343631000025	736.3343631000025	2.0	['2', 'return']	[2.713729099952616, 3.3288198999362066]	7.42	6.24	3.0	40hz	low_pain	45.0			sub-pilot018	250	18	45	47	COM11	COM7	COM3	2023-11-16_16h49.53.214	001-EEG_SVR_Officel	2022.2.5	143.9258955408424		6.240000000000009	0_sub-pilot018_SVR_EEG_block1-2.protocol.csv	step49	7200	715.229	STIMULATE	44.9	44.9	44.9	44.9	45.1	49	601.404
604.9	0	302450	wait	20	1	0	1	0	8.0	0.0	8.0	0.0						752.6830331000965	758.7330655000405	758.7330655000405	1.0	['1', 'return']	[2.3236478000180796, 2.8684234000975266]	6.04	5.22	0.0	20hz	low_pain	45.0			sub-pilot018	250	18	45	47	COM11	COM7	COM3	2023-11-16_16h49.53.214	001-EEG_SVR_Officel	2022.2.5	143.9258955408424		10.117999999999938	0_sub-pilot018_SVR_EEG_block1-2.protocol.csv	step51	7417	736.759	STIMULATE	45.1	44.9	44.9	44.9	45.2	51	622.934
610.938	0	305469	20hz	6	1	0	1	0	8.0	0.0	8.0	0.0						752.6830331000965	758.7330655000405	758.7330655000405	1.0	['1', 'return']	[2.3236478000180796, 2.8684234000975266]	6.04	5.22	0.0	20hz	low_pain	45.0			sub-pilot018	250	18	45	47	COM11	COM7	COM3	2023-11-16_16h49.53.214	001-EEG_SVR_Officel	2022.2.5	143.9258955408424		6.038000000000011	0_sub-pilot018_SVR_EEG_block1-2.protocol.csv	step51	7417	736.759	STIMULATE	45.1	44.9	44.9	44.9	45.2	51	622.934
616.908	0	308454	20/Lo	5	1	0	1	0	8.0	0.0	8.0	0.0						752.6830331000965	758.7330655000405	758.7330655000405	1.0	['1', 'return']	[2.3236478000180796, 2.8684234000975266]	6.04	5.22	0.0	20hz	low_pain	45.0			sub-pilot018	250	18	45	47	COM11	COM7	COM3	2023-11-16_16h49.53.214	001-EEG_SVR_Officel	2022.2.5	143.9258955408424		5.220000000000027	0_sub-pilot018_SVR_EEG_block1-2.protocol.csv	step51	7417	736.759	STIMULATE	45.1	44.9	44.9	44.9	45.2	51	622.934
626.84	0	313420	wait	20	1	0	1	0	9.0	0.0	9.0	0.0						774.6237619000021	781.6038862999994	781.6038862999994	4.0	['4', 'return']	[2.9500953999813646, 3.4056655999738723]	6.97	5.5	1.0	10hz	high_pain	47.0			sub-pilot018	250	18	45	47	COM11	COM7	COM3	2023-11-16_16h49.53.214	001-EEG_SVR_Officel	2022.2.5	143.9258955408424		10.682000000000016	0_sub-pilot018_SVR_EEG_block1-2.protocol.csv	step53	7649	759.782	STIMULATE	46.9	46.9	47.0	47.0	47.2	53	645.957
633.81	0	316905	10hz	3	1	0	1	0	9.0	0.0	9.0	0.0						774.6237619000021	781.6038862999994	781.6038862999994	4.0	['4', 'return']	[2.9500953999813646, 3.4056655999738723]	6.97	5.5	1.0	10hz	high_pain	47.0			sub-pilot018	250	18	45	47	COM11	COM7	COM3	2023-11-16_16h49.53.214	001-EEG_SVR_Officel	2022.2.5	143.9258955408424		6.969999999999914	0_sub-pilot018_SVR_EEG_block1-2.protocol.csv	step53	7649	759.782	STIMULATE	46.9	46.9	47.0	47.0	47.2	53	645.957
640.058	0	320029	10/Hi	1	1	0	1	0	9.0	0.0	9.0	0.0						774.6237619000021	781.6038862999994	781.6038862999994	4.0	['4', 'return']	[2.9500953999813646, 3.4056655999738723]	6.97	5.5	1.0	10hz	high_pain	47.0			sub-pilot018	250	18	45	47	COM11	COM7	COM3	2023-11-16_16h49.53.214	001-EEG_SVR_Officel	2022.2.5	143.9258955408424		5.498000000000047	0_sub-pilot018_SVR_EEG_block1-2.protocol.csv	step53	7649	759.782	STIMULATE	46.9	46.9	47.0	47.0	47.2	53	645.957
650.248	0	325124	wait	20	1	0	1	0	10.0	0.0	10.0	0.0						798.0300550000975	803.1620604000054	803.1620604000054	1.0	['1', 'return']	[2.239334600046277, 3.10339980002027]	5.12	5.0	2.0	10hz	low_pain	45.0			sub-pilot018	250	18	45	47	COM11	COM7	COM3	2023-11-16_16h49.53.214	001-EEG_SVR_Officel	2022.2.5	143.9258955408424		10.940000000000055	0_sub-pilot018_SVR_EEG_block1-2.protocol.csv	step55	7861	780.834	STIMULATE	45.1	44.9	44.9	44.9	45.1	55	667.0089999999999
655.366	0	327683	10hz	3	1	0	1	0	10.0	0.0	10.0	0.0						798.0300550000975	803.1620604000054	803.1620604000054	1.0	['1', 'return']	[2.239334600046277, 3.10339980002027]	5.12	5.0	2.0	10hz	low_pain	45.0			sub-pilot018	250	18	45	47	COM11	COM7	COM3	2023-11-16_16h49.53.214	001-EEG_SVR_Officel	2022.2.5	143.9258955408424		5.117999999999938	0_sub-pilot018_SVR_EEG_block1-2.protocol.csv	step55	7861	780.834	STIMULATE	45.1	44.9	44.9	44.9	45.1	55	667.0089999999999
661.116	0	330558	10/Lo	2	1	0	1	0	10.0	0.0	10.0	0.0						798.0300550000975	803.1620604000054	803.1620604000054	1.0	['1', 'return']	[2.239334600046277, 3.10339980002027]	5.12	5.0	2.0	10hz	low_pain	45.0			sub-pilot018	250	18	45	47	COM11	COM7	COM3	2023-11-16_16h49.53.214	001-EEG_SVR_Officel	2022.2.5	143.9258955408424		5.0	0_sub-pilot018_SVR_EEG_block1-2.protocol.csv	step55	7861	780.834	STIMULATE	45.1	44.9	44.9	44.9	45.1	55	667.0089999999999
671.5	0	335750	wait	20	1	0	1	0	11.0	0.0	11.0	0.0						819.282685500104	826.692959500011	826.692959500011	7.0	['7', 'return']	[2.378972199978307, 2.8670816000085324]	7.4	5.56	3.0	40hz	high_pain	47.0			sub-pilot018	250	18	45	47	COM11	COM7	COM3	2023-11-16_16h49.53.214	001-EEG_SVR_Officel	2022.2.5	143.9258955408424		11.134000000000015	0_sub-pilot018_SVR_EEG_block1-2.protocol.csv	step57	8100	804.901	STIMULATE	47.0	46.9	47.0	47.0	47.2	57	691.0759999999999
678.898	0	339449	40hz	9	1	0	1	0	11.0	0.0	11.0	0.0						819.282685500104	826.692959500011	826.692959500011	7.0	['7', 'return']	[2.378972199978307, 2.8670816000085324]	7.4	5.56	3.0	40hz	high_pain	47.0			sub-pilot018	250	18	45	47	COM11	COM7	COM3	2023-11-16_16h49.53.214	001-EEG_SVR_Officel	2022.2.5	143.9258955408424		7.398000000000025	0_sub-pilot018_SVR_EEG_block1-2.protocol.csv	step57	8100	804.901	STIMULATE	47.0	46.9	47.0	47.0	47.2	57	691.0759999999999
685.208	0	342604	40/Hi	7	1	0	1	0	11.0	0.0	11.0	0.0						819.282685500104	826.692959500011	826.692959500011	7.0	['7', 'return']	[2.378972199978307, 2.8670816000085324]	7.4	5.56	3.0	40hz	high_pain	47.0			sub-pilot018	250	18	45	47	COM11	COM7	COM3	2023-11-16_16h49.53.214	001-EEG_SVR_Officel	2022.2.5	143.9258955408424		5.559999999999945	0_sub-pilot018_SVR_EEG_block1-2.protocol.csv	step57	8100	804.901	STIMULATE	47.0	46.9	47.0	47.0	47.2	57	691.0759999999999
694.792	0	347396	wait	20	1	0	1	0	12.0	0.0	12.0	0.0						842.5768773000455	850.3760215000948	850.3760215000948	1.0	['1', 'return']	[2.7383953999960795, 3.3058332999935374]	7.79	6.24	0.0	10hz	low_pain	45.0			sub-pilot018	250	18	45	47	COM11	COM7	COM3	2023-11-16_16h49.53.214	001-EEG_SVR_Officel	2022.2.5	143.9258955408424		10.33400000000006	0_sub-pilot018_SVR_EEG_block1-2.protocol.csv	step59	8338	829.35	STIMULATE	45.0	44.9	44.9	44.9	45.1	59	715.525
702.58	0	351290	10hz	3	1	0	1	0	12.0	0.0	12.0	0.0						842.5768773000455	850.3760215000948	850.3760215000948	1.0	['1', 'return']	[2.7383953999960795, 3.3058332999935374]	7.79	6.24	0.0	10hz	low_pain	45.0			sub-pilot018	250	18	45	47	COM11	COM7	COM3	2023-11-16_16h49.53.214	001-EEG_SVR_Officel	2022.2.5	143.9258955408424		7.788000000000011	0_sub-pilot018_SVR_EEG_block1-2.protocol.csv	step59	8338	829.35	STIMULATE	45.0	44.9	44.9	44.9	45.1	59	715.525
709.572	0	354786	10/Lo	2	1	0	1	0	12.0	0.0	12.0	0.0						842.5768773000455	850.3760215000948	850.3760215000948	1.0	['1', 'return']	[2.7383953999960795, 3.3058332999935374]	7.79	6.24	0.0	10hz	low_pain	45.0			sub-pilot018	250	18	45	47	COM11	COM7	COM3	2023-11-16_16h49.53.214	001-EEG_SVR_Officel	2022.2.5	143.9258955408424		6.241999999999962	0_sub-pilot018_SVR_EEG_block1-2.protocol.csv	step59	8338	829.35	STIMULATE	45.0	44.9	44.9	44.9	45.1	59	715.525
718.906	0	359453	wait	20	1	0	1	0	13.0	0.0	13.0	0.0						866.6899863000726	874.5108736000257	874.5108736000257	1.0	['1', 'return']	[2.0510687000351027, 2.6508139999350533]	7.81	5.09	1.0	40hz	low_pain	45.0			sub-pilot018	250	18	45	47	COM11	COM7	COM3	2023-11-16_16h49.53.214	001-EEG_SVR_Officel	2022.2.5	143.9258955408424		10.083999999999946	0_sub-pilot018_SVR_EEG_block1-2.protocol.csv	step61	8559	852.33	STIMULATE	45.0	44.9	44.9	44.9	45.1	61	738.505
726.716	0	363358	40hz	9	1	0	1	0	13.0	0.0	13.0	0.0						866.6899863000726	874.5108736000257	874.5108736000257	1.0	['1', 'return']	[2.0510687000351027, 2.6508139999350533]	7.81	5.09	1.0	40hz	low_pain	45.0			sub-pilot018	250	18	45	47	COM11	COM7	COM3	2023-11-16_16h49.53.214	001-EEG_SVR_Officel	2022.2.5	143.9258955408424		7.810000000000059	0_sub-pilot018_SVR_EEG_block1-2.protocol.csv	step61	8559	852.33	STIMULATE	45.0	44.9	44.9	44.9	45.1	61	738.505
732.554	0	366277	40/Lo	8	1	0	1	0	13.0	0.0	13.0	0.0						866.6899863000726	874.5108736000257	874.5108736000257	1.0	['1', 'return']	[2.0510687000351027, 2.6508139999350533]	7.81	5.09	1.0	40hz	low_pain	45.0			sub-pilot018	250	18	45	47	COM11	COM7	COM3	2023-11-16_16h49.53.214	001-EEG_SVR_Officel	2022.2.5	143.9258955408424		5.087999999999965	0_sub-pilot018_SVR_EEG_block1-2.protocol.csv	step61	8559	852.33	STIMULATE	45.0	44.9	44.9	44.9	45.1	61	738.505
742.388	0	371194	wait	20	1	0	1	0	14.0	0.0	14.0	0.0						890.1720934000332	896.1600049000699	896.1600049000699	9.0	['9', 'return']	[3.6174109000712633, 3.970425200066529]	5.98	6.33	2.0	controle	high_pain	47.0			sub-pilot018	250	18	45	47	COM11	COM7	COM3	2023-11-16_16h49.53.214	001-EEG_SVR_Officel	2022.2.5	143.9258955408424		10.58400000000006	0_sub-pilot018_SVR_EEG_block1-2.protocol.csv	step63	8777	875.184	STIMULATE	47.0	46.9	47.0	47.0	47.1	63	761.3589999999999
748.364	0	374182	CNhz	12	1	0	1	0	14.0	0.0	14.0	0.0						890.1720934000332	896.1600049000699	896.1600049000699	9.0	['9', 'return']	[3.6174109000712633, 3.970425200066529]	5.98	6.33	2.0	controle	high_pain	47.0			sub-pilot018	250	18	45	47	COM11	COM7	COM3	2023-11-16_16h49.53.214	001-EEG_SVR_Officel	2022.2.5	143.9258955408424		5.975999999999999	0_sub-pilot018_SVR_EEG_block1-2.protocol.csv	step63	8777	875.184	STIMULATE	47.0	46.9	47.0	47.0	47.1	63	761.3589999999999
755.446	0	377723	CN/Hi	10	1	0	1	0	14.0	0.0	14.0	0.0						890.1720934000332	896.1600049000699	896.1600049000699	9.0	['9', 'return']	[3.6174109000712633, 3.970425200066529]	5.98	6.33	2.0	controle	high_pain	47.0			sub-pilot018	250	18	45	47	COM11	COM7	COM3	2023-11-16_16h49.53.214	001-EEG_SVR_Officel	2022.2.5	143.9258955408424		6.331999999999994	0_sub-pilot018_SVR_EEG_block1-2.protocol.csv	step63	8777	875.184	STIMULATE	47.0	46.9	47.0	47.0	47.1	63	761.3589999999999
765.364	0	382682	wait	20	1	0	1	0	15.0	0.0	15.0	0.0						913.1477126000682	920.10681440006	920.10681440006	1.0	['1', 'return']	[2.9425344000337645, 3.5829710999969393]	6.95	5.26	3.0	controle	low_pain	45.0			sub-pilot018	250	18	45	47	COM11	COM7	COM3	2023-11-16_16h49.53.214	001-EEG_SVR_Officel	2022.2.5	143.9258955408424		10.668000000000006	0_sub-pilot018_SVR_EEG_block1-2.protocol.csv	step65	8993	898.052	STIMULATE	44.9	44.9	44.9	44.9	45.0	65	784.227
772.31	0	386155	CNhz	12	1	0	1	0	15.0	0.0	15.0	0.0						913.1477126000682	920.10681440006	920.10681440006	1.0	['1', 'return']	[2.9425344000337645, 3.5829710999969393]	6.95	5.26	3.0	controle	low_pain	45.0			sub-pilot018	250	18	45	47	COM11	COM7	COM3	2023-11-16_16h49.53.214	001-EEG_SVR_Officel	2022.2.5	143.9258955408424		6.945999999999913	0_sub-pilot018_SVR_EEG_block1-2.protocol.csv	step65	8993	898.052	STIMULATE	44.9	44.9	44.9	44.9	45.0	65	784.227
778.324	0	389162	CN/Lo	11	1	0	1	0	15.0	0.0	15.0	0.0						913.1477126000682	920.10681440006	920.10681440006	1.0	['1', 'return']	[2.9425344000337645, 3.5829710999969393]	6.95	5.26	3.0	controle	low_pain	45.0			sub-pilot018	250	18	45	47	COM11	COM7	COM3	2023-11-16_16h49.53.214	001-EEG_SVR_Officel	2022.2.5	143.9258955408424		5.26400000000001	0_sub-pilot018_SVR_EEG_block1-2.protocol.csv	step65	8993	898.052	STIMULATE	44.9	44.9	44.9	44.9	45.0	65	784.227
822.788	0	411394	wait	20	2	0	2	0	0.0	0.0	0.0	0.0				p	0.4839762999908998	970.5716962000588	977.6143233000766	977.6143233000766	7.0	['7', 'return']	[2.836409999988973, 3.556532600079663]	7.03	6.42	0.0	20hz	high_pain	47.0			sub-pilot018	250	18	45	47	COM11	COM7	COM3	2023-11-16_16h49.53.214	001-EEG_SVR_Officel	2022.2.5	143.9258955408424		45.214000000000055	1_sub-pilot018_SVR_EEG_block3-4.protocol.csv	step3	417	41.525	STIMULATE	47.0	46.9	46.9	47.0	47.2	3	842.824
829.818	0	414909	20hz	6	2	0	2	0	0.0	0.0	0.0	0.0				p	0.4839762999908998	970.5716962000588	977.6143233000766	977.6143233000766	7.0	['7', 'return']	[2.836409999988973, 3.556532600079663]	7.03	6.42	0.0	20hz	high_pain	47.0			sub-pilot018	250	18	45	47	COM11	COM7	COM3	2023-11-16_16h49.53.214	001-EEG_SVR_Officel	2022.2.5	143.9258955408424		7.029999999999973	1_sub-pilot018_SVR_EEG_block3-4.protocol.csv	step3	417	41.525	STIMULATE	47.0	46.9	46.9	47.0	47.2	3	842.824
836.99	0	418495	20/Hi	4	2	0	2	0	0.0	0.0	0.0	0.0				p	0.4839762999908998	970.5716962000588	977.6143233000766	977.6143233000766	7.0	['7', 'return']	[2.836409999988973, 3.556532600079663]	7.03	6.42	0.0	20hz	high_pain	47.0			sub-pilot018	250	18	45	47	COM11	COM7	COM3	2023-11-16_16h49.53.214	001-EEG_SVR_Officel	2022.2.5	143.9258955408424		6.4220000000000255	1_sub-pilot018_SVR_EEG_block3-4.protocol.csv	step3	417	41.525	STIMULATE	47.0	46.9	46.9	47.0	47.2	3	842.824
846.408	0	423204	wait	20	2	0	2	0	1.0	0.0	1.0	0.0						994.1927619000198	1002.144554700004	1002.144554700004	6.0	['6', 'return']	[2.3368693999946117, 2.7526906999992207]	7.94	5.31	1.0	40hz	high_pain	47.0			sub-pilot018	250	18	45	47	COM11	COM7	COM3	2023-11-16_16h49.53.214	001-EEG_SVR_Officel	2022.2.5	143.9258955408424		10.168000000000006	1_sub-pilot018_SVR_EEG_block3-4.protocol.csv	step5	654	65.051	STIMULATE	47.1	46.9	46.9	47.0	47.1	5	866.35
854.348	0	427174	40hz	9	2	0	2	0	1.0	0.0	1.0	0.0						994.1927619000198	1002.144554700004	1002.144554700004	6.0	['6', 'return']	[2.3368693999946117, 2.7526906999992207]	7.94	5.31	1.0	40hz	high_pain	47.0			sub-pilot018	250	18	45	47	COM11	COM7	COM3	2023-11-16_16h49.53.214	001-EEG_SVR_Officel	2022.2.5	143.9258955408424		7.939999999999941	1_sub-pilot018_SVR_EEG_block3-4.protocol.csv	step5	654	65.051	STIMULATE	47.1	46.9	46.9	47.0	47.1	5	866.35
860.408	0	430204	40/Hi	7	2	0	2	0	1.0	0.0	1.0	0.0						994.1927619000198	1002.144554700004	1002.144554700004	6.0	['6', 'return']	[2.3368693999946117, 2.7526906999992207]	7.94	5.31	1.0	40hz	high_pain	47.0			sub-pilot018	250	18	45	47	COM11	COM7	COM3	2023-11-16_16h49.53.214	001-EEG_SVR_Officel	2022.2.5	143.9258955408424		5.310000000000059	1_sub-pilot018_SVR_EEG_block3-4.protocol.csv	step5	654	65.051	STIMULATE	47.1	46.9	46.9	47.0	47.1	5	866.35
870.132	0	435066	wait	20	2	0	2	0	2.0	0.0	2.0	0.0						1017.9173201000084	1022.9455189000582	1022.9455189000582	7.0	['7', 'return']	[2.383693299954757, 2.720149799948558]	5.02	5.66	2.0	20hz	high_pain	47.0			sub-pilot018	250	18	45	47	COM11	COM7	COM3	2023-11-16_16h49.53.214	001-EEG_SVR_Officel	2022.2.5	143.9258955408424		10.473999999999933	1_sub-pilot018_SVR_EEG_block3-4.protocol.csv	step7	867	86.13	STIMULATE	47.2	46.9	47.0	47.0	47.2	7	887.429
875.15	0	437575	20hz	6	2	0	2	0	2.0	0.0	2.0	0.0						1017.9173201000084	1022.9455189000582	1022.9455189000582	7.0	['7', 'return']	[2.383693299954757, 2.720149799948558]	5.02	5.66	2.0	20hz	high_pain	47.0			sub-pilot018	250	18	45	47	COM11	COM7	COM3	2023-11-16_16h49.53.214	001-EEG_SVR_Officel	2022.2.5	143.9258955408424		5.018000000000029	1_sub-pilot018_SVR_EEG_block3-4.protocol.csv	step7	867	86.13	STIMULATE	47.2	46.9	47.0	47.0	47.2	7	887.429
881.558	0	440779	20/Hi	4	2	0	2	0	2.0	0.0	2.0	0.0						1017.9173201000084	1022.9455189000582	1022.9455189000582	7.0	['7', 'return']	[2.383693299954757, 2.720149799948558]	5.02	5.66	2.0	20hz	high_pain	47.0			sub-pilot018	250	18	45	47	COM11	COM7	COM3	2023-11-16_16h49.53.214	001-EEG_SVR_Officel	2022.2.5	143.9258955408424		5.6580000000000155	1_sub-pilot018_SVR_EEG_block3-4.protocol.csv	step7	867	86.13	STIMULATE	47.2	46.9	47.0	47.0	47.2	7	887.429
890.898	0	445449	wait	20	2	0	2	0	3.0	0.0	3.0	0.0						1038.683553100098	1046.4901585000334	1046.4901585000334	2.0	['2', 'return']	[3.1660689000273123, 3.7354206000454724]	7.8	6.42	3.0	40hz	low_pain	45.0			sub-pilot018	250	18	45	47	COM11	COM7	COM3	2023-11-16_16h49.53.214	001-EEG_SVR_Officel	2022.2.5	143.9258955408424		10.090000000000032	1_sub-pilot018_SVR_EEG_block3-4.protocol.csv	step9	1112	110.411	STIMULATE	44.9	44.9	44.9	44.9	45.0	9	911.71
898.694	0	449347	40hz	9	2	0	2	0	3.0	0.0	3.0	0.0						1038.683553100098	1046.4901585000334	1046.4901585000334	2.0	['2', 'return']	[3.1660689000273123, 3.7354206000454724]	7.8	6.42	3.0	40hz	low_pain	45.0			sub-pilot018	250	18	45	47	COM11	COM7	COM3	2023-11-16_16h49.53.214	001-EEG_SVR_Officel	2022.2.5	143.9258955408424		7.795999999999935	1_sub-pilot018_SVR_EEG_block3-4.protocol.csv	step9	1112	110.411	STIMULATE	44.9	44.9	44.9	44.9	45.0	9	911.71
905.866	0	452933	40/Lo	8	2	0	2	0	3.0	0.0	3.0	0.0						1038.683553100098	1046.4901585000334	1046.4901585000334	2.0	['2', 'return']	[3.1660689000273123, 3.7354206000454724]	7.8	6.42	3.0	40hz	low_pain	45.0			sub-pilot018	250	18	45	47	COM11	COM7	COM3	2023-11-16_16h49.53.214	001-EEG_SVR_Officel	2022.2.5	143.9258955408424		6.4220000000000255	1_sub-pilot018_SVR_EEG_block3-4.protocol.csv	step9	1112	110.411	STIMULATE	44.9	44.9	44.9	44.9	45.0	9	911.71
915.458	0	457729	wait	20	2	0	2	0	4.0	0.0	4.0	0.0						1063.2427390000084	1069.47235070006	1069.47235070006	3.0	['3', 'return']	[2.2963313999352977, 2.8493344999151304]	6.22	6.08	0.0	controle	low_pain	45.0			sub-pilot018	250	18	45	47	COM11	COM7	COM3	2023-11-16_16h49.53.214	001-EEG_SVR_Officel	2022.2.5	143.9258955408424		10.341999999999985	1_sub-pilot018_SVR_EEG_block3-4.protocol.csv	step11	1340	133.008	STIMULATE	45.0	44.9	44.9	44.9	45.2	11	934.307
921.674	0	460837	CNhz	12	2	0	2	0	4.0	0.0	4.0	0.0						1063.2427390000084	1069.47235070006	1069.47235070006	3.0	['3', 'return']	[2.2963313999352977, 2.8493344999151304]	6.22	6.08	0.0	controle	low_pain	45.0			sub-pilot018	250	18	45	47	COM11	COM7	COM3	2023-11-16_16h49.53.214	001-EEG_SVR_Officel	2022.2.5	143.9258955408424		6.216000000000008	1_sub-pilot018_SVR_EEG_block3-4.protocol.csv	step11	1340	133.008	STIMULATE	45.0	44.9	44.9	44.9	45.2	11	934.307
928.508	0	464254	CN/Lo	11	2	0	2	0	4.0	0.0	4.0	0.0						1063.2427390000084	1069.47235070006	1069.47235070006	3.0	['3', 'return']	[2.2963313999352977, 2.8493344999151304]	6.22	6.08	0.0	controle	low_pain	45.0			sub-pilot018	250	18	45	47	COM11	COM7	COM3	2023-11-16_16h49.53.214	001-EEG_SVR_Officel	2022.2.5	143.9258955408424		6.08400000000006	1_sub-pilot018_SVR_EEG_block3-4.protocol.csv	step11	1340	133.008	STIMULATE	45.0	44.9	44.9	44.9	45.2	11	934.307
937.558	0	468779	wait	20	2	0	2	0	5.0	0.0	5.0	0.0						1085.3423697000835	1092.079106800025	1092.079106800025	5.0	['5', 'return']	[2.3469341000309214, 2.8346957000903785]	6.73	5.29	1.0	controle	high_pain	47.0			sub-pilot018	250	18	45	47	COM11	COM7	COM3	2023-11-16_16h49.53.214	001-EEG_SVR_Officel	2022.2.5	143.9258955408424		9.799999999999955	1_sub-pilot018_SVR_EEG_block3-4.protocol.csv	step13	1561	154.934	STIMULATE	47.0	46.9	47.0	47.0	47.2	13	956.233
944.284	0	472142	CNhz	12	2	0	2	0	5.0	0.0	5.0	0.0						1085.3423697000835	1092.079106800025	1092.079106800025	5.0	['5', 'return']	[2.3469341000309214, 2.8346957000903785]	6.73	5.29	1.0	controle	high_pain	47.0			sub-pilot018	250	18	45	47	COM11	COM7	COM3	2023-11-16_16h49.53.214	001-EEG_SVR_Officel	2022.2.5	143.9258955408424		6.725999999999999	1_sub-pilot018_SVR_EEG_block3-4.protocol.csv	step13	1561	154.934	STIMULATE	47.0	46.9	47.0	47.0	47.2	13	956.233
950.33	0	475165	CN/Hi	10	2	0	2	0	5.0	0.0	5.0	0.0						1085.3423697000835	1092.079106800025	1092.079106800025	5.0	['5', 'return']	[2.3469341000309214, 2.8346957000903785]	6.73	5.29	1.0	controle	high_pain	47.0			sub-pilot018	250	18	45	47	COM11	COM7	COM3	2023-11-16_16h49.53.214	001-EEG_SVR_Officel	2022.2.5	143.9258955408424		5.296000000000049	1_sub-pilot018_SVR_EEG_block3-4.protocol.csv	step13	1561	154.934	STIMULATE	47.0	46.9	47.0	47.0	47.2	13	956.233
960.158	0	480079	wait	20	2	0	2	0	6.0	0.0	6.0	0.0						1107.9420408000003	1113.17173870001	1113.17173870001	3.0	['3', 'return']	[2.3746500000124797, 2.9337964999722317]	5.22	5.23	2.0	40hz	high_pain	47.0			sub-pilot018	250	18	45	47	COM11	COM7	COM3	2023-11-16_16h49.53.214	001-EEG_SVR_Officel	2022.2.5	143.9258955408424		10.577999999999975	1_sub-pilot018_SVR_EEG_block3-4.protocol.csv	step15	1772	175.825	STIMULATE	47.0	46.9	47.0	47.0	47.2	15	977.124
965.376	0	482688	40hz	9	2	0	2	0	6.0	0.0	6.0	0.0						1107.9420408000003	1113.17173870001	1113.17173870001	3.0	['3', 'return']	[2.3746500000124797, 2.9337964999722317]	5.22	5.23	2.0	40hz	high_pain	47.0			sub-pilot018	250	18	45	47	COM11	COM7	COM3	2023-11-16_16h49.53.214	001-EEG_SVR_Officel	2022.2.5	143.9258955408424		5.217999999999961	1_sub-pilot018_SVR_EEG_block3-4.protocol.csv	step15	1772	175.825	STIMULATE	47.0	46.9	47.0	47.0	47.2	15	977.124
971.36	0	485680	40/Hi	7	2	0	2	0	6.0	0.0	6.0	0.0						1107.9420408000003	1113.17173870001	1113.17173870001	3.0	['3', 'return']	[2.3746500000124797, 2.9337964999722317]	5.22	5.23	2.0	40hz	high_pain	47.0			sub-pilot018	250	18	45	47	COM11	COM7	COM3	2023-11-16_16h49.53.214	001-EEG_SVR_Officel	2022.2.5	143.9258955408424		5.234000000000037	1_sub-pilot018_SVR_EEG_block3-4.protocol.csv	step15	1772	175.825	STIMULATE	47.0	46.9	47.0	47.0	47.2	15	977.124
981.34	0	490670	wait	20	2	0	2	0	7.0	0.0	7.0	0.0						1129.1253149000695	1135.4871186000528	1135.4871186000528	1.0	['1', 'return']	[2.3539649000158533, 2.890318499994464]	6.35	5.1	3.0	controle	low_pain	45.0			sub-pilot018	250	18	45	47	COM11	COM7	COM3	2023-11-16_16h49.53.214	001-EEG_SVR_Officel	2022.2.5	143.9258955408424		10.730000000000018	1_sub-pilot018_SVR_EEG_block3-4.protocol.csv	step17	1997	198.172	STIMULATE	44.9	44.9	44.9	44.9	45.1	17	999.471
987.69	0	493845	CNhz	12	2	0	2	0	7.0	0.0	7.0	0.0						1129.1253149000695	1135.4871186000528	1135.4871186000528	1.0	['1', 'return']	[2.3539649000158533, 2.890318499994464]	6.35	5.1	3.0	controle	low_pain	45.0			sub-pilot018	250	18	45	47	COM11	COM7	COM3	2023-11-16_16h49.53.214	001-EEG_SVR_Officel	2022.2.5	143.9258955408424		6.350000000000023	1_sub-pilot018_SVR_EEG_block3-4.protocol.csv	step17	1997	198.172	STIMULATE	44.9	44.9	44.9	44.9	45.1	17	999.471
993.542	0	496771	CN/Lo	11	2	0	2	0	7.0	0.0	7.0	0.0						1129.1253149000695	1135.4871186000528	1135.4871186000528	1.0	['1', 'return']	[2.3539649000158533, 2.890318499994464]	6.35	5.1	3.0	controle	low_pain	45.0			sub-pilot018	250	18	45	47	COM11	COM7	COM3	2023-11-16_16h49.53.214	001-EEG_SVR_Officel	2022.2.5	143.9258955408424		5.101999999999975	1_sub-pilot018_SVR_EEG_block3-4.protocol.csv	step17	1997	198.172	STIMULATE	44.9	44.9	44.9	44.9	45.1	17	999.471
1003.614	0	501807	wait	20	2	0	2	0	8.0	0.0	8.0	0.0						1151.3987090000885	1157.0868950000731	1157.0868950000731	1.0	['1', 'return']	[2.066575499949977, 2.6342588999541476]	5.68	5.32	0.0	10hz	low_pain	45.0			sub-pilot018	250	18	45	47	COM11	COM7	COM3	2023-11-16_16h49.53.214	001-EEG_SVR_Officel	2022.2.5	143.9258955408424		10.822000000000003	1_sub-pilot018_SVR_EEG_block3-4.protocol.csv	step19	2217	219.983	STIMULATE	45.0	44.9	44.9	44.9	45.2	19	1021.282
1009.29	0	504645	10hz	3	2	0	2	0	8.0	0.0	8.0	0.0						1151.3987090000885	1157.0868950000731	1157.0868950000731	1.0	['1', 'return']	[2.066575499949977, 2.6342588999541476]	5.68	5.32	0.0	10hz	low_pain	45.0			sub-pilot018	250	18	45	47	COM11	COM7	COM3	2023-11-16_16h49.53.214	001-EEG_SVR_Officel	2022.2.5	143.9258955408424		5.675999999999931	1_sub-pilot018_SVR_EEG_block3-4.protocol.csv	step19	2217	219.983	STIMULATE	45.0	44.9	44.9	44.9	45.2	19	1021.282
1015.358	0	507679	10/Lo	2	2	0	2	0	8.0	0.0	8.0	0.0						1151.3987090000885	1157.0868950000731	1157.0868950000731	1.0	['1', 'return']	[2.066575499949977, 2.6342588999541476]	5.68	5.32	0.0	10hz	low_pain	45.0			sub-pilot018	250	18	45	47	COM11	COM7	COM3	2023-11-16_16h49.53.214	001-EEG_SVR_Officel	2022.2.5	143.9258955408424		5.317999999999984	1_sub-pilot018_SVR_EEG_block3-4.protocol.csv	step19	2217	219.983	STIMULATE	45.0	44.9	44.9	44.9	45.2	19	1021.282
1024.948	0	512474	wait	20	2	0	2	0	9.0	0.0	9.0	0.0						1172.7340130000375	1178.423574800021	1178.423574800021	1.0	['1', 'return']	[2.386733300052583, 2.9158413000404835]	5.68	5.95	1.0	20hz	low_pain	45.0			sub-pilot018	250	18	45	47	COM11	COM7	COM3	2023-11-16_16h49.53.214	001-EEG_SVR_Officel	2022.2.5	143.9258955408424		10.340000000000146	1_sub-pilot018_SVR_EEG_block3-4.protocol.csv	step21	2439	241.92	STIMULATE	44.9	44.9	44.9	44.9	45.2	21	1043.219
1030.626	0	515313	20hz	6	2	0	2	0	9.0	0.0	9.0	0.0						1172.7340130000375	1178.423574800021	1178.423574800021	1.0	['1', 'return']	[2.386733300052583, 2.9158413000404835]	5.68	5.95	1.0	20hz	low_pain	45.0			sub-pilot018	250	18	45	47	COM11	COM7	COM3	2023-11-16_16h49.53.214	001-EEG_SVR_Officel	2022.2.5	143.9258955408424		5.677999999999884	1_sub-pilot018_SVR_EEG_block3-4.protocol.csv	step21	2439	241.92	STIMULATE	44.9	44.9	44.9	44.9	45.2	21	1043.219
1037.326	0	518663	20/Lo	5	2	0	2	0	9.0	0.0	9.0	0.0						1172.7340130000375	1178.423574800021	1178.423574800021	1.0	['1', 'return']	[2.386733300052583, 2.9158413000404835]	5.68	5.95	1.0	20hz	low_pain	45.0			sub-pilot018	250	18	45	47	COM11	COM7	COM3	2023-11-16_16h49.53.214	001-EEG_SVR_Officel	2022.2.5	143.9258955408424		5.9500000000000455	1_sub-pilot018_SVR_EEG_block3-4.protocol.csv	step21	2439	241.92	STIMULATE	44.9	44.9	44.9	44.9	45.2	21	1043.219
1046.57	0	523284	wait	20	2	0	2	0	10.0	0.0	10.0	0.0						1194.3557198001072	1199.4059822000563	1199.4059822000563	8.0	['8', 'return']	[2.4462669999338686, 2.90959259995725]	5.04	6.2	2.0	10hz	high_pain	47.0			sub-pilot018	250	18	45	47	COM11	COM7	COM3	2023-11-16_16h49.53.214	001-EEG_SVR_Officel	2022.2.5	143.9258955408424		9.993999999999915	1_sub-pilot018_SVR_EEG_block3-4.protocol.csv	step23	2653	263.164	STIMULATE	47.1	46.9	46.9	47.0	47.1	23	1064.463
1051.608	0	525804	10hz	3	2	0	2	0	10.0	0.0	10.0	0.0						1194.3557198001072	1199.4059822000563	1199.4059822000563	8.0	['8', 'return']	[2.4462669999338686, 2.90959259995725]	5.04	6.2	2.0	10hz	high_pain	47.0			sub-pilot018	250	18	45	47	COM11	COM7	COM3	2023-11-16_16h49.53.214	001-EEG_SVR_Officel	2022.2.5	143.9258955408424		5.038000000000011	1_sub-pilot018_SVR_EEG_block3-4.protocol.csv	step23	2653	263.164	STIMULATE	47.1	46.9	46.9	47.0	47.1	23	1064.463
1058.558	0	529279	10/Hi	1	2	0	2	0	10.0	0.0	10.0	0.0						1194.3557198001072	1199.4059822000563	1199.4059822000563	8.0	['8', 'return']	[2.4462669999338686, 2.90959259995725]	5.04	6.2	2.0	10hz	high_pain	47.0			sub-pilot018	250	18	45	47	COM11	COM7	COM3	2023-11-16_16h49.53.214	001-EEG_SVR_Officel	2022.2.5	143.9258955408424		6.2000000000000455	1_sub-pilot018_SVR_EEG_block3-4.protocol.csv	step23	2653	263.164	STIMULATE	47.1	46.9	46.9	47.0	47.1	23	1064.463
1067.544	0	533772	wait	20	2	0	2	0	11.0	0.0	11.0	0.0						1215.3301040000515	1222.191916800104	1222.191916800104	4.0	['4', 'return']	[2.40147399995476, 3.1538034999975935]	6.85	5.54	3.0	controle	high_pain	47.0			sub-pilot018	250	18	45	47	COM11	COM7	COM3	2023-11-16_16h49.53.214	001-EEG_SVR_Officel	2022.2.5	143.9258955408424		9.736000000000104	1_sub-pilot018_SVR_EEG_block3-4.protocol.csv	step25	2876	285.273	STIMULATE	47.0	46.9	47.0	47.0	47.0	25	1086.5720000000001
1074.394	0	537197	CNhz	12	2	0	2	0	11.0	0.0	11.0	0.0						1215.3301040000515	1222.191916800104	1222.191916800104	4.0	['4', 'return']	[2.40147399995476, 3.1538034999975935]	6.85	5.54	3.0	controle	high_pain	47.0			sub-pilot018	250	18	45	47	COM11	COM7	COM3	2023-11-16_16h49.53.214	001-EEG_SVR_Officel	2022.2.5	143.9258955408424		6.849999999999909	1_sub-pilot018_SVR_EEG_block3-4.protocol.csv	step25	2876	285.273	STIMULATE	47.0	46.9	47.0	47.0	47.0	25	1086.5720000000001
1080.686	0	540343	CN/Hi	10	2	0	2	0	11.0	0.0	11.0	0.0						1215.3301040000515	1222.191916800104	1222.191916800104	4.0	['4', 'return']	[2.40147399995476, 3.1538034999975935]	6.85	5.54	3.0	controle	high_pain	47.0			sub-pilot018	250	18	45	47	COM11	COM7	COM3	2023-11-16_16h49.53.214	001-EEG_SVR_Officel	2022.2.5	143.9258955408424		5.541999999999916	1_sub-pilot018_SVR_EEG_block3-4.protocol.csv	step25	2876	285.273	STIMULATE	47.0	46.9	47.0	47.0	47.0	25	1086.5720000000001
1090.582	0	545291	wait	20	2	0	2	0	12.0	0.0	12.0	0.0						1238.3674646000145	1246.125356100034	1246.125356100034	1.0	['1', 'return']	[2.5079185999929905, 3.2529098000377417]	7.75	6.43	0.0	40hz	low_pain	45.0			sub-pilot018	250	18	45	47	COM11	COM7	COM3	2023-11-16_16h49.53.214	001-EEG_SVR_Officel	2022.2.5	143.9258955408424		10.646000000000186	1_sub-pilot018_SVR_EEG_block3-4.protocol.csv	step27	3127	310.145	STIMULATE	45.1	44.9	44.9	44.9	45.1	27	1111.444
1098.328	0	549164	40hz	9	2	0	2	0	12.0	0.0	12.0	0.0						1238.3674646000145	1246.125356100034	1246.125356100034	1.0	['1', 'return']	[2.5079185999929905, 3.2529098000377417]	7.75	6.43	0.0	40hz	low_pain	45.0			sub-pilot018	250	18	45	47	COM11	COM7	COM3	2023-11-16_16h49.53.214	001-EEG_SVR_Officel	2022.2.5	143.9258955408424		7.745999999999867	1_sub-pilot018_SVR_EEG_block3-4.protocol.csv	step27	3127	310.145	STIMULATE	45.1	44.9	44.9	44.9	45.1	27	1111.444
1105.506	0	552753	40/Lo	8	2	0	2	0	12.0	0.0	12.0	0.0						1238.3674646000145	1246.125356100034	1246.125356100034	1.0	['1', 'return']	[2.5079185999929905, 3.2529098000377417]	7.75	6.43	0.0	40hz	low_pain	45.0			sub-pilot018	250	18	45	47	COM11	COM7	COM3	2023-11-16_16h49.53.214	001-EEG_SVR_Officel	2022.2.5	143.9258955408424		6.428000000000111	1_sub-pilot018_SVR_EEG_block3-4.protocol.csv	step27	3127	310.145	STIMULATE	45.1	44.9	44.9	44.9	45.1	27	1111.444
1114.606	0	557303	wait	20	2	0	2	0	13.0	0.0	13.0	0.0						1262.3915398000972	1268.322479500086	1268.322479500086	2.0	['2', 'return']	[2.223296200041659, 2.791644799988717]	5.92	6.01	1.0	10hz	low_pain	45.0			sub-pilot018	250	18	45	47	COM11	COM7	COM3	2023-11-16_16h49.53.214	001-EEG_SVR_Officel	2022.2.5	143.9258955408424		9.849999999999909	1_sub-pilot018_SVR_EEG_block3-4.protocol.csv	step29	3346	331.896	STIMULATE	45.0	44.9	44.9	44.9	45.2	29	1133.1950000000002
1120.524	0	560262	10hz	3	2	0	2	0	13.0	0.0	13.0	0.0						1262.3915398000972	1268.322479500086	1268.322479500086	2.0	['2', 'return']	[2.223296200041659, 2.791644799988717]	5.92	6.01	1.0	10hz	low_pain	45.0			sub-pilot018	250	18	45	47	COM11	COM7	COM3	2023-11-16_16h49.53.214	001-EEG_SVR_Officel	2022.2.5	143.9258955408424		5.917999999999893	1_sub-pilot018_SVR_EEG_block3-4.protocol.csv	step29	3346	331.896	STIMULATE	45.0	44.9	44.9	44.9	45.2	29	1133.1950000000002
1127.286	0	563643	10/Lo	2	2	0	2	0	13.0	0.0	13.0	0.0						1262.3915398000972	1268.322479500086	1268.322479500086	2.0	['2', 'return']	[2.223296200041659, 2.791644799988717]	5.92	6.01	1.0	10hz	low_pain	45.0			sub-pilot018	250	18	45	47	COM11	COM7	COM3	2023-11-16_16h49.53.214	001-EEG_SVR_Officel	2022.2.5	143.9258955408424		6.012000000000171	1_sub-pilot018_SVR_EEG_block3-4.protocol.csv	step29	3346	331.896	STIMULATE	45.0	44.9	44.9	44.9	45.2	29	1133.1950000000002
1136.336	0	568168	wait	20	2	0	2	0	14.0	0.0	14.0	0.0						1284.1229692000195	1291.2905128001005	1291.2905128001005	1.0	['1', 'return']	[2.3745931999292225, 3.3588143999222666]	7.16	5.72	2.0	10hz	low_pain	45.0			sub-pilot018	250	18	45	47	COM11	COM7	COM3	2023-11-16_16h49.53.214	001-EEG_SVR_Officel	2022.2.5	143.9258955408424		9.799999999999955	1_sub-pilot018_SVR_EEG_block3-4.protocol.csv	step31	3575	354.536	STIMULATE	45.0	44.9	44.9	44.9	45.2	31	1155.835
1143.492	0	571746	10hz	3	2	0	2	0	14.0	0.0	14.0	0.0						1284.1229692000195	1291.2905128001005	1291.2905128001005	1.0	['1', 'return']	[2.3745931999292225, 3.3588143999222666]	7.16	5.72	2.0	10hz	low_pain	45.0			sub-pilot018	250	18	45	47	COM11	COM7	COM3	2023-11-16_16h49.53.214	001-EEG_SVR_Officel	2022.2.5	143.9258955408424		7.155999999999949	1_sub-pilot018_SVR_EEG_block3-4.protocol.csv	step31	3575	354.536	STIMULATE	45.0	44.9	44.9	44.9	45.2	31	1155.835
1149.962	0	574981	10/Lo	2	2	0	2	0	14.0	0.0	14.0	0.0						1284.1229692000195	1291.2905128001005	1291.2905128001005	1.0	['1', 'return']	[2.3745931999292225, 3.3588143999222666]	7.16	5.72	2.0	10hz	low_pain	45.0			sub-pilot018	250	18	45	47	COM11	COM7	COM3	2023-11-16_16h49.53.214	001-EEG_SVR_Officel	2022.2.5	143.9258955408424		5.720000000000027	1_sub-pilot018_SVR_EEG_block3-4.protocol.csv	step31	3575	354.536	STIMULATE	45.0	44.9	44.9	44.9	45.2	31	1155.835
1159.88	0	579940	wait	20	2	0	2	0	15.0	0.0	15.0	0.0						1307.6674965000711	1313.7239403000567	1313.7239403000567	6.0	['6', 'return']	[2.5897854000795633, 3.1333391000516713]	6.05	5.71	3.0	40hz	high_pain	47.0			sub-pilot018	250	18	45	47	COM11	COM7	COM3	2023-11-16_16h49.53.214	001-EEG_SVR_Officel	2022.2.5	143.9258955408424		10.66800000000012	1_sub-pilot018_SVR_EEG_block3-4.protocol.csv	step33	3801	376.986	STIMULATE	47.0	46.9	47.0	47.0	47.1	33	1178.2849999999999
1165.926	0	582963	40hz	9	2	0	2	0	15.0	0.0	15.0	0.0						1307.6674965000711	1313.7239403000567	1313.7239403000567	6.0	['6', 'return']	[2.5897854000795633, 3.1333391000516713]	6.05	5.71	3.0	40hz	high_pain	47.0			sub-pilot018	250	18	45	47	COM11	COM7	COM3	2023-11-16_16h49.53.214	001-EEG_SVR_Officel	2022.2.5	143.9258955408424		6.045999999999822	1_sub-pilot018_SVR_EEG_block3-4.protocol.csv	step33	3801	376.986	STIMULATE	47.0	46.9	47.0	47.0	47.1	33	1178.2849999999999
1172.39	0	586195	40/Hi	7	2	0	2	0	15.0	0.0	15.0	0.0						1307.6674965000711	1313.7239403000567	1313.7239403000567	6.0	['6', 'return']	[2.5897854000795633, 3.1333391000516713]	6.05	5.71	3.0	40hz	high_pain	47.0			sub-pilot018	250	18	45	47	COM11	COM7	COM3	2023-11-16_16h49.53.214	001-EEG_SVR_Officel	2022.2.5	143.9258955408424		5.714000000000169	1_sub-pilot018_SVR_EEG_block3-4.protocol.csv	step33	3801	376.986	STIMULATE	47.0	46.9	47.0	47.0	47.1	33	1178.2849999999999
1216.118	0	608059	wait	20	3	0	3	0	0.0	0.0	0.0	0.0				p	0.5505627000238746	1363.9037871001055	1369.3626205000328	1369.3626205000328	8.0	['8', 'return']	[2.11059490009211, 2.4713145000860095]	5.45	6.07	0.0	controle	high_pain	47.0			sub-pilot018	250	18	45	47	COM11	COM7	COM3	2023-11-16_16h49.53.214	001-EEG_SVR_Officel	2022.2.5	143.9258955408424		44.47799999999984	1_sub-pilot018_SVR_EEG_block3-4.protocol.csv	step35	4364	433.03	STIMULATE	47.1	46.9	46.9	46.9	47.2	35	1234.286
1221.564	0	610782	CNhz	12	3	0	3	0	0.0	0.0	0.0	0.0				p	0.5505627000238746	1363.9037871001055	1369.3626205000328	1369.3626205000328	8.0	['8', 'return']	[2.11059490009211, 2.4713145000860095]	5.45	6.07	0.0	controle	high_pain	47.0			sub-pilot018	250	18	45	47	COM11	COM7	COM3	2023-11-16_16h49.53.214	001-EEG_SVR_Officel	2022.2.5	143.9258955408424		5.44600000000014	1_sub-pilot018_SVR_EEG_block3-4.protocol.csv	step35	4364	433.03	STIMULATE	47.1	46.9	46.9	46.9	47.2	35	1234.286
1228.382	0	614191	CN/Hi	10	3	0	3	0	0.0	0.0	0.0	0.0				p	0.5505627000238746	1363.9037871001055	1369.3626205000328	1369.3626205000328	8.0	['8', 'return']	[2.11059490009211, 2.4713145000860095]	5.45	6.07	0.0	controle	high_pain	47.0			sub-pilot018	250	18	45	47	COM11	COM7	COM3	2023-11-16_16h49.53.214	001-EEG_SVR_Officel	2022.2.5	143.9258955408424		6.067999999999984	1_sub-pilot018_SVR_EEG_block3-4.protocol.csv	step35	4364	433.03	STIMULATE	47.1	46.9	46.9	46.9	47.2	35	1234.286
1237.056	0	618528	wait	20	3	0	3	0	1.0	0.0	1.0	0.0						1384.843505500001	1390.6219813000644	1390.6219813000644	8.0	['8', 'return']	[2.3642877000384033, 2.635617900057696]	5.77	5.83	1.0	10hz	high_pain	47.0			sub-pilot018	250	18	45	47	COM11	COM7	COM3	2023-11-16_16h49.53.214	001-EEG_SVR_Officel	2022.2.5	143.9258955408424		9.423999999999978	1_sub-pilot018_SVR_EEG_block3-4.protocol.csv	step37	4575	454.005	STIMULATE	47.0	46.9	47.0	47.0	47.2	37	1255.261
1242.822	0	621411	10hz	3	3	0	3	0	1.0	0.0	1.0	0.0						1384.843505500001	1390.6219813000644	1390.6219813000644	8.0	['8', 'return']	[2.3642877000384033, 2.635617900057696]	5.77	5.83	1.0	10hz	high_pain	47.0			sub-pilot018	250	18	45	47	COM11	COM7	COM3	2023-11-16_16h49.53.214	001-EEG_SVR_Officel	2022.2.5	143.9258955408424		5.765999999999849	1_sub-pilot018_SVR_EEG_block3-4.protocol.csv	step37	4575	454.005	STIMULATE	47.0	46.9	47.0	47.0	47.2	37	1255.261
1249.404	0	624702	10/Hi	1	3	0	3	0	1.0	0.0	1.0	0.0						1384.843505500001	1390.6219813000644	1390.6219813000644	8.0	['8', 'return']	[2.3642877000384033, 2.635617900057696]	5.77	5.83	1.0	10hz	high_pain	47.0			sub-pilot018	250	18	45	47	COM11	COM7	COM3	2023-11-16_16h49.53.214	001-EEG_SVR_Officel	2022.2.5	143.9258955408424		5.832000000000107	1_sub-pilot018_SVR_EEG_block3-4.protocol.csv	step37	4575	454.005	STIMULATE	47.0	46.9	47.0	47.0	47.2	37	1255.261
1258.488	0	629244	wait	20	3	0	3	0	2.0	0.0	2.0	0.0						1406.2766771001045	1412.1595337000908	1412.1595337000908	3.0	['3', 'return']	[2.1692887999815866, 2.7303809999721125]	5.87	5.22	2.0	40hz	low_pain	45.0			sub-pilot018	250	18	45	47	COM11	COM7	COM3	2023-11-16_16h49.53.214	001-EEG_SVR_Officel	2022.2.5	143.9258955408424		9.83400000000006	1_sub-pilot018_SVR_EEG_block3-4.protocol.csv	step39	4787	474.984	STIMULATE	44.9	44.9	44.9	44.9	45.2	39	1276.24
1264.36	0	632180	40hz	9	3	0	3	0	2.0	0.0	2.0	0.0						1406.2766771001045	1412.1595337000908	1412.1595337000908	3.0	['3', 'return']	[2.1692887999815866, 2.7303809999721125]	5.87	5.22	2.0	40hz	low_pain	45.0			sub-pilot018	250	18	45	47	COM11	COM7	COM3	2023-11-16_16h49.53.214	001-EEG_SVR_Officel	2022.2.5	143.9258955408424		5.871999999999844	1_sub-pilot018_SVR_EEG_block3-4.protocol.csv	step39	4787	474.984	STIMULATE	44.9	44.9	44.9	44.9	45.2	39	1276.24
1270.332	0	635166	40/Lo	8	3	0	3	0	2.0	0.0	2.0	0.0						1406.2766771001045	1412.1595337000908	1412.1595337000908	3.0	['3', 'return']	[2.1692887999815866, 2.7303809999721125]	5.87	5.22	2.0	40hz	low_pain	45.0			sub-pilot018	250	18	45	47	COM11	COM7	COM3	2023-11-16_16h49.53.214	001-EEG_SVR_Officel	2022.2.5	143.9258955408424		5.222000000000207	1_sub-pilot018_SVR_EEG_block3-4.protocol.csv	step39	4787	474.984	STIMULATE	44.9	44.9	44.9	44.9	45.2	39	1276.24
1280.124	0	640062	wait	20	3	0	3	0	3.0	0.0	3.0	0.0						1427.9120527000632	1435.7947037999984	1435.7947037999984	3.0	['3', 'return']	[2.672264900058508, 3.4391596000641584]	7.87	5.21	3.0	10hz	low_pain	45.0			sub-pilot018	250	18	45	47	COM11	COM7	COM3	2023-11-16_16h49.53.214	001-EEG_SVR_Officel	2022.2.5	143.9258955408424		10.541999999999916	1_sub-pilot018_SVR_EEG_block3-4.protocol.csv	step41	5025	498.575	STIMULATE	44.9	44.9	44.9	44.9	45.1	41	1299.8310000000001
1287.996	0	643998	10hz	3	3	0	3	0	3.0	0.0	3.0	0.0						1427.9120527000632	1435.7947037999984	1435.7947037999984	3.0	['3', 'return']	[2.672264900058508, 3.4391596000641584]	7.87	5.21	3.0	10hz	low_pain	45.0			sub-pilot018	250	18	45	47	COM11	COM7	COM3	2023-11-16_16h49.53.214	001-EEG_SVR_Officel	2022.2.5	143.9258955408424		7.872000000000071	1_sub-pilot018_SVR_EEG_block3-4.protocol.csv	step41	5025	498.575	STIMULATE	44.9	44.9	44.9	44.9	45.1	41	1299.8310000000001
1293.958	0	646979	10/Lo	2	3	0	3	0	3.0	0.0	3.0	0.0						1427.9120527000632	1435.7947037999984	1435.7947037999984	3.0	['3', 'return']	[2.672264900058508, 3.4391596000641584]	7.87	5.21	3.0	10hz	low_pain	45.0			sub-pilot018	250	18	45	47	COM11	COM7	COM3	2023-11-16_16h49.53.214	001-EEG_SVR_Officel	2022.2.5	143.9258955408424		5.211999999999989	1_sub-pilot018_SVR_EEG_block3-4.protocol.csv	step41	5025	498.575	STIMULATE	44.9	44.9	44.9	44.9	45.1	41	1299.8310000000001
1304.46	0	652230	wait	20	3	0	3	0	4.0	0.0	4.0	0.0						1452.2469864001032	1457.803762000054	1457.803762000054	2.0	['2', 'return']	[2.4783649999881163, 3.0940524000907317]	5.55	6.35	0.0	20hz	low_pain	45.0			sub-pilot018	250	18	45	47	COM11	COM7	COM3	2023-11-16_16h49.53.214	001-EEG_SVR_Officel	2022.2.5	143.9258955408424		11.251999999999953	1_sub-pilot018_SVR_EEG_block3-4.protocol.csv	step43	5259	521.755	STIMULATE	44.9	44.9	44.9	44.9	45.2	43	1323.011
1310.004	0	655002	20hz	6	3	0	3	0	4.0	0.0	4.0	0.0						1452.2469864001032	1457.803762000054	1457.803762000054	2.0	['2', 'return']	[2.4783649999881163, 3.0940524000907317]	5.55	6.35	0.0	20hz	low_pain	45.0			sub-pilot018	250	18	45	47	COM11	COM7	COM3	2023-11-16_16h49.53.214	001-EEG_SVR_Officel	2022.2.5	143.9258955408424		5.543999999999869	1_sub-pilot018_SVR_EEG_block3-4.protocol.csv	step43	5259	521.755	STIMULATE	44.9	44.9	44.9	44.9	45.2	43	1323.011
1317.108	0	658554	20/Lo	5	3	0	3	0	4.0	0.0	4.0	0.0						1452.2469864001032	1457.803762000054	1457.803762000054	2.0	['2', 'return']	[2.4783649999881163, 3.0940524000907317]	5.55	6.35	0.0	20hz	low_pain	45.0			sub-pilot018	250	18	45	47	COM11	COM7	COM3	2023-11-16_16h49.53.214	001-EEG_SVR_Officel	2022.2.5	143.9258955408424		6.354000000000042	1_sub-pilot018_SVR_EEG_block3-4.protocol.csv	step43	5259	521.755	STIMULATE	44.9	44.9	44.9	44.9	45.2	43	1323.011
1326.122	0	663061	wait	20	3	0	3	0	5.0	0.0	5.0	0.0						1473.9095604000613	1481.751101300004	1481.751101300004	6.0	['6', 'return']	[2.515059299999848, 3.051444600103423]	7.83	6.49	1.0	20hz	high_pain	47.0			sub-pilot018	250	18	45	47	COM11	COM7	COM3	2023-11-16_16h49.53.214	001-EEG_SVR_Officel	2022.2.5	143.9258955408424		9.764000000000124	1_sub-pilot018_SVR_EEG_block3-4.protocol.csv	step45	5502	545.856	STIMULATE	47.0	46.9	47.0	47.0	47.2	45	1347.112
1333.952	0	666976	20hz	6	3	0	3	0	5.0	0.0	5.0	0.0						1473.9095604000613	1481.751101300004	1481.751101300004	6.0	['6', 'return']	[2.515059299999848, 3.051444600103423]	7.83	6.49	1.0	20hz	high_pain	47.0			sub-pilot018	250	18	45	47	COM11	COM7	COM3	2023-11-16_16h49.53.214	001-EEG_SVR_Officel	2022.2.5	143.9258955408424		7.829999999999927	1_sub-pilot018_SVR_EEG_block3-4.protocol.csv	step45	5502	545.856	STIMULATE	47.0	46.9	47.0	47.0	47.2	45	1347.112
1341.194	0	670597	20/Hi	4	3	0	3	0	5.0	0.0	5.0	0.0						1473.9095604000613	1481.751101300004	1481.751101300004	6.0	['6', 'return']	[2.515059299999848, 3.051444600103423]	7.83	6.49	1.0	20hz	high_pain	47.0			sub-pilot018	250	18	45	47	COM11	COM7	COM3	2023-11-16_16h49.53.214	001-EEG_SVR_Officel	2022.2.5	143.9258955408424		6.491999999999962	1_sub-pilot018_SVR_EEG_block3-4.protocol.csv	step45	5502	545.856	STIMULATE	47.0	46.9	47.0	47.0	47.2	45	1347.112
1350.034	0	675017	wait	20	3	0	3	0	6.0	0.0	6.0	0.0						1497.8225525000598	1504.5038648000918	1504.5038648000918	4.0	['4', 'return']	[2.961753800045699, 10.338106699986383]	6.67	5.37	2.0	20hz	low_pain	45.0			sub-pilot018	250	18	45	47	COM11	COM7	COM3	2023-11-16_16h49.53.214	001-EEG_SVR_Officel	2022.2.5	143.9258955408424		9.590000000000146	1_sub-pilot018_SVR_EEG_block3-4.protocol.csv	step47	5720	567.436	STIMULATE	45.0	44.9	44.9	44.9	45.1	47	1368.692
1356.704	0	678352	20hz	6	3	0	3	0	6.0	0.0	6.0	0.0						1497.8225525000598	1504.5038648000918	1504.5038648000918	4.0	['4', 'return']	[2.961753800045699, 10.338106699986383]	6.67	5.37	2.0	20hz	low_pain	45.0			sub-pilot018	250	18	45	47	COM11	COM7	COM3	2023-11-16_16h49.53.214	001-EEG_SVR_Officel	2022.2.5	143.9258955408424		6.669999999999845	1_sub-pilot018_SVR_EEG_block3-4.protocol.csv	step47	5720	567.436	STIMULATE	45.0	44.9	44.9	44.9	45.1	47	1368.692
1362.83	0	681415	20/Lo	5	3	0	3	0	6.0	0.0	6.0	0.0						1497.8225525000598	1504.5038648000918	1504.5038648000918	4.0	['4', 'return']	[2.961753800045699, 10.338106699986383]	6.67	5.37	2.0	20hz	low_pain	45.0			sub-pilot018	250	18	45	47	COM11	COM7	COM3	2023-11-16_16h49.53.214	001-EEG_SVR_Officel	2022.2.5	143.9258955408424		5.375999999999976	1_sub-pilot018_SVR_EEG_block3-4.protocol.csv	step47	5720	567.436	STIMULATE	45.0	44.9	44.9	44.9	45.1	47	1368.692
1380.066	0	690033	wait	20	3	0	3	0	7.0	0.0	7.0	0.0						1527.852978500072	1535.5631452000234	1535.5631452000234	9.0	['9', 'return']	[2.5497266999445856, 2.765886200009845]	7.7	5.77	3.0	10hz	high_pain	47.0			sub-pilot018	250	18	45	47	COM11	COM7	COM3	2023-11-16_16h49.53.214	001-EEG_SVR_Officel	2022.2.5	143.9258955408424		17.986000000000104	1_sub-pilot018_SVR_EEG_block3-4.protocol.csv	step49	6037	598.95	STIMULATE	47.0	46.9	47.0	47.0	47.1	49	1400.2060000000001
1387.762	0	693881	10hz	3	3	0	3	0	7.0	0.0	7.0	0.0						1527.852978500072	1535.5631452000234	1535.5631452000234	9.0	['9', 'return']	[2.5497266999445856, 2.765886200009845]	7.7	5.77	3.0	10hz	high_pain	47.0			sub-pilot018	250	18	45	47	COM11	COM7	COM3	2023-11-16_16h49.53.214	001-EEG_SVR_Officel	2022.2.5	143.9258955408424		7.695999999999913	1_sub-pilot018_SVR_EEG_block3-4.protocol.csv	step49	6037	598.95	STIMULATE	47.0	46.9	47.0	47.0	47.1	49	1400.2060000000001
1394.282	0	697141	10/Hi	1	3	0	3	0	7.0	0.0	7.0	0.0						1527.852978500072	1535.5631452000234	1535.5631452000234	9.0	['9', 'return']	[2.5497266999445856, 2.765886200009845]	7.7	5.77	3.0	10hz	high_pain	47.0			sub-pilot018	250	18	45	47	COM11	COM7	COM3	2023-11-16_16h49.53.214	001-EEG_SVR_Officel	2022.2.5	143.9258955408424		5.769999999999982	1_sub-pilot018_SVR_EEG_block3-4.protocol.csv	step49	6037	598.95	STIMULATE	47.0	46.9	47.0	47.0	47.1	49	1400.2060000000001
1403.554	0	701777	wait	20	3	0	3	0	8.0	0.0	8.0	0.0						1551.343539100024	1559.275094100041	1559.275094100041	8.0	['8', 'return']	[2.7752945999382064, 3.1194501999998465]	7.92	5.96	0.0	40hz	high_pain	47.0			sub-pilot018	250	18	45	47	COM11	COM7	COM3	2023-11-16_16h49.53.214	001-EEG_SVR_Officel	2022.2.5	143.9258955408424		10.022000000000162	1_sub-pilot018_SVR_EEG_block3-4.protocol.csv	step51	6278	622.85	STIMULATE	47.0	46.9	46.9	46.9	47.2	51	1424.1060000000002
1411.474	0	705737	40hz	9	3	0	3	0	8.0	0.0	8.0	0.0						1551.343539100024	1559.275094100041	1559.275094100041	8.0	['8', 'return']	[2.7752945999382064, 3.1194501999998465]	7.92	5.96	0.0	40hz	high_pain	47.0			sub-pilot018	250	18	45	47	COM11	COM7	COM3	2023-11-16_16h49.53.214	001-EEG_SVR_Officel	2022.2.5	143.9258955408424		7.919999999999845	1_sub-pilot018_SVR_EEG_block3-4.protocol.csv	step51	6278	622.85	STIMULATE	47.0	46.9	46.9	46.9	47.2	51	1424.1060000000002
1418.19	0	709095	40/Hi	7	3	0	3	0	8.0	0.0	8.0	0.0						1551.343539100024	1559.275094100041	1559.275094100041	8.0	['8', 'return']	[2.7752945999382064, 3.1194501999998465]	7.92	5.96	0.0	40hz	high_pain	47.0			sub-pilot018	250	18	45	47	COM11	COM7	COM3	2023-11-16_16h49.53.214	001-EEG_SVR_Officel	2022.2.5	143.9258955408424		5.966000000000122	1_sub-pilot018_SVR_EEG_block3-4.protocol.csv	step51	6278	622.85	STIMULATE	47.0	46.9	46.9	46.9	47.2	51	1424.1060000000002
1427.626	0	713813	wait	20	3	0	3	0	9.0	0.0	9.0	0.0						1575.4152454000432	1582.0340004001046	1582.0340004001046	2.0	['2', 'return']	[2.727185699972324, 3.3831392999272794]	6.61	5.18	1.0	controle	low_pain	45.0			sub-pilot018	250	18	45	47	COM11	COM7	COM3	2023-11-16_16h49.53.214	001-EEG_SVR_Officel	2022.2.5	143.9258955408424		10.185999999999922	1_sub-pilot018_SVR_EEG_block3-4.protocol.csv	step53	6500	644.829	STIMULATE	45.0	44.9	44.9	44.9	45.1	53	1446.085
1434.234	0	717117	CNhz	12	3	0	3	0	9.0	0.0	9.0	0.0						1575.4152454000432	1582.0340004001046	1582.0340004001046	2.0	['2', 'return']	[2.727185699972324, 3.3831392999272794]	6.61	5.18	1.0	controle	low_pain	45.0			sub-pilot018	250	18	45	47	COM11	COM7	COM3	2023-11-16_16h49.53.214	001-EEG_SVR_Officel	2022.2.5	143.9258955408424		6.607999999999947	1_sub-pilot018_SVR_EEG_block3-4.protocol.csv	step53	6500	644.829	STIMULATE	45.0	44.9	44.9	44.9	45.1	53	1446.085
1440.166	0	720083	CN/Lo	11	3	0	3	0	9.0	0.0	9.0	0.0						1575.4152454000432	1582.0340004001046	1582.0340004001046	2.0	['2', 'return']	[2.727185699972324, 3.3831392999272794]	6.61	5.18	1.0	controle	low_pain	45.0			sub-pilot018	250	18	45	47	COM11	COM7	COM3	2023-11-16_16h49.53.214	001-EEG_SVR_Officel	2022.2.5	143.9258955408424		5.182000000000016	1_sub-pilot018_SVR_EEG_block3-4.protocol.csv	step53	6500	644.829	STIMULATE	45.0	44.9	44.9	44.9	45.1	53	1446.085
1450.65	0	725325	wait	20	3	0	3	0	10.0	0.0	10.0	0.0						1598.4388528000563	1604.8980531000998	1604.8980531000998	9.0	['9', 'return']	[2.420943700009957, 2.652862900053151]	6.45	5.1	2.0	controle	high_pain	47.0			sub-pilot018	250	18	45	47	COM11	COM7	COM3	2023-11-16_16h49.53.214	001-EEG_SVR_Officel	2022.2.5	143.9258955408424		11.234000000000151	1_sub-pilot018_SVR_EEG_block3-4.protocol.csv	step55	6730	667.619	STIMULATE	47.0	46.9	46.9	47.0	47.2	55	1468.875
1457.096	0	728548	CNhz	12	3	0	3	0	10.0	0.0	10.0	0.0						1598.4388528000563	1604.8980531000998	1604.8980531000998	9.0	['9', 'return']	[2.420943700009957, 2.652862900053151]	6.45	5.1	2.0	controle	high_pain	47.0			sub-pilot018	250	18	45	47	COM11	COM7	COM3	2023-11-16_16h49.53.214	001-EEG_SVR_Officel	2022.2.5	143.9258955408424		6.445999999999913	1_sub-pilot018_SVR_EEG_block3-4.protocol.csv	step55	6730	667.619	STIMULATE	47.0	46.9	46.9	47.0	47.2	55	1468.875
1462.95	0	731475	CN/Hi	10	3	0	3	0	10.0	0.0	10.0	0.0						1598.4388528000563	1604.8980531000998	1604.8980531000998	9.0	['9', 'return']	[2.420943700009957, 2.652862900053151]	6.45	5.1	2.0	controle	high_pain	47.0			sub-pilot018	250	18	45	47	COM11	COM7	COM3	2023-11-16_16h49.53.214	001-EEG_SVR_Officel	2022.2.5	143.9258955408424		5.104000000000042	1_sub-pilot018_SVR_EEG_block3-4.protocol.csv	step55	6730	667.619	STIMULATE	47.0	46.9	46.9	47.0	47.2	55	1468.875
1472.776	0	736388	wait	20	3	0	3	0	11.0	0.0	11.0	0.0						1620.5665022000903	1626.698579100077	1626.698579100077	1.0	['1', 'return']	[3.3181383999763057, 3.958257600083016]	6.12	5.88	3.0	20hz	low_pain	45.0			sub-pilot018	250	18	45	47	COM11	COM7	COM3	2023-11-16_16h49.53.214	001-EEG_SVR_Officel	2022.2.5	143.9258955408424		10.576000000000022	1_sub-pilot018_SVR_EEG_block3-4.protocol.csv	step57	6957	690.142	STIMULATE	44.9	44.9	44.9	44.9	45.1	57	1491.3980000000001
1478.898	0	739449	20hz	6	3	0	3	0	11.0	0.0	11.0	0.0						1620.5665022000903	1626.698579100077	1626.698579100077	1.0	['1', 'return']	[3.3181383999763057, 3.958257600083016]	6.12	5.88	3.0	20hz	low_pain	45.0			sub-pilot018	250	18	45	47	COM11	COM7	COM3	2023-11-16_16h49.53.214	001-EEG_SVR_Officel	2022.2.5	143.9258955408424		6.121999999999844	1_sub-pilot018_SVR_EEG_block3-4.protocol.csv	step57	6957	690.142	STIMULATE	44.9	44.9	44.9	44.9	45.1	57	1491.3980000000001
1485.528	0	742764	20/Lo	5	3	0	3	0	11.0	0.0	11.0	0.0						1620.5665022000903	1626.698579100077	1626.698579100077	1.0	['1', 'return']	[3.3181383999763057, 3.958257600083016]	6.12	5.88	3.0	20hz	low_pain	45.0			sub-pilot018	250	18	45	47	COM11	COM7	COM3	2023-11-16_16h49.53.214	001-EEG_SVR_Officel	2022.2.5	143.9258955408424		5.880000000000109	1_sub-pilot018_SVR_EEG_block3-4.protocol.csv	step57	6957	690.142	STIMULATE	44.9	44.9	44.9	44.9	45.1	57	1491.3980000000001
1495.878	0	747939	wait	20	3	0	3	0	12.0	0.0	12.0	0.0						1643.6670499000463	1650.153402200085	1650.153402200085	9.0	['9', 'return']	[2.3361688000150025, 2.5845284999813884]	6.48	5.89	0.0	10hz	high_pain	47.0			sub-pilot018	250	18	45	47	COM11	COM7	COM3	2023-11-16_16h49.53.214	001-EEG_SVR_Officel	2022.2.5	143.9258955408424		11.099999999999909	1_sub-pilot018_SVR_EEG_block3-4.protocol.csv	step59	7194	713.653	STIMULATE	47.0	46.9	46.9	46.9	47.2	59	1514.909
1502.354	0	751177	10hz	3	3	0	3	0	12.0	0.0	12.0	0.0						1643.6670499000463	1650.153402200085	1650.153402200085	9.0	['9', 'return']	[2.3361688000150025, 2.5845284999813884]	6.48	5.89	0.0	10hz	high_pain	47.0			sub-pilot018	250	18	45	47	COM11	COM7	COM3	2023-11-16_16h49.53.214	001-EEG_SVR_Officel	2022.2.5	143.9258955408424		6.476000000000113	1_sub-pilot018_SVR_EEG_block3-4.protocol.csv	step59	7194	713.653	STIMULATE	47.0	46.9	46.9	46.9	47.2	59	1514.909
1508.998	0	754499	10/Hi	1	3	0	3	0	12.0	0.0	12.0	0.0						1643.6670499000463	1650.153402200085	1650.153402200085	9.0	['9', 'return']	[2.3361688000150025, 2.5845284999813884]	6.48	5.89	0.0	10hz	high_pain	47.0			sub-pilot018	250	18	45	47	COM11	COM7	COM3	2023-11-16_16h49.53.214	001-EEG_SVR_Officel	2022.2.5	143.9258955408424		5.8940000000000055	1_sub-pilot018_SVR_EEG_block3-4.protocol.csv	step59	7194	713.653	STIMULATE	47.0	46.9	46.9	46.9	47.2	59	1514.909
1517.972	0	758986	wait	20	3	0	3	0	13.0	0.0	13.0	0.0						1665.7602282000007	1673.6295905000295	1673.6295905000295	3.0	['3', 'return']	[2.364630699972622, 2.9487564000301063]	7.86	5.87	1.0	40hz	low_pain	45.0			sub-pilot018	250	18	45	47	COM11	COM7	COM3	2023-11-16_16h49.53.214	001-EEG_SVR_Officel	2022.2.5	143.9258955408424		9.723999999999933	1_sub-pilot018_SVR_EEG_block3-4.protocol.csv	step61	7430	737.086	STIMULATE	44.9	44.9	44.9	44.9	45.2	61	1538.342
1525.828	0	762914	40hz	9	3	0	3	0	13.0	0.0	13.0	0.0						1665.7602282000007	1673.6295905000295	1673.6295905000295	3.0	['3', 'return']	[2.364630699972622, 2.9487564000301063]	7.86	5.87	1.0	40hz	low_pain	45.0			sub-pilot018	250	18	45	47	COM11	COM7	COM3	2023-11-16_16h49.53.214	001-EEG_SVR_Officel	2022.2.5	143.9258955408424		7.8559999999999945	1_sub-pilot018_SVR_EEG_block3-4.protocol.csv	step61	7430	737.086	STIMULATE	44.9	44.9	44.9	44.9	45.2	61	1538.342
1532.452	0	766226	40/Lo	8	3	0	3	0	13.0	0.0	13.0	0.0						1665.7602282000007	1673.6295905000295	1673.6295905000295	3.0	['3', 'return']	[2.364630699972622, 2.9487564000301063]	7.86	5.87	1.0	40hz	low_pain	45.0			sub-pilot018	250	18	45	47	COM11	COM7	COM3	2023-11-16_16h49.53.214	001-EEG_SVR_Officel	2022.2.5	143.9258955408424		5.874000000000024	1_sub-pilot018_SVR_EEG_block3-4.protocol.csv	step61	7430	737.086	STIMULATE	44.9	44.9	44.9	44.9	45.2	61	1538.342
1541.806	0	770903	wait	20	3	0	3	0	14.0	0.0	14.0	0.0						1689.5949258001056	1697.3328237000387	1697.3328237000387	1.0	['1', 'return']	[2.637553000007756, 3.2776675999630243]	7.73	5.06	2.0	controle	low_pain	45.0			sub-pilot018	250	18	45	47	COM11	COM7	COM3	2023-11-16_16h49.53.214	001-EEG_SVR_Officel	2022.2.5	143.9258955408424		10.104000000000042	1_sub-pilot018_SVR_EEG_block3-4.protocol.csv	step63	7660	759.954	STIMULATE	45.0	44.9	44.9	44.9	45.2	63	1561.21
1549.532	0	774766	CNhz	12	3	0	3	0	14.0	0.0	14.0	0.0						1689.5949258001056	1697.3328237000387	1697.3328237000387	1.0	['1', 'return']	[2.637553000007756, 3.2776675999630243]	7.73	5.06	2.0	controle	low_pain	45.0			sub-pilot018	250	18	45	47	COM11	COM7	COM3	2023-11-16_16h49.53.214	001-EEG_SVR_Officel	2022.2.5	143.9258955408424		7.725999999999885	1_sub-pilot018_SVR_EEG_block3-4.protocol.csv	step63	7660	759.954	STIMULATE	45.0	44.9	44.9	44.9	45.2	63	1561.21
1555.342	0	777671	CN/Lo	11	3	0	3	0	14.0	0.0	14.0	0.0						1689.5949258001056	1697.3328237000387	1697.3328237000387	1.0	['1', 'return']	[2.637553000007756, 3.2776675999630243]	7.73	5.06	2.0	controle	low_pain	45.0			sub-pilot018	250	18	45	47	COM11	COM7	COM3	2023-11-16_16h49.53.214	001-EEG_SVR_Officel	2022.2.5	143.9258955408424		5.060000000000173	1_sub-pilot018_SVR_EEG_block3-4.protocol.csv	step63	7660	759.954	STIMULATE	45.0	44.9	44.9	44.9	45.2	63	1561.21
1565.828	0	782914	wait	20	3	0	3	0	15.0	0.0	15.0	0.0						1713.6188801000826	1719.2173448000103	1719.2173448000103	6.0	['6', 'return']	[2.409071500063874, 2.855823199963197]	5.59	5.78	3.0	20hz	high_pain	47.0			sub-pilot018	250	18	45	47	COM11	COM7	COM3	2023-11-16_16h49.53.214	001-EEG_SVR_Officel	2022.2.5	143.9258955408424		11.235999999999876	1_sub-pilot018_SVR_EEG_block3-4.protocol.csv	step65	7884	782.631	STIMULATE	47.0	46.9	47.0	46.9	47.2	65	1583.8870000000002
1571.416	0	785708	20hz	6	3	0	3	0	15.0	0.0	15.0	0.0						1713.6188801000826	1719.2173448000103	1719.2173448000103	6.0	['6', 'return']	[2.409071500063874, 2.855823199963197]	5.59	5.78	3.0	20hz	high_pain	47.0			sub-pilot018	250	18	45	47	COM11	COM7	COM3	2023-11-16_16h49.53.214	001-EEG_SVR_Officel	2022.2.5	143.9258955408424		5.587999999999965	1_sub-pilot018_SVR_EEG_block3-4.protocol.csv	step65	7884	782.631	STIMULATE	47.0	46.9	47.0	46.9	47.2	65	1583.8870000000002
1577.95	0	788975	20/Hi	4	3	0	3	0	15.0	0.0	15.0	0.0						1713.6188801000826	1719.2173448000103	1719.2173448000103	6.0	['6', 'return']	[2.409071500063874, 2.855823199963197]	5.59	5.78	3.0	20hz	high_pain	47.0			sub-pilot018	250	18	45	47	COM11	COM7	COM3	2023-11-16_16h49.53.214	001-EEG_SVR_Officel	2022.2.5	143.9258955408424		5.7840000000001055	1_sub-pilot018_SVR_EEG_block3-4.protocol.csv	step65	7884	782.631	STIMULATE	47.0	46.9	47.0	46.9	47.2	65	1583.8870000000002
1627.184	0	813592	wait	20	4	0	4	0	0.0	0.0	0.0	0.0				p	0.6969611999811605	1774.974207399995	1782.2046721000224	1782.2046721000224	2.0	['2', 'return']	[1.9662227999651805, 2.654557300033048]	7.22	6.43	0.0	10hz	low_pain	45.0			sub-pilot018	250	18	45	47	COM11	COM7	COM3	2023-11-16_16h49.53.214	001-EEG_SVR_Officel	2022.2.5	143.9258955408424		49.983999999999924	2_sub-pilot018_SVR_EEG_block5-6.protocol.csv	step3	496	49.438	STIMULATE	45.1	44.9	44.9	44.9	45.2	3	1647.429
1634.404	0	817202	10hz	3	4	0	4	0	0.0	0.0	0.0	0.0				p	0.6969611999811605	1774.974207399995	1782.2046721000224	1782.2046721000224	2.0	['2', 'return']	[1.9662227999651805, 2.654557300033048]	7.22	6.43	0.0	10hz	low_pain	45.0			sub-pilot018	250	18	45	47	COM11	COM7	COM3	2023-11-16_16h49.53.214	001-EEG_SVR_Officel	2022.2.5	143.9258955408424		7.220000000000027	2_sub-pilot018_SVR_EEG_block5-6.protocol.csv	step3	496	49.438	STIMULATE	45.1	44.9	44.9	44.9	45.2	3	1647.429
1641.584	0	820792	10/Lo	2	4	0	4	0	0.0	0.0	0.0	0.0				p	0.6969611999811605	1774.974207399995	1782.2046721000224	1782.2046721000224	2.0	['2', 'return']	[1.9662227999651805, 2.654557300033048]	7.22	6.43	0.0	10hz	low_pain	45.0			sub-pilot018	250	18	45	47	COM11	COM7	COM3	2023-11-16_16h49.53.214	001-EEG_SVR_Officel	2022.2.5	143.9258955408424		6.430000000000064	2_sub-pilot018_SVR_EEG_block5-6.protocol.csv	step3	496	49.438	STIMULATE	45.1	44.9	44.9	44.9	45.2	3	1647.429
1650.078	0	825039	wait	20	4	0	4	0	1.0	0.0	1.0	0.0						1797.8665955000324	1804.415918700048	1804.415918700048	6.0	['6', 'return']	[2.114521799958311, 2.522684199968353]	6.54	5.61	1.0	40hz	high_pain	47.0			sub-pilot018	250	18	45	47	COM11	COM7	COM3	2023-11-16_16h49.53.214	001-EEG_SVR_Officel	2022.2.5	143.9258955408424		9.243999999999915	2_sub-pilot018_SVR_EEG_block5-6.protocol.csv	step5	711	70.717	STIMULATE	47.0	46.9	46.9	46.9	47.2	5	1668.708
1656.614	0	828307	40hz	9	4	0	4	0	1.0	0.0	1.0	0.0						1797.8665955000324	1804.415918700048	1804.415918700048	6.0	['6', 'return']	[2.114521799958311, 2.522684199968353]	6.54	5.61	1.0	40hz	high_pain	47.0			sub-pilot018	250	18	45	47	COM11	COM7	COM3	2023-11-16_16h49.53.214	001-EEG_SVR_Officel	2022.2.5	143.9258955408424		6.536000000000058	2_sub-pilot018_SVR_EEG_block5-6.protocol.csv	step5	711	70.717	STIMULATE	47.0	46.9	46.9	46.9	47.2	5	1668.708
1662.972	0	831486	40/Hi	7	4	0	4	0	1.0	0.0	1.0	0.0						1797.8665955000324	1804.415918700048	1804.415918700048	6.0	['6', 'return']	[2.114521799958311, 2.522684199968353]	6.54	5.61	1.0	40hz	high_pain	47.0			sub-pilot018	250	18	45	47	COM11	COM7	COM3	2023-11-16_16h49.53.214	001-EEG_SVR_Officel	2022.2.5	143.9258955408424		5.607999999999947	2_sub-pilot018_SVR_EEG_block5-6.protocol.csv	step5	711	70.717	STIMULATE	47.0	46.9	46.9	46.9	47.2	5	1668.708
1672.168	0	836084	wait	20	4	0	4	0	2.0	0.0	2.0	0.0						1819.9588024000404	1827.751384500065	1827.751384500065	2.0	['2', 'return']	[2.7467199000529945, 3.4420588000211865]	7.78	5.96	2.0	20hz	low_pain	45.0			sub-pilot018	250	18	45	47	COM11	COM7	COM3	2023-11-16_16h49.53.214	001-EEG_SVR_Officel	2022.2.5	143.9258955408424		9.945999999999913	2_sub-pilot018_SVR_EEG_block5-6.protocol.csv	step7	951	94.513	STIMULATE	45.0	44.9	44.9	44.9	45.1	7	1692.5040000000001
1679.95	0	839975	20hz	6	4	0	4	0	2.0	0.0	2.0	0.0						1819.9588024000404	1827.751384500065	1827.751384500065	2.0	['2', 'return']	[2.7467199000529945, 3.4420588000211865]	7.78	5.96	2.0	20hz	low_pain	45.0			sub-pilot018	250	18	45	47	COM11	COM7	COM3	2023-11-16_16h49.53.214	001-EEG_SVR_Officel	2022.2.5	143.9258955408424		7.782000000000153	2_sub-pilot018_SVR_EEG_block5-6.protocol.csv	step7	951	94.513	STIMULATE	45.0	44.9	44.9	44.9	45.1	7	1692.5040000000001
1686.664	0	843332	20/Lo	5	4	0	4	0	2.0	0.0	2.0	0.0						1819.9588024000404	1827.751384500065	1827.751384500065	2.0	['2', 'return']	[2.7467199000529945, 3.4420588000211865]	7.78	5.96	2.0	20hz	low_pain	45.0			sub-pilot018	250	18	45	47	COM11	COM7	COM3	2023-11-16_16h49.53.214	001-EEG_SVR_Officel	2022.2.5	143.9258955408424		5.963999999999942	2_sub-pilot018_SVR_EEG_block5-6.protocol.csv	step7	951	94.513	STIMULATE	45.0	44.9	44.9	44.9	45.1	7	1692.5040000000001
1696.422	0	848211	wait	20	4	0	4	0	3.0	0.0	3.0	0.0						1844.211617000052	1851.8793797000544	1851.8793797000544	1.0	['1', 'return']	[2.515100199962035, 3.1623360000085086]	7.66	5.16	3.0	20hz	low_pain	45.0			sub-pilot018	250	18	45	47	COM11	COM7	COM3	2023-11-16_16h49.53.214	001-EEG_SVR_Officel	2022.2.5	143.9258955408424		10.508000000000038	2_sub-pilot018_SVR_EEG_block5-6.protocol.csv	step9	1186	117.843	STIMULATE	44.9	44.9	44.9	44.9	45.1	9	1715.834
1704.078	0	852039	20hz	6	4	0	4	0	3.0	0.0	3.0	0.0						1844.211617000052	1851.8793797000544	1851.8793797000544	1.0	['1', 'return']	[2.515100199962035, 3.1623360000085086]	7.66	5.16	3.0	20hz	low_pain	45.0			sub-pilot018	250	18	45	47	COM11	COM7	COM3	2023-11-16_16h49.53.214	001-EEG_SVR_Officel	2022.2.5	143.9258955408424		7.655999999999949	2_sub-pilot018_SVR_EEG_block5-6.protocol.csv	step9	1186	117.843	STIMULATE	44.9	44.9	44.9	44.9	45.1	9	1715.834
1709.986	0	854993	20/Lo	5	4	0	4	0	3.0	0.0	3.0	0.0						1844.211617000052	1851.8793797000544	1851.8793797000544	1.0	['1', 'return']	[2.515100199962035, 3.1623360000085086]	7.66	5.16	3.0	20hz	low_pain	45.0			sub-pilot018	250	18	45	47	COM11	COM7	COM3	2023-11-16_16h49.53.214	001-EEG_SVR_Officel	2022.2.5	143.9258955408424		5.158000000000129	2_sub-pilot018_SVR_EEG_block5-6.protocol.csv	step9	1186	117.843	STIMULATE	44.9	44.9	44.9	44.9	45.1	9	1715.834
1720.264	0	860132	wait	20	4	0	4	0	4.0	0.0	4.0	0.0						1868.054799500038	1873.3266580000052	1873.3266580000052	2.0	['2', 'return']	[2.3149818000383675, 2.963169499998912]	5.26	5.29	0.0	controle	low_pain	45.0			sub-pilot018	250	18	45	47	COM11	COM7	COM3	2023-11-16_16h49.53.214	001-EEG_SVR_Officel	2022.2.5	143.9258955408424		11.027999999999793	2_sub-pilot018_SVR_EEG_block5-6.protocol.csv	step11	1404	139.459	STIMULATE	45.0	44.9	44.9	44.9	45.2	11	1737.45
1725.524	0	862762	CNhz	12	4	0	4	0	4.0	0.0	4.0	0.0						1868.054799500038	1873.3266580000052	1873.3266580000052	2.0	['2', 'return']	[2.3149818000383675, 2.963169499998912]	5.26	5.29	0.0	controle	low_pain	45.0			sub-pilot018	250	18	45	47	COM11	COM7	COM3	2023-11-16_16h49.53.214	001-EEG_SVR_Officel	2022.2.5	143.9258955408424		5.259999999999991	2_sub-pilot018_SVR_EEG_block5-6.protocol.csv	step11	1404	139.459	STIMULATE	45.0	44.9	44.9	44.9	45.2	11	1737.45
1731.564	0	865782	CN/Lo	11	4	0	4	0	4.0	0.0	4.0	0.0						1868.054799500038	1873.3266580000052	1873.3266580000052	2.0	['2', 'return']	[2.3149818000383675, 2.963169499998912]	5.26	5.29	0.0	controle	low_pain	45.0			sub-pilot018	250	18	45	47	COM11	COM7	COM3	2023-11-16_16h49.53.214	001-EEG_SVR_Officel	2022.2.5	143.9258955408424		5.290000000000191	2_sub-pilot018_SVR_EEG_block5-6.protocol.csv	step11	1404	139.459	STIMULATE	45.0	44.9	44.9	44.9	45.2	11	1737.45
1741.516	0	870758	wait	20	4	0	4	0	5.0	0.0	5.0	0.0						1889.3074834001015	1894.3636109000072	1894.3636109000072	3.0	['3', 'return']	[3.6135536999208853, 4.254264499992132]	5.05	5.29	1.0	controle	high_pain	47.0			sub-pilot018	250	18	45	47	COM11	COM7	COM3	2023-11-16_16h49.53.214	001-EEG_SVR_Officel	2022.2.5	143.9258955408424		10.701999999999998	2_sub-pilot018_SVR_EEG_block5-6.protocol.csv	step13	1617	160.534	STIMULATE	47.0	46.9	47.0	47.0	47.2	13	1758.525
1746.562	0	873281	CNhz	12	4	0	4	0	5.0	0.0	5.0	0.0						1889.3074834001015	1894.3636109000072	1894.3636109000072	3.0	['3', 'return']	[3.6135536999208853, 4.254264499992132]	5.05	5.29	1.0	controle	high_pain	47.0			sub-pilot018	250	18	45	47	COM11	COM7	COM3	2023-11-16_16h49.53.214	001-EEG_SVR_Officel	2022.2.5	143.9258955408424		5.045999999999822	2_sub-pilot018_SVR_EEG_block5-6.protocol.csv	step13	1617	160.534	STIMULATE	47.0	46.9	47.0	47.0	47.2	13	1758.525
1752.602	0	876301	CN/Hi	10	4	0	4	0	5.0	0.0	5.0	0.0						1889.3074834001015	1894.3636109000072	1894.3636109000072	3.0	['3', 'return']	[3.6135536999208853, 4.254264499992132]	5.05	5.29	1.0	controle	high_pain	47.0			sub-pilot018	250	18	45	47	COM11	COM7	COM3	2023-11-16_16h49.53.214	001-EEG_SVR_Officel	2022.2.5	143.9258955408424		5.290000000000191	2_sub-pilot018_SVR_EEG_block5-6.protocol.csv	step13	1617	160.534	STIMULATE	47.0	46.9	47.0	47.0	47.2	13	1758.525
1763.846	0	881923	wait	20	4	0	4	0	6.0	0.0	6.0	0.0						1911.636927000014	1918.9647410000907	1918.9647410000907	1.0	['1', 'return']	[1.941837799968198, 2.902726999949664]	7.32	6.17	2.0	10hz	low_pain	45.0			sub-pilot018	250	18	45	47	COM11	COM7	COM3	2023-11-16_16h49.53.214	001-EEG_SVR_Officel	2022.2.5	143.9258955408424		11.993999999999915	2_sub-pilot018_SVR_EEG_block5-6.protocol.csv	step15	1873	185.963	STIMULATE	45.0	44.9	44.9	44.9	45.1	15	1783.9540000000002
1771.162	0	885581	10hz	3	4	0	4	0	6.0	0.0	6.0	0.0						1911.636927000014	1918.9647410000907	1918.9647410000907	1.0	['1', 'return']	[1.941837799968198, 2.902726999949664]	7.32	6.17	2.0	10hz	low_pain	45.0			sub-pilot018	250	18	45	47	COM11	COM7	COM3	2023-11-16_16h49.53.214	001-EEG_SVR_Officel	2022.2.5	143.9258955408424		7.316000000000031	2_sub-pilot018_SVR_EEG_block5-6.protocol.csv	step15	1873	185.963	STIMULATE	45.0	44.9	44.9	44.9	45.1	15	1783.9540000000002
1778.086	0	889043	10/Lo	2	4	0	4	0	6.0	0.0	6.0	0.0						1911.636927000014	1918.9647410000907	1918.9647410000907	1.0	['1', 'return']	[1.941837799968198, 2.902726999949664]	7.32	6.17	2.0	10hz	low_pain	45.0			sub-pilot018	250	18	45	47	COM11	COM7	COM3	2023-11-16_16h49.53.214	001-EEG_SVR_Officel	2022.2.5	143.9258955408424		6.173999999999978	2_sub-pilot018_SVR_EEG_block5-6.protocol.csv	step15	1873	185.963	STIMULATE	45.0	44.9	44.9	44.9	45.1	15	1783.9540000000002
1787.084	0	893542	wait	20	4	0	4	0	7.0	0.0	7.0	0.0						1934.8750410000796	1941.5915717000607	1941.5915717000607	1.0	['1', 'return']	[2.234233299968764, 2.9136880999431014]	6.71	5.79	3.0	controle	low_pain	45.0			sub-pilot018	250	18	45	47	COM11	COM7	COM3	2023-11-16_16h49.53.214	001-EEG_SVR_Officel	2022.2.5	143.9258955408424		9.748000000000047	2_sub-pilot018_SVR_EEG_block5-6.protocol.csv	step17	2097	208.106	STIMULATE	44.9	44.9	44.9	44.9	45.1	17	1806.097
1793.788	0	896894	CNhz	12	4	0	4	0	7.0	0.0	7.0	0.0						1934.8750410000796	1941.5915717000607	1941.5915717000607	1.0	['1', 'return']	[2.234233299968764, 2.9136880999431014]	6.71	5.79	3.0	controle	low_pain	45.0			sub-pilot018	250	18	45	47	COM11	COM7	COM3	2023-11-16_16h49.53.214	001-EEG_SVR_Officel	2022.2.5	143.9258955408424		6.703999999999951	2_sub-pilot018_SVR_EEG_block5-6.protocol.csv	step17	2097	208.106	STIMULATE	44.9	44.9	44.9	44.9	45.1	17	1806.097
1800.328	0	900164	CN/Lo	11	4	0	4	0	7.0	0.0	7.0	0.0						1934.8750410000796	1941.5915717000607	1941.5915717000607	1.0	['1', 'return']	[2.234233299968764, 2.9136880999431014]	6.71	5.79	3.0	controle	low_pain	45.0			sub-pilot018	250	18	45	47	COM11	COM7	COM3	2023-11-16_16h49.53.214	001-EEG_SVR_Officel	2022.2.5	143.9258955408424		5.789999999999964	2_sub-pilot018_SVR_EEG_block5-6.protocol.csv	step17	2097	208.106	STIMULATE	44.9	44.9	44.9	44.9	45.1	17	1806.097
1809.726	0	904863	wait	20	4	0	4	0	8.0	0.0	8.0	0.0						1957.5169420000168	1962.573203900014	1962.573203900014	8.0	['8', 'return']	[2.1880293000722304, 2.421052600024268]	5.05	5.01	0.0	40hz	high_pain	47.0			sub-pilot018	250	18	45	47	COM11	COM7	COM3	2023-11-16_16h49.53.214	001-EEG_SVR_Officel	2022.2.5	143.9258955408424		10.148000000000138	2_sub-pilot018_SVR_EEG_block5-6.protocol.csv	step19	2302	228.433	STIMULATE	47.2	46.9	46.9	46.9	47.2	19	1826.424
1814.77	0	907385	40hz	9	4	0	4	0	8.0	0.0	8.0	0.0						1957.5169420000168	1962.573203900014	1962.573203900014	8.0	['8', 'return']	[2.1880293000722304, 2.421052600024268]	5.05	5.01	0.0	40hz	high_pain	47.0			sub-pilot018	250	18	45	47	COM11	COM7	COM3	2023-11-16_16h49.53.214	001-EEG_SVR_Officel	2022.2.5	143.9258955408424		5.043999999999869	2_sub-pilot018_SVR_EEG_block5-6.protocol.csv	step19	2302	228.433	STIMULATE	47.2	46.9	46.9	46.9	47.2	19	1826.424
