onset	duration	sample	trial_type	value	block.thisRepN	block.thisTrialN	block.thisN	block.thisIndex	reps.thisRepN	reps.thisTrialN	reps.thisN	reps.thisIndex	afrec_start	rec_start	rec_start_egi	key_resp.keys	key_resp.rt	wait_time_text.started	wait_time_text.stopped	therm_loca_text.started	subResponse	keyResp.keys	keyResp.rt	ITI_wait	wait_trigger	loca_thermode	Hz_condition	temp_condition	temp_valeur	text.started	text.stopped	participant	brightness	num_part	low	high	com_svr	com_thermode	com_eeg	date	expName	psychopyVersion	frameRate	Unnamed: 39	distance_from_previous	file	step	index	time	type	temp1	temp2	temp3	temp4	temp5	step_num	time_sync
36.83	0	18415	wait	20	0	0	0	0	0.0	0.0	0.0	0.0	139.1679380000569	138.95931689999998	1712856754.750417	p	36.59028290002607	175.78975970007014	182.15869220008608	182.15869220008608	6.0	['6', 'return']	[3.3865249999798834, 3.778495999984443]	6.36	6.06	0.0	40hz	high_pain	48.7			sub-030	250	30	47.7	48.7	COM11	COM15	COM3	2024-04-11_13h32.28.729	001-EEG_SVR_Officel	2022.2.5	144.01689013440844		36.83	0_sub-pilot030_SVR_EEG_block1-2.protocol.csv	step3	687	68.53	STIMULATE	48.8	48.6	48.6	48.6	48.8	3	55.87
43.186	0	21593	40hz	9	0	0	0	0	0.0	0.0	0.0	0.0	139.1679380000569	138.95931689999998	1712856754.750417	p	36.59028290002607	175.78975970007014	182.15869220008608	182.15869220008608	6.0	['6', 'return']	[3.3865249999798834, 3.778495999984443]	6.36	6.06	0.0	40hz	high_pain	48.7			sub-030	250	30	47.7	48.7	COM11	COM15	COM3	2024-04-11_13h32.28.729	001-EEG_SVR_Officel	2022.2.5	144.01689013440844		6.356000000000002	0_sub-pilot030_SVR_EEG_block1-2.protocol.csv	step3	687	68.53	STIMULATE	48.8	48.6	48.6	48.6	48.8	3	55.87
49.998	0	24999	40/Hi	7	0	0	0	0	0.0	0.0	0.0	0.0	139.1679380000569	138.95931689999998	1712856754.750417	p	36.59028290002607	175.78975970007014	182.15869220008608	182.15869220008608	6.0	['6', 'return']	[3.3865249999798834, 3.778495999984443]	6.36	6.06	0.0	40hz	high_pain	48.7			sub-030	250	30	47.7	48.7	COM11	COM15	COM3	2024-04-11_13h32.28.729	001-EEG_SVR_Officel	2022.2.5	144.01689013440844		6.061999999999998	0_sub-pilot030_SVR_EEG_block1-2.protocol.csv	step3	687	68.53	STIMULATE	48.8	48.6	48.6	48.6	48.8	3	55.87
60.0	0	30000	wait	20	0	0	0	0	1.0	0.0	1.0	0.0						198.95965249999423	206.25913110002875	206.25913110002875	6.0	['6', 'return']	[3.0152085999725387, 3.488670499995351]	7.29	5.93	1.0	controle	low_pain	47.7			sub-030	250	30	47.7	48.7	COM11	COM15	COM3	2024-04-11_13h32.28.729	001-EEG_SVR_Officel	2022.2.5	144.01689013440844		10.752000000000002	0_sub-pilot030_SVR_EEG_block1-2.protocol.csv	step5	928	92.446	STIMULATE	47.7	47.6	47.6	47.6	47.8	5	79.786
67.286	0	33643	CNhz	12	0	0	0	0	1.0	0.0	1.0	0.0						198.95965249999423	206.25913110002875	206.25913110002875	6.0	['6', 'return']	[3.0152085999725387, 3.488670499995351]	7.29	5.93	1.0	controle	low_pain	47.7			sub-030	250	30	47.7	48.7	COM11	COM15	COM3	2024-04-11_13h32.28.729	001-EEG_SVR_Officel	2022.2.5	144.01689013440844		7.286000000000001	0_sub-pilot030_SVR_EEG_block1-2.protocol.csv	step5	928	92.446	STIMULATE	47.7	47.6	47.6	47.6	47.8	5	79.786
73.966	0	36983	CN/Lo	11	0	0	0	0	1.0	0.0	1.0	0.0						198.95965249999423	206.25913110002875	206.25913110002875	6.0	['6', 'return']	[3.0152085999725387, 3.488670499995351]	7.29	5.93	1.0	controle	low_pain	47.7			sub-030	250	30	47.7	48.7	COM11	COM15	COM3	2024-04-11_13h32.28.729	001-EEG_SVR_Officel	2022.2.5	144.01689013440844		5.929999999999993	0_sub-pilot030_SVR_EEG_block1-2.protocol.csv	step5	928	92.446	STIMULATE	47.7	47.6	47.6	47.6	47.8	5	79.786
83.808	0	41904	wait	20	0	0	0	0	2.0	0.0	2.0	0.0						222.76849819999188	230.58814440004065	230.58814440004065	7.0	['7', 'return']	[3.5332096000202, 4.373986400081776]	7.81	6.07	2.0	40hz	high_pain	48.7			sub-030	250	30	47.7	48.7	COM11	COM15	COM3	2024-04-11_13h32.28.729	001-EEG_SVR_Officel	2022.2.5	144.01689013440844		10.592000000000013	0_sub-pilot030_SVR_EEG_block1-2.protocol.csv	step7	1176	117.022	STIMULATE	48.7	48.6	48.7	48.6	49.0	7	104.362
91.616	0	45808	40hz	9	0	0	0	0	2.0	0.0	2.0	0.0						222.76849819999188	230.58814440004065	230.58814440004065	7.0	['7', 'return']	[3.5332096000202, 4.373986400081776]	7.81	6.07	2.0	40hz	high_pain	48.7			sub-030	250	30	47.7	48.7	COM11	COM15	COM3	2024-04-11_13h32.28.729	001-EEG_SVR_Officel	2022.2.5	144.01689013440844		7.807999999999993	0_sub-pilot030_SVR_EEG_block1-2.protocol.csv	step7	1176	117.022	STIMULATE	48.7	48.6	48.7	48.6	49.0	7	104.362
98.44	0	49220	40/Hi	7	0	0	0	0	2.0	0.0	2.0	0.0						222.76849819999188	230.58814440004065	230.58814440004065	7.0	['7', 'return']	[3.5332096000202, 4.373986400081776]	7.81	6.07	2.0	40hz	high_pain	48.7			sub-030	250	30	47.7	48.7	COM11	COM15	COM3	2024-04-11_13h32.28.729	001-EEG_SVR_Officel	2022.2.5	144.01689013440844		6.073999999999998	0_sub-pilot030_SVR_EEG_block1-2.protocol.csv	step7	1176	117.022	STIMULATE	48.7	48.6	48.7	48.6	49.0	7	104.362
109.012	0	54506	wait	20	0	0	0	0	3.0	0.0	3.0	0.0						247.97252290009052	254.7645519000944	254.7645519000944	8.0	['8', 'return']	[3.4593963000224903, 7.364363300031982]	6.78	5.34	3.0	10hz	high_pain	48.7			sub-030	250	30	47.7	48.7	COM11	COM15	COM3	2024-04-11_13h32.28.729	001-EEG_SVR_Officel	2022.2.5	144.01689013440844		11.322000000000003	0_sub-pilot030_SVR_EEG_block1-2.protocol.csv	step9	1412	140.459	STIMULATE	48.7	48.6	48.7	48.7	48.7	9	127.799
115.792	0	57896	10hz	3	0	0	0	0	3.0	0.0	3.0	0.0						247.97252290009052	254.7645519000944	254.7645519000944	8.0	['8', 'return']	[3.4593963000224903, 7.364363300031982]	6.78	5.34	3.0	10hz	high_pain	48.7			sub-030	250	30	47.7	48.7	COM11	COM15	COM3	2024-04-11_13h32.28.729	001-EEG_SVR_Officel	2022.2.5	144.01689013440844		6.780000000000001	0_sub-pilot030_SVR_EEG_block1-2.protocol.csv	step9	1412	140.459	STIMULATE	48.7	48.6	48.7	48.7	48.7	9	127.799
121.882	0	60941	10/Hi	1	0	0	0	0	3.0	0.0	3.0	0.0						247.97252290009052	254.7645519000944	254.7645519000944	8.0	['8', 'return']	[3.4593963000224903, 7.364363300031982]	6.78	5.34	3.0	10hz	high_pain	48.7			sub-030	250	30	47.7	48.7	COM11	COM15	COM3	2024-04-11_13h32.28.729	001-EEG_SVR_Officel	2022.2.5	144.01689013440844		5.340000000000003	0_sub-pilot030_SVR_EEG_block1-2.protocol.csv	step9	1412	140.459	STIMULATE	48.7	48.6	48.7	48.7	48.7	9	127.799
136.182	0	68091	wait	20	0	0	0	0	4.0	0.0	4.0	0.0						275.14193270006217	282.90550340001937	282.90550340001937	3.0	['3', 'return']	[1.8796816000249237, 2.440325399977155]	7.76	5.22	0.0	controle	low_pain	47.7			sub-030	250	30	47.7	48.7	COM11	COM15	COM3	2024-04-11_13h32.28.729	001-EEG_SVR_Officel	2022.2.5	144.01689013440844		15.049999999999983	0_sub-pilot030_SVR_EEG_block1-2.protocol.csv	step11	1694	168.409	STIMULATE	47.7	47.6	47.6	47.6	47.7	11	155.749
143.94	0	71970	CNhz	12	0	0	0	0	4.0	0.0	4.0	0.0						275.14193270006217	282.90550340001937	282.90550340001937	3.0	['3', 'return']	[1.8796816000249237, 2.440325399977155]	7.76	5.22	0.0	controle	low_pain	47.7			sub-030	250	30	47.7	48.7	COM11	COM15	COM3	2024-04-11_13h32.28.729	001-EEG_SVR_Officel	2022.2.5	144.01689013440844		7.75800000000001	0_sub-pilot030_SVR_EEG_block1-2.protocol.csv	step11	1694	168.409	STIMULATE	47.7	47.6	47.6	47.6	47.7	11	155.749
149.912	0	74956	CN/Lo	11	0	0	0	0	4.0	0.0	4.0	0.0						275.14193270006217	282.90550340001937	282.90550340001937	3.0	['3', 'return']	[1.8796816000249237, 2.440325399977155]	7.76	5.22	0.0	controle	low_pain	47.7			sub-030	250	30	47.7	48.7	COM11	COM15	COM3	2024-04-11_13h32.28.729	001-EEG_SVR_Officel	2022.2.5	144.01689013440844		5.222000000000008	0_sub-pilot030_SVR_EEG_block1-2.protocol.csv	step11	1694	168.409	STIMULATE	47.7	47.6	47.6	47.6	47.7	11	155.749
159.406	0	79703	wait	20	0	0	0	0	5.0	0.0	5.0	0.0						298.3669956000522	303.5689798000967	303.5689798000967	5.0	['5', 'return']	[1.8401944999350235, 2.2570899999700487]	5.19	6.45	1.0	controle	high_pain	48.7			sub-030	250	30	47.7	48.7	COM11	COM15	COM3	2024-04-11_13h32.28.729	001-EEG_SVR_Officel	2022.2.5	144.01689013440844		10.244	0_sub-pilot030_SVR_EEG_block1-2.protocol.csv	step13	1915	190.322	STIMULATE	48.7	48.6	48.7	48.6	48.7	13	177.66199999999998
164.596	0	82298	CNhz	12	0	0	0	0	5.0	0.0	5.0	0.0						298.3669956000522	303.5689798000967	303.5689798000967	5.0	['5', 'return']	[1.8401944999350235, 2.2570899999700487]	5.19	6.45	1.0	controle	high_pain	48.7			sub-030	250	30	47.7	48.7	COM11	COM15	COM3	2024-04-11_13h32.28.729	001-EEG_SVR_Officel	2022.2.5	144.01689013440844		5.189999999999998	0_sub-pilot030_SVR_EEG_block1-2.protocol.csv	step13	1915	190.322	STIMULATE	48.7	48.6	48.7	48.6	48.7	13	177.66199999999998
171.796	0	85898	CN/Hi	10	0	0	0	0	5.0	0.0	5.0	0.0						298.3669956000522	303.5689798000967	303.5689798000967	5.0	['5', 'return']	[1.8401944999350235, 2.2570899999700487]	5.19	6.45	1.0	controle	high_pain	48.7			sub-030	250	30	47.7	48.7	COM11	COM15	COM3	2024-04-11_13h32.28.729	001-EEG_SVR_Officel	2022.2.5	144.01689013440844		6.449999999999989	0_sub-pilot030_SVR_EEG_block1-2.protocol.csv	step13	1915	190.322	STIMULATE	48.7	48.6	48.7	48.6	48.7	13	177.66199999999998
179.874	0	89937	wait	20	0	0	0	0	6.0	0.0	6.0	0.0						318.83469520008657	325.70375620003324	325.70375620003324	7.0	['7', 'return']	[2.0182168000610545, 2.441079600015655]	6.86	5.83	2.0	20hz	high_pain	48.7			sub-030	250	30	47.7	48.7	COM11	COM15	COM3	2024-04-11_13h32.28.729	001-EEG_SVR_Officel	2022.2.5	144.01689013440844		8.828000000000003	0_sub-pilot030_SVR_EEG_block1-2.protocol.csv	step15	2132	211.872	STIMULATE	48.7	48.6	48.7	48.7	48.8	15	199.212
186.732	0	93366	20hz	6	0	0	0	0	6.0	0.0	6.0	0.0						318.83469520008657	325.70375620003324	325.70375620003324	7.0	['7', 'return']	[2.0182168000610545, 2.441079600015655]	6.86	5.83	2.0	20hz	high_pain	48.7			sub-030	250	30	47.7	48.7	COM11	COM15	COM3	2024-04-11_13h32.28.729	001-EEG_SVR_Officel	2022.2.5	144.01689013440844		6.858000000000004	0_sub-pilot030_SVR_EEG_block1-2.protocol.csv	step15	2132	211.872	STIMULATE	48.7	48.6	48.7	48.7	48.8	15	199.212
193.314	0	96657	20/Hi	4	0	0	0	0	6.0	0.0	6.0	0.0						318.83469520008657	325.70375620003324	325.70375620003324	7.0	['7', 'return']	[2.0182168000610545, 2.441079600015655]	6.86	5.83	2.0	20hz	high_pain	48.7			sub-030	250	30	47.7	48.7	COM11	COM15	COM3	2024-04-11_13h32.28.729	001-EEG_SVR_Officel	2022.2.5	144.01689013440844		5.831999999999994	0_sub-pilot030_SVR_EEG_block1-2.protocol.csv	step15	2132	211.872	STIMULATE	48.7	48.6	48.7	48.7	48.8	15	199.212
202.204	0	101102	wait	20	0	0	0	0	7.0	0.0	7.0	0.0						341.1642226000549	347.14366649999283	347.14366649999283	4.0	['4', 'return']	[2.010433799936436, 2.8182085999287665]	5.97	5.21	3.0	20hz	low_pain	47.7			sub-030	250	30	47.7	48.7	COM11	COM15	COM3	2024-04-11_13h32.28.729	001-EEG_SVR_Officel	2022.2.5	144.01689013440844		9.640000000000015	0_sub-pilot030_SVR_EEG_block1-2.protocol.csv	step17	2342	232.648	STIMULATE	47.7	47.6	47.6	47.7	47.7	17	219.988
208.17	0	104085	20hz	6	0	0	0	0	7.0	0.0	7.0	0.0						341.1642226000549	347.14366649999283	347.14366649999283	4.0	['4', 'return']	[2.010433799936436, 2.8182085999287665]	5.97	5.21	3.0	20hz	low_pain	47.7			sub-030	250	30	47.7	48.7	COM11	COM15	COM3	2024-04-11_13h32.28.729	001-EEG_SVR_Officel	2022.2.5	144.01689013440844		5.96599999999998	0_sub-pilot030_SVR_EEG_block1-2.protocol.csv	step17	2342	232.648	STIMULATE	47.7	47.6	47.6	47.7	47.7	17	219.988
214.134	0	107067	20/Lo	5	0	0	0	0	7.0	0.0	7.0	0.0						341.1642226000549	347.14366649999283	347.14366649999283	4.0	['4', 'return']	[2.010433799936436, 2.8182085999287665]	5.97	5.21	3.0	20hz	low_pain	47.7			sub-030	250	30	47.7	48.7	COM11	COM15	COM3	2024-04-11_13h32.28.729	001-EEG_SVR_Officel	2022.2.5	144.01689013440844		5.213999999999999	0_sub-pilot030_SVR_EEG_block1-2.protocol.csv	step17	2342	232.648	STIMULATE	47.7	47.6	47.6	47.7	47.7	17	219.988
224.012	0	112006	wait	20	0	0	0	0	8.0	0.0	8.0	0.0						362.9724539000308	370.52151170000434	370.52151170000434	7.0	['7', 'return']	[2.031565299956128, 3.080103699932806]	7.54	5.62	0.0	10hz	high_pain	48.7			sub-030	250	30	47.7	48.7	COM11	COM15	COM3	2024-04-11_13h32.28.729	001-EEG_SVR_Officel	2022.2.5	144.01689013440844		10.628000000000014	0_sub-pilot030_SVR_EEG_block1-2.protocol.csv	step19	2582	256.423	STIMULATE	48.7	48.6	48.7	48.6	48.7	19	243.76299999999998
231.548	0	115774	10hz	3	0	0	0	0	8.0	0.0	8.0	0.0						362.9724539000308	370.52151170000434	370.52151170000434	7.0	['7', 'return']	[2.031565299956128, 3.080103699932806]	7.54	5.62	0.0	10hz	high_pain	48.7			sub-030	250	30	47.7	48.7	COM11	COM15	COM3	2024-04-11_13h32.28.729	001-EEG_SVR_Officel	2022.2.5	144.01689013440844		7.536000000000001	0_sub-pilot030_SVR_EEG_block1-2.protocol.csv	step19	2582	256.423	STIMULATE	48.7	48.6	48.7	48.6	48.7	19	243.76299999999998
237.922	0	118961	10/Hi	1	0	0	0	0	8.0	0.0	8.0	0.0						362.9724539000308	370.52151170000434	370.52151170000434	7.0	['7', 'return']	[2.031565299956128, 3.080103699932806]	7.54	5.62	0.0	10hz	high_pain	48.7			sub-030	250	30	47.7	48.7	COM11	COM15	COM3	2024-04-11_13h32.28.729	001-EEG_SVR_Officel	2022.2.5	144.01689013440844		5.623999999999995	0_sub-pilot030_SVR_EEG_block1-2.protocol.csv	step19	2582	256.423	STIMULATE	48.7	48.6	48.7	48.6	48.7	19	243.76299999999998
247.66	0	123830	wait	20	0	0	0	0	9.0	0.0	9.0	0.0						386.6207349000033	393.691038900055	393.691038900055	6.0	['6', 'return']	[1.8363138999557123, 2.5806810000212863]	7.06	5.06	1.0	10hz	high_pain	48.7			sub-030	250	30	47.7	48.7	COM11	COM15	COM3	2024-04-11_13h32.28.729	001-EEG_SVR_Officel	2022.2.5	144.01689013440844		10.488	0_sub-pilot030_SVR_EEG_block1-2.protocol.csv	step21	2811	279.138	STIMULATE	48.7	48.6	48.7	48.7	48.8	21	266.47799999999995
254.718	0	127359	10hz	3	0	0	0	0	9.0	0.0	9.0	0.0						386.6207349000033	393.691038900055	393.691038900055	6.0	['6', 'return']	[1.8363138999557123, 2.5806810000212863]	7.06	5.06	1.0	10hz	high_pain	48.7			sub-030	250	30	47.7	48.7	COM11	COM15	COM3	2024-04-11_13h32.28.729	001-EEG_SVR_Officel	2022.2.5	144.01689013440844		7.057999999999993	0_sub-pilot030_SVR_EEG_block1-2.protocol.csv	step21	2811	279.138	STIMULATE	48.7	48.6	48.7	48.7	48.8	21	266.47799999999995
260.528	0	130264	10/Hi	1	0	0	0	0	9.0	0.0	9.0	0.0						386.6207349000033	393.691038900055	393.691038900055	6.0	['6', 'return']	[1.8363138999557123, 2.5806810000212863]	7.06	5.06	1.0	10hz	high_pain	48.7			sub-030	250	30	47.7	48.7	COM11	COM15	COM3	2024-04-11_13h32.28.729	001-EEG_SVR_Officel	2022.2.5	144.01689013440844		5.060000000000031	0_sub-pilot030_SVR_EEG_block1-2.protocol.csv	step21	2811	279.138	STIMULATE	48.7	48.6	48.7	48.7	48.8	21	266.47799999999995
270.32	0	135160	wait	20	0	0	0	0	10.0	0.0	10.0	0.0						409.28273630002514	416.3659883000655	416.3659883000655	4.0	['4', 'return']	[1.9146824999479577, 2.5950404999312013]	7.08	5.2	2.0	20hz	low_pain	47.7			sub-030	250	30	47.7	48.7	COM11	COM15	COM3	2024-04-11_13h32.28.729	001-EEG_SVR_Officel	2022.2.5	144.01689013440844		10.541999999999973	0_sub-pilot030_SVR_EEG_block1-2.protocol.csv	step23	3041	301.985	STIMULATE	47.7	47.6	47.6	47.7	47.9	23	289.325
277.4	0	138700	20hz	6	0	0	0	0	10.0	0.0	10.0	0.0						409.28273630002514	416.3659883000655	416.3659883000655	4.0	['4', 'return']	[1.9146824999479577, 2.5950404999312013]	7.08	5.2	2.0	20hz	low_pain	47.7			sub-030	250	30	47.7	48.7	COM11	COM15	COM3	2024-04-11_13h32.28.729	001-EEG_SVR_Officel	2022.2.5	144.01689013440844		7.079999999999984	0_sub-pilot030_SVR_EEG_block1-2.protocol.csv	step23	3041	301.985	STIMULATE	47.7	47.6	47.6	47.7	47.9	23	289.325
283.352	0	141676	20/Lo	5	0	0	0	0	10.0	0.0	10.0	0.0						409.28273630002514	416.3659883000655	416.3659883000655	4.0	['4', 'return']	[1.9146824999479577, 2.5950404999312013]	7.08	5.2	2.0	20hz	low_pain	47.7			sub-030	250	30	47.7	48.7	COM11	COM15	COM3	2024-04-11_13h32.28.729	001-EEG_SVR_Officel	2022.2.5	144.01689013440844		5.201999999999998	0_sub-pilot030_SVR_EEG_block1-2.protocol.csv	step23	3041	301.985	STIMULATE	47.7	47.6	47.6	47.7	47.9	23	289.325
293.026	0	146513	wait	20	0	0	0	0	11.0	0.0	11.0	0.0						431.9871625000378	438.6900175000774	438.6900175000774	6.0	['6', 'return']	[2.1349860000191256, 2.6085531000280753]	6.69	5.29	3.0	controle	high_pain	48.7			sub-030	250	30	47.7	48.7	COM11	COM15	COM3	2024-04-11_13h32.28.729	001-EEG_SVR_Officel	2022.2.5	144.01689013440844		10.424000000000035	0_sub-pilot030_SVR_EEG_block1-2.protocol.csv	step25	3267	324.321	STIMULATE	48.7	48.7	48.7	48.7	48.7	25	311.661
299.716	0	149858	CNhz	12	0	0	0	0	11.0	0.0	11.0	0.0						431.9871625000378	438.6900175000774	438.6900175000774	6.0	['6', 'return']	[2.1349860000191256, 2.6085531000280753]	6.69	5.29	3.0	controle	high_pain	48.7			sub-030	250	30	47.7	48.7	COM11	COM15	COM3	2024-04-11_13h32.28.729	001-EEG_SVR_Officel	2022.2.5	144.01689013440844		6.689999999999998	0_sub-pilot030_SVR_EEG_block1-2.protocol.csv	step25	3267	324.321	STIMULATE	48.7	48.7	48.7	48.7	48.7	25	311.661
305.756	0	152878	CN/Hi	10	0	0	0	0	11.0	0.0	11.0	0.0						431.9871625000378	438.6900175000774	438.6900175000774	6.0	['6', 'return']	[2.1349860000191256, 2.6085531000280753]	6.69	5.29	3.0	controle	high_pain	48.7			sub-030	250	30	47.7	48.7	COM11	COM15	COM3	2024-04-11_13h32.28.729	001-EEG_SVR_Officel	2022.2.5	144.01689013440844		5.289999999999964	0_sub-pilot030_SVR_EEG_block1-2.protocol.csv	step25	3267	324.321	STIMULATE	48.7	48.7	48.7	48.7	48.7	25	311.661
315.356	0	157678	wait	20	0	0	0	0	12.0	0.0	12.0	0.0						454.3167436000658	460.1090182000771	460.1090182000771	3.0	['3', 'return']	[2.571642199996859, 3.2288993999827653]	5.78	5.99	0.0	40hz	low_pain	47.7			sub-030	250	30	47.7	48.7	COM11	COM15	COM3	2024-04-11_13h32.28.729	001-EEG_SVR_Officel	2022.2.5	144.01689013440844		10.350000000000023	0_sub-pilot030_SVR_EEG_block1-2.protocol.csv	step27	3489	346.396	STIMULATE	47.7	47.6	47.6	47.6	47.7	27	333.736
321.136	0	160568	40hz	9	0	0	0	0	12.0	0.0	12.0	0.0						454.3167436000658	460.1090182000771	460.1090182000771	3.0	['3', 'return']	[2.571642199996859, 3.2288993999827653]	5.78	5.99	0.0	40hz	low_pain	47.7			sub-030	250	30	47.7	48.7	COM11	COM15	COM3	2024-04-11_13h32.28.729	001-EEG_SVR_Officel	2022.2.5	144.01689013440844		5.78000000000003	0_sub-pilot030_SVR_EEG_block1-2.protocol.csv	step27	3489	346.396	STIMULATE	47.7	47.6	47.6	47.6	47.7	27	333.736
327.878	0	163939	40/Lo	8	0	0	0	0	12.0	0.0	12.0	0.0						454.3167436000658	460.1090182000771	460.1090182000771	3.0	['3', 'return']	[2.571642199996859, 3.2288993999827653]	5.78	5.99	0.0	40hz	low_pain	47.7			sub-030	250	30	47.7	48.7	COM11	COM15	COM3	2024-04-11_13h32.28.729	001-EEG_SVR_Officel	2022.2.5	144.01689013440844		5.991999999999962	0_sub-pilot030_SVR_EEG_block1-2.protocol.csv	step27	3489	346.396	STIMULATE	47.7	47.6	47.6	47.6	47.7	27	333.736
337.386	0	168693	wait	20	0	0	0	0	13.0	0.0	13.0	0.0						476.3466439000331	482.65308900002856	482.65308900002856	2.0	['2', 'return']	[2.435924999997951, 3.0771223000483587]	6.3	5.34	1.0	10hz	low_pain	47.7			sub-030	250	30	47.7	48.7	COM11	COM15	COM3	2024-04-11_13h32.28.729	001-EEG_SVR_Officel	2022.2.5	144.01689013440844		10.258000000000038	0_sub-pilot030_SVR_EEG_block1-2.protocol.csv	step29	3711	368.395	STIMULATE	47.7	47.6	47.6	47.6	47.7	29	355.73499999999996
343.68	0	171840	10hz	3	0	0	0	0	13.0	0.0	13.0	0.0						476.3466439000331	482.65308900002856	482.65308900002856	2.0	['2', 'return']	[2.435924999997951, 3.0771223000483587]	6.3	5.34	1.0	10hz	low_pain	47.7			sub-030	250	30	47.7	48.7	COM11	COM15	COM3	2024-04-11_13h32.28.729	001-EEG_SVR_Officel	2022.2.5	144.01689013440844		6.293999999999983	0_sub-pilot030_SVR_EEG_block1-2.protocol.csv	step29	3711	368.395	STIMULATE	47.7	47.6	47.6	47.6	47.7	29	355.73499999999996
349.768	0	174884	10/Lo	2	0	0	0	0	13.0	0.0	13.0	0.0						476.3466439000331	482.65308900002856	482.65308900002856	2.0	['2', 'return']	[2.435924999997951, 3.0771223000483587]	6.3	5.34	1.0	10hz	low_pain	47.7			sub-030	250	30	47.7	48.7	COM11	COM15	COM3	2024-04-11_13h32.28.729	001-EEG_SVR_Officel	2022.2.5	144.01689013440844		5.337999999999965	0_sub-pilot030_SVR_EEG_block1-2.protocol.csv	step29	3711	368.395	STIMULATE	47.7	47.6	47.6	47.6	47.7	29	355.73499999999996
359.776	0	179888	wait	20	0	0	0	0	14.0	0.0	14.0	0.0						498.7378701000707	505.01722150004935	505.01722150004935	3.0	['3', 'return']	[2.2974371999735013, 2.8007240999722853]	6.27	6.12	2.0	controle	low_pain	47.7			sub-030	250	30	47.7	48.7	COM11	COM15	COM3	2024-04-11_13h32.28.729	001-EEG_SVR_Officel	2022.2.5	144.01689013440844		10.758000000000038	0_sub-pilot030_SVR_EEG_block1-2.protocol.csv	step31	3945	391.539	STIMULATE	47.7	47.6	47.7	47.7	47.7	31	378.87899999999996
366.044	0	183022	CNhz	12	0	0	0	0	14.0	0.0	14.0	0.0						498.7378701000707	505.01722150004935	505.01722150004935	3.0	['3', 'return']	[2.2974371999735013, 2.8007240999722853]	6.27	6.12	2.0	controle	low_pain	47.7			sub-030	250	30	47.7	48.7	COM11	COM15	COM3	2024-04-11_13h32.28.729	001-EEG_SVR_Officel	2022.2.5	144.01689013440844		6.267999999999972	0_sub-pilot030_SVR_EEG_block1-2.protocol.csv	step31	3945	391.539	STIMULATE	47.7	47.6	47.7	47.7	47.7	31	378.87899999999996
372.918	0	186459	CN/Lo	11	0	0	0	0	14.0	0.0	14.0	0.0						498.7378701000707	505.01722150004935	505.01722150004935	3.0	['3', 'return']	[2.2974371999735013, 2.8007240999722853]	6.27	6.12	2.0	controle	low_pain	47.7			sub-030	250	30	47.7	48.7	COM11	COM15	COM3	2024-04-11_13h32.28.729	001-EEG_SVR_Officel	2022.2.5	144.01689013440844		6.124000000000024	0_sub-pilot030_SVR_EEG_block1-2.protocol.csv	step31	3945	391.539	STIMULATE	47.7	47.6	47.7	47.7	47.7	31	378.87899999999996
381.87	0	190935	wait	20	0	0	0	0	15.0	0.0	15.0	0.0						520.8307179000694	528.5675386000657	528.5675386000657	5.0	['5', 'return']	[2.449352200026624, 2.993053499958478]	7.73	6.05	3.0	40hz	high_pain	48.7			sub-030	250	30	47.7	48.7	COM11	COM15	COM3	2024-04-11_13h32.28.729	001-EEG_SVR_Officel	2022.2.5	144.01689013440844		9.701999999999998	0_sub-pilot030_SVR_EEG_block1-2.protocol.csv	step33	4181	414.962	STIMULATE	48.7	48.6	48.6	48.7	48.7	33	402.30199999999996
389.592	0	194796	40hz	9	0	0	0	0	15.0	0.0	15.0	0.0						520.8307179000694	528.5675386000657	528.5675386000657	5.0	['5', 'return']	[2.449352200026624, 2.993053499958478]	7.73	6.05	3.0	40hz	high_pain	48.7			sub-030	250	30	47.7	48.7	COM11	COM15	COM3	2024-04-11_13h32.28.729	001-EEG_SVR_Officel	2022.2.5	144.01689013440844		7.72199999999998	0_sub-pilot030_SVR_EEG_block1-2.protocol.csv	step33	4181	414.962	STIMULATE	48.7	48.6	48.6	48.7	48.7	33	402.30199999999996
396.392	0	198196	40/Hi	7	0	0	0	0	15.0	0.0	15.0	0.0						520.8307179000694	528.5675386000657	528.5675386000657	5.0	['5', 'return']	[2.449352200026624, 2.993053499958478]	7.73	6.05	3.0	40hz	high_pain	48.7			sub-030	250	30	47.7	48.7	COM11	COM15	COM3	2024-04-11_13h32.28.729	001-EEG_SVR_Officel	2022.2.5	144.01689013440844		6.050000000000011	0_sub-pilot030_SVR_EEG_block1-2.protocol.csv	step33	4181	414.962	STIMULATE	48.7	48.6	48.6	48.7	48.7	33	402.30199999999996
466.058	0	233029	wait	20	1	0	1	0	0.0	0.0	0.0	0.0				p	0.6350497000385076	605.0218018000014	611.9879224000033	611.9879224000033	4.0	['4', 'return']	[2.621522399946116, 3.349524699966423]	6.96	5.34	0.0	controle	high_pain	48.7			sub-030	250	30	47.7	48.7	COM11	COM15	COM3	2024-04-11_13h32.28.729	001-EEG_SVR_Officel	2022.2.5	144.01689013440844		70.416	0_sub-pilot030_SVR_EEG_block1-2.protocol.csv	step35	5010	497.674	STIMULATE	48.7	48.6	48.7	48.7	48.7	35	484.95699999999994
473.012	0	236506	CNhz	12	1	0	1	0	0.0	0.0	0.0	0.0				p	0.6350497000385076	605.0218018000014	611.9879224000033	611.9879224000033	4.0	['4', 'return']	[2.621522399946116, 3.349524699966423]	6.96	5.34	0.0	controle	high_pain	48.7			sub-030	250	30	47.7	48.7	COM11	COM15	COM3	2024-04-11_13h32.28.729	001-EEG_SVR_Officel	2022.2.5	144.01689013440844		6.954000000000008	0_sub-pilot030_SVR_EEG_block1-2.protocol.csv	step35	5010	497.674	STIMULATE	48.7	48.6	48.7	48.7	48.7	35	484.95699999999994
479.102	0	239551	CN/Hi	10	1	0	1	0	0.0	0.0	0.0	0.0				p	0.6350497000385076	605.0218018000014	611.9879224000033	611.9879224000033	4.0	['4', 'return']	[2.621522399946116, 3.349524699966423]	6.96	5.34	0.0	controle	high_pain	48.7			sub-030	250	30	47.7	48.7	COM11	COM15	COM3	2024-04-11_13h32.28.729	001-EEG_SVR_Officel	2022.2.5	144.01689013440844		5.339999999999975	0_sub-pilot030_SVR_EEG_block1-2.protocol.csv	step35	5010	497.674	STIMULATE	48.7	48.6	48.7	48.7	48.7	35	484.95699999999994
489.388	0	244694	wait	20	1	0	1	0	1.0	0.0	1.0	0.0						628.350544200046	634.2683247000678	634.2683247000678	7.0	['7', 'return']	[2.2930759000591934, 2.6374764000065625]	5.91	6.5	1.0	40hz	high_pain	48.7			sub-030	250	30	47.7	48.7	COM11	COM15	COM3	2024-04-11_13h32.28.729	001-EEG_SVR_Officel	2022.2.5	144.01689013440844		11.036000000000001	0_sub-pilot030_SVR_EEG_block1-2.protocol.csv	step37	5247	521.15	STIMULATE	48.7	48.7	48.7	48.7	49.0	37	508.43299999999994
495.294	0	247647	40hz	9	1	0	1	0	1.0	0.0	1.0	0.0						628.350544200046	634.2683247000678	634.2683247000678	7.0	['7', 'return']	[2.2930759000591934, 2.6374764000065625]	5.91	6.5	1.0	40hz	high_pain	48.7			sub-030	250	30	47.7	48.7	COM11	COM15	COM3	2024-04-11_13h32.28.729	001-EEG_SVR_Officel	2022.2.5	144.01689013440844		5.906000000000006	0_sub-pilot030_SVR_EEG_block1-2.protocol.csv	step37	5247	521.15	STIMULATE	48.7	48.7	48.7	48.7	49.0	37	508.43299999999994
502.542	0	251271	40/Hi	7	1	0	1	0	1.0	0.0	1.0	0.0						628.350544200046	634.2683247000678	634.2683247000678	7.0	['7', 'return']	[2.2930759000591934, 2.6374764000065625]	5.91	6.5	1.0	40hz	high_pain	48.7			sub-030	250	30	47.7	48.7	COM11	COM15	COM3	2024-04-11_13h32.28.729	001-EEG_SVR_Officel	2022.2.5	144.01689013440844		6.4979999999999905	0_sub-pilot030_SVR_EEG_block1-2.protocol.csv	step37	5247	521.15	STIMULATE	48.7	48.7	48.7	48.7	49.0	37	508.43299999999994
510.954	0	255477	wait	20	1	0	1	0	2.0	0.0	2.0	0.0						649.9160334999906	656.743248200044	656.743248200044	4.0	['4', 'return']	[2.3291684000287205, 2.8971399000147358]	6.82	5.6	2.0	40hz	low_pain	47.7			sub-030	250	30	47.7	48.7	COM11	COM15	COM3	2024-04-11_13h32.28.729	001-EEG_SVR_Officel	2022.2.5	144.01689013440844		9.162000000000035	0_sub-pilot030_SVR_EEG_block1-2.protocol.csv	step39	5465	542.736	STIMULATE	47.7	47.6	47.7	47.7	47.7	39	530.019
517.768	0	258884	40hz	9	1	0	1	0	2.0	0.0	2.0	0.0						649.9160334999906	656.743248200044	656.743248200044	4.0	['4', 'return']	[2.3291684000287205, 2.8971399000147358]	6.82	5.6	2.0	40hz	low_pain	47.7			sub-030	250	30	47.7	48.7	COM11	COM15	COM3	2024-04-11_13h32.28.729	001-EEG_SVR_Officel	2022.2.5	144.01689013440844		6.814000000000021	0_sub-pilot030_SVR_EEG_block1-2.protocol.csv	step39	5465	542.736	STIMULATE	47.7	47.6	47.7	47.7	47.7	39	530.019
524.122	0	262060	40/Lo	8	1	0	1	0	2.0	0.0	2.0	0.0						649.9160334999906	656.743248200044	656.743248200044	4.0	['4', 'return']	[2.3291684000287205, 2.8971399000147358]	6.82	5.6	2.0	40hz	low_pain	47.7			sub-030	250	30	47.7	48.7	COM11	COM15	COM3	2024-04-11_13h32.28.729	001-EEG_SVR_Officel	2022.2.5	144.01689013440844		5.603999999999928	0_sub-pilot030_SVR_EEG_block1-2.protocol.csv	step39	5465	542.736	STIMULATE	47.7	47.6	47.7	47.7	47.7	39	530.019
533.692	0	266846	wait	20	1	0	1	0	3.0	0.0	3.0	0.0						672.6544186000247	679.4057153000031	679.4057153000031	0.0	['0', 'return']	[2.492292599985376, 4.084325999952853]	6.74	5.72	3.0	10hz	low_pain	47.7			sub-030	250	30	47.7	48.7	COM11	COM15	COM3	2024-04-11_13h32.28.729	001-EEG_SVR_Officel	2022.2.5	144.01689013440844		10.32000000000005	0_sub-pilot030_SVR_EEG_block1-2.protocol.csv	step41	5694	565.454	STIMULATE	47.7	47.6	47.7	47.7	47.7	41	552.7369999999999
540.43	0	270215	10hz	3	1	0	1	0	3.0	0.0	3.0	0.0						672.6544186000247	679.4057153000031	679.4057153000031	0.0	['0', 'return']	[2.492292599985376, 4.084325999952853]	6.74	5.72	3.0	10hz	low_pain	47.7			sub-030	250	30	47.7	48.7	COM11	COM15	COM3	2024-04-11_13h32.28.729	001-EEG_SVR_Officel	2022.2.5	144.01689013440844		6.737999999999943	0_sub-pilot030_SVR_EEG_block1-2.protocol.csv	step41	5694	565.454	STIMULATE	47.7	47.6	47.7	47.7	47.7	41	552.7369999999999
546.902	0	273451	10/Lo	2	1	0	1	0	3.0	0.0	3.0	0.0						672.6544186000247	679.4057153000031	679.4057153000031	0.0	['0', 'return']	[2.492292599985376, 4.084325999952853]	6.74	5.72	3.0	10hz	low_pain	47.7			sub-030	250	30	47.7	48.7	COM11	COM15	COM3	2024-04-11_13h32.28.729	001-EEG_SVR_Officel	2022.2.5	144.01689013440844		5.722000000000094	0_sub-pilot030_SVR_EEG_block1-2.protocol.csv	step41	5694	565.454	STIMULATE	47.7	47.6	47.7	47.7	47.7	41	552.7369999999999
557.548	0	278774	wait	20	1	0	1	0	4.0	0.0	4.0	0.0						696.5122209000401	701.8389230000321	701.8389230000321	2.0	['2', 'return']	[3.114801499992609, 3.9062422000570223]	5.32	5.86	0.0	10hz	low_pain	47.7			sub-030	250	30	47.7	48.7	COM11	COM15	COM3	2024-04-11_13h32.28.729	001-EEG_SVR_Officel	2022.2.5	144.01689013440844		11.395999999999958	0_sub-pilot030_SVR_EEG_block1-2.protocol.csv	step43	5923	588.118	STIMULATE	47.8	47.7	47.6	47.7	47.7	43	575.4010000000001
562.864	0	281432	10hz	3	1	0	1	0	4.0	0.0	4.0	0.0						696.5122209000401	701.8389230000321	701.8389230000321	2.0	['2', 'return']	[3.114801499992609, 3.9062422000570223]	5.32	5.86	0.0	10hz	low_pain	47.7			sub-030	250	30	47.7	48.7	COM11	COM15	COM3	2024-04-11_13h32.28.729	001-EEG_SVR_Officel	2022.2.5	144.01689013440844		5.316000000000031	0_sub-pilot030_SVR_EEG_block1-2.protocol.csv	step43	5923	588.118	STIMULATE	47.8	47.7	47.6	47.7	47.7	43	575.4010000000001
569.474	0	284737	10/Lo	2	1	0	1	0	4.0	0.0	4.0	0.0						696.5122209000401	701.8389230000321	701.8389230000321	2.0	['2', 'return']	[3.114801499992609, 3.9062422000570223]	5.32	5.86	0.0	10hz	low_pain	47.7			sub-030	250	30	47.7	48.7	COM11	COM15	COM3	2024-04-11_13h32.28.729	001-EEG_SVR_Officel	2022.2.5	144.01689013440844		5.860000000000014	0_sub-pilot030_SVR_EEG_block1-2.protocol.csv	step43	5923	588.118	STIMULATE	47.8	47.7	47.6	47.7	47.7	43	575.4010000000001
579.802	0	289901	wait	20	1	0	1	0	5.0	0.0	5.0	0.0						718.7645686999895	725.3622272000648	725.3622272000648	6.0	['6', 'return']	[2.270871500018984, 2.6631509999278933]	6.59	5.34	1.0	20hz	high_pain	48.7			sub-030	250	30	47.7	48.7	COM11	COM15	COM3	2024-04-11_13h32.28.729	001-EEG_SVR_Officel	2022.2.5	144.01689013440844		11.077999999999975	0_sub-pilot030_SVR_EEG_block1-2.protocol.csv	step45	6154	611.074	STIMULATE	48.7	48.7	48.6	48.7	48.7	45	598.357
586.39	0	293195	20hz	6	1	0	1	0	5.0	0.0	5.0	0.0						718.7645686999895	725.3622272000648	725.3622272000648	6.0	['6', 'return']	[2.270871500018984, 2.6631509999278933]	6.59	5.34	1.0	20hz	high_pain	48.7			sub-030	250	30	47.7	48.7	COM11	COM15	COM3	2024-04-11_13h32.28.729	001-EEG_SVR_Officel	2022.2.5	144.01689013440844		6.587999999999965	0_sub-pilot030_SVR_EEG_block1-2.protocol.csv	step45	6154	611.074	STIMULATE	48.7	48.7	48.6	48.7	48.7	45	598.357
592.476	0	296238	20/Hi	4	1	0	1	0	5.0	0.0	5.0	0.0						718.7645686999895	725.3622272000648	725.3622272000648	6.0	['6', 'return']	[2.270871500018984, 2.6631509999278933]	6.59	5.34	1.0	20hz	high_pain	48.7			sub-030	250	30	47.7	48.7	COM11	COM15	COM3	2024-04-11_13h32.28.729	001-EEG_SVR_Officel	2022.2.5	144.01689013440844		5.336000000000013	0_sub-pilot030_SVR_EEG_block1-2.protocol.csv	step45	6154	611.074	STIMULATE	48.7	48.7	48.6	48.7	48.7	45	598.357
602.082	0	301041	wait	20	1	0	1	0	6.0	0.0	6.0	0.0						741.0450353000779	746.7263986000326	746.7263986000326	5.0	['5', 'return']	[2.2108546000672504, 2.6758236000314355]	5.67	5.7	2.0	10hz	high_pain	48.7			sub-030	250	30	47.7	48.7	COM11	COM15	COM3	2024-04-11_13h32.28.729	001-EEG_SVR_Officel	2022.2.5	144.01689013440844		10.355999999999995	0_sub-pilot030_SVR_EEG_block1-2.protocol.csv	step47	6374	632.855	STIMULATE	48.7	48.7	48.6	48.7	48.7	47	620.1379999999999
607.75	0	303875	10hz	3	1	0	1	0	6.0	0.0	6.0	0.0						741.0450353000779	746.7263986000326	746.7263986000326	5.0	['5', 'return']	[2.2108546000672504, 2.6758236000314355]	5.67	5.7	2.0	10hz	high_pain	48.7			sub-030	250	30	47.7	48.7	COM11	COM15	COM3	2024-04-11_13h32.28.729	001-EEG_SVR_Officel	2022.2.5	144.01689013440844		5.668000000000006	0_sub-pilot030_SVR_EEG_block1-2.protocol.csv	step47	6374	632.855	STIMULATE	48.7	48.7	48.6	48.7	48.7	47	620.1379999999999
614.202	0	307101	10/Hi	1	1	0	1	0	6.0	0.0	6.0	0.0						741.0450353000779	746.7263986000326	746.7263986000326	5.0	['5', 'return']	[2.2108546000672504, 2.6758236000314355]	5.67	5.7	2.0	10hz	high_pain	48.7			sub-030	250	30	47.7	48.7	COM11	COM15	COM3	2024-04-11_13h32.28.729	001-EEG_SVR_Officel	2022.2.5	144.01689013440844		5.701999999999998	0_sub-pilot030_SVR_EEG_block1-2.protocol.csv	step47	6374	632.855	STIMULATE	48.7	48.7	48.6	48.7	48.7	47	620.1379999999999
623.452	0	311726	wait	20	1	0	1	0	7.0	0.0	7.0	0.0						762.4155672000488	769.2422070000321	769.2422070000321	2.0	['2', 'return']	[1.8865979000693187, 3.263727099983953]	6.82	6.16	3.0	40hz	low_pain	47.7			sub-030	250	30	47.7	48.7	COM11	COM15	COM3	2024-04-11_13h32.28.729	001-EEG_SVR_Officel	2022.2.5	144.01689013440844		10.0	0_sub-pilot030_SVR_EEG_block1-2.protocol.csv	step49	6605	655.765	STIMULATE	47.7	47.6	47.7	47.7	47.6	49	643.048
630.266	0	315133	40hz	9	1	0	1	0	7.0	0.0	7.0	0.0						762.4155672000488	769.2422070000321	769.2422070000321	2.0	['2', 'return']	[1.8865979000693187, 3.263727099983953]	6.82	6.16	3.0	40hz	low_pain	47.7			sub-030	250	30	47.7	48.7	COM11	COM15	COM3	2024-04-11_13h32.28.729	001-EEG_SVR_Officel	2022.2.5	144.01689013440844		6.8139999999999645	0_sub-pilot030_SVR_EEG_block1-2.protocol.csv	step49	6605	655.765	STIMULATE	47.7	47.6	47.7	47.7	47.6	49	643.048
637.176	0	318588	40/Lo	8	1	0	1	0	7.0	0.0	7.0	0.0						762.4155672000488	769.2422070000321	769.2422070000321	2.0	['2', 'return']	[1.8865979000693187, 3.263727099983953]	6.82	6.16	3.0	40hz	low_pain	47.7			sub-030	250	30	47.7	48.7	COM11	COM15	COM3	2024-04-11_13h32.28.729	001-EEG_SVR_Officel	2022.2.5	144.01689013440844		6.160000000000082	0_sub-pilot030_SVR_EEG_block1-2.protocol.csv	step49	6605	655.765	STIMULATE	47.7	47.6	47.7	47.7	47.6	49	643.048
646.552	0	323276	wait	20	1	0	1	0	8.0	0.0	8.0	0.0						785.5153470000951	791.2732424000278	791.2732424000278	3.0	['3', 'return']	[2.3590074999956414, 2.9832951999269426]	5.75	5.86	0.0	20hz	low_pain	47.7			sub-030	250	30	47.7	48.7	COM11	COM15	COM3	2024-04-11_13h32.28.729	001-EEG_SVR_Officel	2022.2.5	144.01689013440844		10.125999999999976	0_sub-pilot030_SVR_EEG_block1-2.protocol.csv	step51	6825	677.519	STIMULATE	47.7	47.6	47.6	47.6	47.7	51	664.8019999999999
652.3	0	326150	20hz	6	1	0	1	0	8.0	0.0	8.0	0.0						785.5153470000951	791.2732424000278	791.2732424000278	3.0	['3', 'return']	[2.3590074999956414, 2.9832951999269426]	5.75	5.86	0.0	20hz	low_pain	47.7			sub-030	250	30	47.7	48.7	COM11	COM15	COM3	2024-04-11_13h32.28.729	001-EEG_SVR_Officel	2022.2.5	144.01689013440844		5.747999999999934	0_sub-pilot030_SVR_EEG_block1-2.protocol.csv	step51	6825	677.519	STIMULATE	47.7	47.6	47.6	47.6	47.7	51	664.8019999999999
658.914	0	329457	20/Lo	5	1	0	1	0	8.0	0.0	8.0	0.0						785.5153470000951	791.2732424000278	791.2732424000278	3.0	['3', 'return']	[2.3590074999956414, 2.9832951999269426]	5.75	5.86	0.0	20hz	low_pain	47.7			sub-030	250	30	47.7	48.7	COM11	COM15	COM3	2024-04-11_13h32.28.729	001-EEG_SVR_Officel	2022.2.5	144.01689013440844		5.864000000000033	0_sub-pilot030_SVR_EEG_block1-2.protocol.csv	step51	6825	677.519	STIMULATE	47.7	47.6	47.6	47.6	47.7	51	664.8019999999999
668.318	0	334159	wait	20	1	0	1	0	9.0	0.0	9.0	0.0						807.2826005000388	813.5057804000098	813.5057804000098	2.0	['2', 'return']	[2.055921599967405, 2.760306300013326]	6.21	5.48	1.0	20hz	low_pain	47.7			sub-030	250	30	47.7	48.7	COM11	COM15	COM3	2024-04-11_13h32.28.729	001-EEG_SVR_Officel	2022.2.5	144.01689013440844		10.153999999999996	0_sub-pilot030_SVR_EEG_block1-2.protocol.csv	step53	7046	699.439	STIMULATE	47.8	47.6	47.6	47.7	47.7	53	686.722
674.53	0	337265	20hz	6	1	0	1	0	9.0	0.0	9.0	0.0						807.2826005000388	813.5057804000098	813.5057804000098	2.0	['2', 'return']	[2.055921599967405, 2.760306300013326]	6.21	5.48	1.0	20hz	low_pain	47.7			sub-030	250	30	47.7	48.7	COM11	COM15	COM3	2024-04-11_13h32.28.729	001-EEG_SVR_Officel	2022.2.5	144.01689013440844		6.211999999999989	0_sub-pilot030_SVR_EEG_block1-2.protocol.csv	step53	7046	699.439	STIMULATE	47.8	47.6	47.6	47.7	47.7	53	686.722
680.766	0	340383	20/Lo	5	1	0	1	0	9.0	0.0	9.0	0.0						807.2826005000388	813.5057804000098	813.5057804000098	2.0	['2', 'return']	[2.055921599967405, 2.760306300013326]	6.21	5.48	1.0	20hz	low_pain	47.7			sub-030	250	30	47.7	48.7	COM11	COM15	COM3	2024-04-11_13h32.28.729	001-EEG_SVR_Officel	2022.2.5	144.01689013440844		5.48599999999999	0_sub-pilot030_SVR_EEG_block1-2.protocol.csv	step53	7046	699.439	STIMULATE	47.8	47.6	47.6	47.7	47.7	53	686.722
690.314	0	345157	wait	20	1	0	1	0	10.0	0.0	10.0	0.0						829.2774089000886	835.3063431000337	835.3063431000337	7.0	['7', 'return']	[2.2385949000017717, 2.5828476999886334]	6.02	5.29	2.0	controle	high_pain	48.7			sub-030	250	30	47.7	48.7	COM11	COM15	COM3	2024-04-11_13h32.28.729	001-EEG_SVR_Officel	2022.2.5	144.01689013440844		10.298000000000002	0_sub-pilot030_SVR_EEG_block1-2.protocol.csv	step55	7263	720.985	STIMULATE	48.7	48.7	48.6	48.7	48.7	55	708.268
696.332	0	348166	CNhz	12	1	0	1	0	10.0	0.0	10.0	0.0						829.2774089000886	835.3063431000337	835.3063431000337	7.0	['7', 'return']	[2.2385949000017717, 2.5828476999886334]	6.02	5.29	2.0	controle	high_pain	48.7			sub-030	250	30	47.7	48.7	COM11	COM15	COM3	2024-04-11_13h32.28.729	001-EEG_SVR_Officel	2022.2.5	144.01689013440844		6.018000000000029	0_sub-pilot030_SVR_EEG_block1-2.protocol.csv	step55	7263	720.985	STIMULATE	48.7	48.7	48.6	48.7	48.7	55	708.268
702.372	0	351186	CN/Hi	10	1	0	1	0	10.0	0.0	10.0	0.0						829.2774089000886	835.3063431000337	835.3063431000337	7.0	['7', 'return']	[2.2385949000017717, 2.5828476999886334]	6.02	5.29	2.0	controle	high_pain	48.7			sub-030	250	30	47.7	48.7	COM11	COM15	COM3	2024-04-11_13h32.28.729	001-EEG_SVR_Officel	2022.2.5	144.01689013440844		5.289999999999964	0_sub-pilot030_SVR_EEG_block1-2.protocol.csv	step55	7263	720.985	STIMULATE	48.7	48.7	48.6	48.7	48.7	55	708.268
711.942	0	355971	wait	20	1	0	1	0	11.0	0.0	11.0	0.0						850.9054972000886	856.2952229999937	856.2952229999937	7.0	['7', 'return']	[1.586654799990356, 2.0830554000567645]	5.38	5.64	3.0	20hz	high_pain	48.7			sub-030	250	30	47.7	48.7	COM11	COM15	COM3	2024-04-11_13h32.28.729	001-EEG_SVR_Officel	2022.2.5	144.01689013440844		10.32000000000005	0_sub-pilot030_SVR_EEG_block1-2.protocol.csv	step57	7478	742.293	STIMULATE	48.7	48.7	48.7	48.7	48.6	57	729.576
717.32	0	358660	20hz	6	1	0	1	0	11.0	0.0	11.0	0.0						850.9054972000886	856.2952229999937	856.2952229999937	7.0	['7', 'return']	[1.586654799990356, 2.0830554000567645]	5.38	5.64	3.0	20hz	high_pain	48.7			sub-030	250	30	47.7	48.7	COM11	COM15	COM3	2024-04-11_13h32.28.729	001-EEG_SVR_Officel	2022.2.5	144.01689013440844		5.378000000000043	0_sub-pilot030_SVR_EEG_block1-2.protocol.csv	step57	7478	742.293	STIMULATE	48.7	48.7	48.7	48.7	48.6	57	729.576
723.714	0	361857	20/Hi	4	1	0	1	0	11.0	0.0	11.0	0.0						850.9054972000886	856.2952229999937	856.2952229999937	7.0	['7', 'return']	[1.586654799990356, 2.0830554000567645]	5.38	5.64	3.0	20hz	high_pain	48.7			sub-030	250	30	47.7	48.7	COM11	COM15	COM3	2024-04-11_13h32.28.729	001-EEG_SVR_Officel	2022.2.5	144.01689013440844		5.6440000000000055	0_sub-pilot030_SVR_EEG_block1-2.protocol.csv	step57	7478	742.293	STIMULATE	48.7	48.7	48.7	48.7	48.6	57	729.576
732.424	0	366212	wait	20	1	0	1	0	12.0	0.0	12.0	0.0						871.386993400054	877.068361600046	877.068361600046	6.0	['6', 'return']	[2.5811470000771806, 3.4695103000849485]	5.67	6.44	0.0	20hz	high_pain	48.7			sub-030	250	30	47.7	48.7	COM11	COM15	COM3	2024-04-11_13h32.28.729	001-EEG_SVR_Officel	2022.2.5	144.01689013440844		9.459999999999923	0_sub-pilot030_SVR_EEG_block1-2.protocol.csv	step59	7695	763.816	STIMULATE	48.7	48.7	48.7	48.7	48.7	59	751.0989999999999
738.094	0	369047	20hz	6	1	0	1	0	12.0	0.0	12.0	0.0						871.386993400054	877.068361600046	877.068361600046	6.0	['6', 'return']	[2.5811470000771806, 3.4695103000849485]	5.67	6.44	0.0	20hz	high_pain	48.7			sub-030	250	30	47.7	48.7	COM11	COM15	COM3	2024-04-11_13h32.28.729	001-EEG_SVR_Officel	2022.2.5	144.01689013440844		5.670000000000073	0_sub-pilot030_SVR_EEG_block1-2.protocol.csv	step59	7695	763.816	STIMULATE	48.7	48.7	48.7	48.7	48.7	59	751.0989999999999
745.286	0	372643	20/Hi	4	1	0	1	0	12.0	0.0	12.0	0.0						871.386993400054	877.068361600046	877.068361600046	6.0	['6', 'return']	[2.5811470000771806, 3.4695103000849485]	5.67	6.44	0.0	20hz	high_pain	48.7			sub-030	250	30	47.7	48.7	COM11	COM15	COM3	2024-04-11_13h32.28.729	001-EEG_SVR_Officel	2022.2.5	144.01689013440844		6.441999999999894	0_sub-pilot030_SVR_EEG_block1-2.protocol.csv	step59	7695	763.816	STIMULATE	48.7	48.7	48.7	48.7	48.7	59	751.0989999999999
754.586	0	377293	wait	20	1	0	1	0	13.0	0.0	13.0	0.0						893.5493843000149	899.1195135000162	899.1195135000162	5.0	['5', 'return']	[2.345476599992253, 2.9221751999575645]	5.56	5.65	1.0	40hz	low_pain	47.7			sub-030	250	30	47.7	48.7	COM11	COM15	COM3	2024-04-11_13h32.28.729	001-EEG_SVR_Officel	2022.2.5	144.01689013440844		10.050000000000068	0_sub-pilot030_SVR_EEG_block1-2.protocol.csv	step61	7909	785.127	STIMULATE	47.7	47.6	47.7	47.6	47.7	61	772.4099999999999
760.144	0	380072	40hz	9	1	0	1	0	13.0	0.0	13.0	0.0						893.5493843000149	899.1195135000162	899.1195135000162	5.0	['5', 'return']	[2.345476599992253, 2.9221751999575645]	5.56	5.65	1.0	40hz	low_pain	47.7			sub-030	250	30	47.7	48.7	COM11	COM15	COM3	2024-04-11_13h32.28.729	001-EEG_SVR_Officel	2022.2.5	144.01689013440844		5.557999999999993	0_sub-pilot030_SVR_EEG_block1-2.protocol.csv	step61	7909	785.127	STIMULATE	47.7	47.6	47.7	47.6	47.7	61	772.4099999999999
766.544	0	383272	40/Lo	8	1	0	1	0	13.0	0.0	13.0	0.0						893.5493843000149	899.1195135000162	899.1195135000162	5.0	['5', 'return']	[2.345476599992253, 2.9221751999575645]	5.56	5.65	1.0	40hz	low_pain	47.7			sub-030	250	30	47.7	48.7	COM11	COM15	COM3	2024-04-11_13h32.28.729	001-EEG_SVR_Officel	2022.2.5	144.01689013440844		5.649999999999977	0_sub-pilot030_SVR_EEG_block1-2.protocol.csv	step61	7909	785.127	STIMULATE	47.7	47.6	47.7	47.6	47.7	61	772.4099999999999
776.088	0	388044	wait	20	1	0	1	0	14.0	0.0	14.0	0.0						915.0515210999874	921.3721798000624	921.3721798000624	3.0	['3', 'return']	[2.549621600075625, 3.1332604000344872]	6.31	6.42	2.0	10hz	low_pain	47.7			sub-030	250	30	47.7	48.7	COM11	COM15	COM3	2024-04-11_13h32.28.729	001-EEG_SVR_Officel	2022.2.5	144.01689013440844		10.293999999999983	0_sub-pilot030_SVR_EEG_block1-2.protocol.csv	step63	8136	808.168	STIMULATE	47.7	47.6	47.7	47.6	47.7	63	795.451
782.396	0	391198	10hz	3	1	0	1	0	14.0	0.0	14.0	0.0						915.0515210999874	921.3721798000624	921.3721798000624	3.0	['3', 'return']	[2.549621600075625, 3.1332604000344872]	6.31	6.42	2.0	10hz	low_pain	47.7			sub-030	250	30	47.7	48.7	COM11	COM15	COM3	2024-04-11_13h32.28.729	001-EEG_SVR_Officel	2022.2.5	144.01689013440844		6.307999999999993	0_sub-pilot030_SVR_EEG_block1-2.protocol.csv	step63	8136	808.168	STIMULATE	47.7	47.6	47.7	47.6	47.7	63	795.451
789.568	0	394784	10/Lo	2	1	0	1	0	14.0	0.0	14.0	0.0						915.0515210999874	921.3721798000624	921.3721798000624	3.0	['3', 'return']	[2.549621600075625, 3.1332604000344872]	6.31	6.42	2.0	10hz	low_pain	47.7			sub-030	250	30	47.7	48.7	COM11	COM15	COM3	2024-04-11_13h32.28.729	001-EEG_SVR_Officel	2022.2.5	144.01689013440844		6.4220000000000255	0_sub-pilot030_SVR_EEG_block1-2.protocol.csv	step63	8136	808.168	STIMULATE	47.7	47.6	47.7	47.6	47.7	63	795.451
798.554	0	399277	wait	20	1	0	1	0	15.0	0.0	15.0	0.0						937.5195390000008	944.9375294999918	944.9375294999918	1.0	['1', 'return']	[2.8085989000974223, 3.767383099999279]	7.41	6.19	3.0	controle	low_pain	47.7			sub-030	250	30	47.7	48.7	COM11	COM15	COM3	2024-04-11_13h32.28.729	001-EEG_SVR_Officel	2022.2.5	144.01689013440844		9.73599999999999	0_sub-pilot030_SVR_EEG_block1-2.protocol.csv	step65	8363	831.605	STIMULATE	47.7	47.6	47.7	47.7	47.7	65	818.8879999999999
805.96	0	402980	CNhz	12	1	0	1	0	15.0	0.0	15.0	0.0						937.5195390000008	944.9375294999918	944.9375294999918	1.0	['1', 'return']	[2.8085989000974223, 3.767383099999279]	7.41	6.19	3.0	controle	low_pain	47.7			sub-030	250	30	47.7	48.7	COM11	COM15	COM3	2024-04-11_13h32.28.729	001-EEG_SVR_Officel	2022.2.5	144.01689013440844		7.406000000000063	0_sub-pilot030_SVR_EEG_block1-2.protocol.csv	step65	8363	831.605	STIMULATE	47.7	47.6	47.7	47.7	47.7	65	818.8879999999999
812.904	0	406452	CN/Lo	11	1	0	1	0	15.0	0.0	15.0	0.0						937.5195390000008	944.9375294999918	944.9375294999918	1.0	['1', 'return']	[2.8085989000974223, 3.767383099999279]	7.41	6.19	3.0	controle	low_pain	47.7			sub-030	250	30	47.7	48.7	COM11	COM15	COM3	2024-04-11_13h32.28.729	001-EEG_SVR_Officel	2022.2.5	144.01689013440844		6.19399999999996	0_sub-pilot030_SVR_EEG_block1-2.protocol.csv	step65	8363	831.605	STIMULATE	47.7	47.6	47.7	47.7	47.7	65	818.8879999999999
883.712	0	441856	wait	20	2	0	2	0	0.0	0.0	0.0	0.0				p	1.2414009999483824	1022.6761302000376	1029.9131103000836	1029.9131103000836	5.0	['5', 'return']	[2.2643016000511125, 3.015749300015159]	7.23	6.39	0.0	20hz	low_pain	47.7			sub-030	250	30	47.7	48.7	COM11	COM15	COM3	2024-04-11_13h32.28.729	001-EEG_SVR_Officel	2022.2.5	144.01689013440844		71.55799999999999	1_sub-pilot030_SVR_EEG_block3-4.protocol.csv	step3	722	72.01	STIMULATE	47.7	47.6	47.6	47.6	47.7	3	903.849
890.936	0	445468	20hz	6	2	0	2	0	0.0	0.0	0.0	0.0				p	1.2414009999483824	1022.6761302000376	1029.9131103000836	1029.9131103000836	5.0	['5', 'return']	[2.2643016000511125, 3.015749300015159]	7.23	6.39	0.0	20hz	low_pain	47.7			sub-030	250	30	47.7	48.7	COM11	COM15	COM3	2024-04-11_13h32.28.729	001-EEG_SVR_Officel	2022.2.5	144.01689013440844		7.224000000000046	1_sub-pilot030_SVR_EEG_block3-4.protocol.csv	step3	722	72.01	STIMULATE	47.7	47.6	47.6	47.6	47.7	3	903.849
898.08	0	449040	20/Lo	5	2	0	2	0	0.0	0.0	0.0	0.0				p	1.2414009999483824	1022.6761302000376	1029.9131103000836	1029.9131103000836	5.0	['5', 'return']	[2.2643016000511125, 3.015749300015159]	7.23	6.39	0.0	20hz	low_pain	47.7			sub-030	250	30	47.7	48.7	COM11	COM15	COM3	2024-04-11_13h32.28.729	001-EEG_SVR_Officel	2022.2.5	144.01689013440844		6.3940000000000055	1_sub-pilot030_SVR_EEG_block3-4.protocol.csv	step3	722	72.01	STIMULATE	47.7	47.6	47.6	47.6	47.7	3	903.849
906.984	0	453492	wait	20	2	0	2	0	1.0	0.0	1.0	0.0						1045.9500496000985	1051.4717141999863	1051.4717141999863	8.0	['8', 'return']	[2.3068050999427214, 2.826649499940686]	5.51	5.88	1.0	10hz	high_pain	48.7			sub-030	250	30	47.7	48.7	COM11	COM15	COM3	2024-04-11_13h32.28.729	001-EEG_SVR_Officel	2022.2.5	144.01689013440844		9.653999999999996	1_sub-pilot030_SVR_EEG_block3-4.protocol.csv	step5	935	93.128	STIMULATE	48.7	48.6	48.7	48.7	48.8	5	924.9670000000001
912.494	0	456247	10hz	3	2	0	2	0	1.0	0.0	1.0	0.0						1045.9500496000985	1051.4717141999863	1051.4717141999863	8.0	['8', 'return']	[2.3068050999427214, 2.826649499940686]	5.51	5.88	1.0	10hz	high_pain	48.7			sub-030	250	30	47.7	48.7	COM11	COM15	COM3	2024-04-11_13h32.28.729	001-EEG_SVR_Officel	2022.2.5	144.01689013440844		5.509999999999991	1_sub-pilot030_SVR_EEG_block3-4.protocol.csv	step5	935	93.128	STIMULATE	48.7	48.6	48.7	48.7	48.8	5	924.9670000000001
919.126	0	459563	10/Hi	1	2	0	2	0	1.0	0.0	1.0	0.0						1045.9500496000985	1051.4717141999863	1051.4717141999863	8.0	['8', 'return']	[2.3068050999427214, 2.826649499940686]	5.51	5.88	1.0	10hz	high_pain	48.7			sub-030	250	30	47.7	48.7	COM11	COM15	COM3	2024-04-11_13h32.28.729	001-EEG_SVR_Officel	2022.2.5	144.01689013440844		5.881999999999948	1_sub-pilot030_SVR_EEG_block3-4.protocol.csv	step5	935	93.128	STIMULATE	48.7	48.6	48.7	48.7	48.8	5	924.9670000000001
928.356	0	464178	wait	20	2	0	2	0	2.0	0.0	2.0	0.0						1067.3203115999931	1075.0992702000076	1075.0992702000076	8.0	['8', 'return']	[1.9838820999721065, 2.424942799960263]	7.77	5.74	2.0	controle	high_pain	48.7			sub-030	250	30	47.7	48.7	COM11	COM15	COM3	2024-04-11_13h32.28.729	001-EEG_SVR_Officel	2022.2.5	144.01689013440844		9.980000000000018	1_sub-pilot030_SVR_EEG_block3-4.protocol.csv	step7	1172	116.601	STIMULATE	48.7	48.7	48.7	48.7	48.7	7	948.44
936.126	0	468063	CNhz	12	2	0	2	0	2.0	0.0	2.0	0.0						1067.3203115999931	1075.0992702000076	1075.0992702000076	8.0	['8', 'return']	[1.9838820999721065, 2.424942799960263]	7.77	5.74	2.0	controle	high_pain	48.7			sub-030	250	30	47.7	48.7	COM11	COM15	COM3	2024-04-11_13h32.28.729	001-EEG_SVR_Officel	2022.2.5	144.01689013440844		7.769999999999982	1_sub-pilot030_SVR_EEG_block3-4.protocol.csv	step7	1172	116.601	STIMULATE	48.7	48.7	48.7	48.7	48.7	7	948.44
942.614	0	471307	CN/Hi	10	2	0	2	0	2.0	0.0	2.0	0.0						1067.3203115999931	1075.0992702000076	1075.0992702000076	8.0	['8', 'return']	[1.9838820999721065, 2.424942799960263]	7.77	5.74	2.0	controle	high_pain	48.7			sub-030	250	30	47.7	48.7	COM11	COM15	COM3	2024-04-11_13h32.28.729	001-EEG_SVR_Officel	2022.2.5	144.01689013440844		5.738000000000056	1_sub-pilot030_SVR_EEG_block3-4.protocol.csv	step7	1172	116.601	STIMULATE	48.7	48.7	48.7	48.7	48.7	7	948.44
951.586	0	475793	wait	20	2	0	2	0	3.0	0.0	3.0	0.0						1090.552144000074	1096.8723422000185	1096.8723422000185	8.0	['8', 'return']	[2.0326187000609934, 3.2973904000828043]	6.31	5.4	3.0	20hz	high_pain	48.7			sub-030	250	30	47.7	48.7	COM11	COM15	COM3	2024-04-11_13h32.28.729	001-EEG_SVR_Officel	2022.2.5	144.01689013440844		9.72199999999998	1_sub-pilot030_SVR_EEG_block3-4.protocol.csv	step9	1388	138.055	STIMULATE	48.7	48.6	48.7	48.7	48.7	9	969.894
957.896	0	478948	20hz	6	2	0	2	0	3.0	0.0	3.0	0.0						1090.552144000074	1096.8723422000185	1096.8723422000185	8.0	['8', 'return']	[2.0326187000609934, 3.2973904000828043]	6.31	5.4	3.0	20hz	high_pain	48.7			sub-030	250	30	47.7	48.7	COM11	COM15	COM3	2024-04-11_13h32.28.729	001-EEG_SVR_Officel	2022.2.5	144.01689013440844		6.309999999999945	1_sub-pilot030_SVR_EEG_block3-4.protocol.csv	step9	1388	138.055	STIMULATE	48.7	48.6	48.7	48.7	48.7	9	969.894
964.046	0	482023	20/Hi	4	2	0	2	0	3.0	0.0	3.0	0.0						1090.552144000074	1096.8723422000185	1096.8723422000185	8.0	['8', 'return']	[2.0326187000609934, 3.2973904000828043]	6.31	5.4	3.0	20hz	high_pain	48.7			sub-030	250	30	47.7	48.7	COM11	COM15	COM3	2024-04-11_13h32.28.729	001-EEG_SVR_Officel	2022.2.5	144.01689013440844		5.400000000000091	1_sub-pilot030_SVR_EEG_block3-4.protocol.csv	step9	1388	138.055	STIMULATE	48.7	48.6	48.7	48.7	48.7	9	969.894
974.222	0	487111	wait	20	2	0	2	0	4.0	0.0	4.0	0.0						1113.1874146000482	1120.2641961000627	1120.2641961000627	4.0	['4', 'return']	[2.6408482000697404, 3.2333454000763595]	7.07	6.09	0.0	40hz	low_pain	47.7			sub-030	250	30	47.7	48.7	COM11	COM15	COM3	2024-04-11_13h32.28.729	001-EEG_SVR_Officel	2022.2.5	144.01689013440844		10.92599999999993	1_sub-pilot030_SVR_EEG_block3-4.protocol.csv	step11	1631	162.173	STIMULATE	47.7	47.6	47.6	47.6	47.7	11	994.0120000000001
981.286	0	490643	40hz	9	2	0	2	0	4.0	0.0	4.0	0.0						1113.1874146000482	1120.2641961000627	1120.2641961000627	4.0	['4', 'return']	[2.6408482000697404, 3.2333454000763595]	7.07	6.09	0.0	40hz	low_pain	47.7			sub-030	250	30	47.7	48.7	COM11	COM15	COM3	2024-04-11_13h32.28.729	001-EEG_SVR_Officel	2022.2.5	144.01689013440844		7.0639999999999645	1_sub-pilot030_SVR_EEG_block3-4.protocol.csv	step11	1631	162.173	STIMULATE	47.7	47.6	47.6	47.6	47.7	11	994.0120000000001
988.126	0	494063	40/Lo	8	2	0	2	0	4.0	0.0	4.0	0.0						1113.1874146000482	1120.2641961000627	1120.2641961000627	4.0	['4', 'return']	[2.6408482000697404, 3.2333454000763595]	7.07	6.09	0.0	40hz	low_pain	47.7			sub-030	250	30	47.7	48.7	COM11	COM15	COM3	2024-04-11_13h32.28.729	001-EEG_SVR_Officel	2022.2.5	144.01689013440844		6.090000000000032	1_sub-pilot030_SVR_EEG_block3-4.protocol.csv	step11	1631	162.173	STIMULATE	47.7	47.6	47.6	47.6	47.7	11	994.0120000000001
997.544	0	498772	wait	20	2	0	2	0	5.0	0.0	5.0	0.0						1136.5094284000809	1144.4686082000844	1144.4686082000844	4.0	['4', 'return']	[2.6454560999991372, 3.2052079000277445]	7.95	5.86	1.0	controle	low_pain	47.7			sub-030	250	30	47.7	48.7	COM11	COM15	COM3	2024-04-11_13h32.28.729	001-EEG_SVR_Officel	2022.2.5	144.01689013440844		10.168000000000006	1_sub-pilot030_SVR_EEG_block3-4.protocol.csv	step13	1872	186.075	STIMULATE	47.7	47.6	47.6	47.7	47.6	13	1017.914
1005.49	0	502745	CNhz	12	2	0	2	0	5.0	0.0	5.0	0.0						1136.5094284000809	1144.4686082000844	1144.4686082000844	4.0	['4', 'return']	[2.6454560999991372, 3.2052079000277445]	7.95	5.86	1.0	controle	low_pain	47.7			sub-030	250	30	47.7	48.7	COM11	COM15	COM3	2024-04-11_13h32.28.729	001-EEG_SVR_Officel	2022.2.5	144.01689013440844		7.946000000000026	1_sub-pilot030_SVR_EEG_block3-4.protocol.csv	step13	1872	186.075	STIMULATE	47.7	47.6	47.6	47.7	47.6	13	1017.914
1012.1	0	506050	CN/Lo	11	2	0	2	0	5.0	0.0	5.0	0.0						1136.5094284000809	1144.4686082000844	1144.4686082000844	4.0	['4', 'return']	[2.6454560999991372, 3.2052079000277445]	7.95	5.86	1.0	controle	low_pain	47.7			sub-030	250	30	47.7	48.7	COM11	COM15	COM3	2024-04-11_13h32.28.729	001-EEG_SVR_Officel	2022.2.5	144.01689013440844		5.860000000000014	1_sub-pilot030_SVR_EEG_block3-4.protocol.csv	step13	1872	186.075	STIMULATE	47.7	47.6	47.6	47.7	47.6	13	1017.914
1021.726	0	510863	wait	20	2	0	2	0	6.0	0.0	6.0	0.0						1160.6928703000303	1166.0822113000322	1166.0822113000322	5.0	['5', 'return']	[2.6644442999968305, 3.176071699941531]	5.38	5.56	2.0	40hz	high_pain	48.7			sub-030	250	30	47.7	48.7	COM11	COM15	COM3	2024-04-11_13h32.28.729	001-EEG_SVR_Officel	2022.2.5	144.01689013440844		10.375999999999976	1_sub-pilot030_SVR_EEG_block3-4.protocol.csv	step15	2088	207.467	STIMULATE	48.7	48.6	48.7	48.7	48.7	15	1039.306
1027.104	0	513552	40hz	9	2	0	2	0	6.0	0.0	6.0	0.0						1160.6928703000303	1166.0822113000322	1166.0822113000322	5.0	['5', 'return']	[2.6644442999968305, 3.176071699941531]	5.38	5.56	2.0	40hz	high_pain	48.7			sub-030	250	30	47.7	48.7	COM11	COM15	COM3	2024-04-11_13h32.28.729	001-EEG_SVR_Officel	2022.2.5	144.01689013440844		5.378000000000043	1_sub-pilot030_SVR_EEG_block3-4.protocol.csv	step15	2088	207.467	STIMULATE	48.7	48.6	48.7	48.7	48.7	15	1039.306
1033.416	0	516707	40/Hi	7	2	0	2	0	6.0	0.0	6.0	0.0						1160.6928703000303	1166.0822113000322	1166.0822113000322	5.0	['5', 'return']	[2.6644442999968305, 3.176071699941531]	5.38	5.56	2.0	40hz	high_pain	48.7			sub-030	250	30	47.7	48.7	COM11	COM15	COM3	2024-04-11_13h32.28.729	001-EEG_SVR_Officel	2022.2.5	144.01689013440844		5.561999999999898	1_sub-pilot030_SVR_EEG_block3-4.protocol.csv	step15	2088	207.467	STIMULATE	48.7	48.6	48.7	48.7	48.7	15	1039.306
1043.314	0	521657	wait	20	2	0	2	0	7.0	0.0	7.0	0.0						1182.278938200092	1189.3974845000776	1189.3974845000776	5.0	['5', 'return']	[2.5719835000345483, 3.0520104001043364]	7.11	5.38	3.0	10hz	high_pain	48.7			sub-030	250	30	47.7	48.7	COM11	COM15	COM3	2024-04-11_13h32.28.729	001-EEG_SVR_Officel	2022.2.5	144.01689013440844		10.648000000000138	1_sub-pilot030_SVR_EEG_block3-4.protocol.csv	step17	2321	230.556	STIMULATE	48.7	48.7	48.7	48.6	48.7	17	1062.395
1050.418	0	525209	10hz	3	2	0	2	0	7.0	0.0	7.0	0.0						1182.278938200092	1189.3974845000776	1189.3974845000776	5.0	['5', 'return']	[2.5719835000345483, 3.0520104001043364]	7.11	5.38	3.0	10hz	high_pain	48.7			sub-030	250	30	47.7	48.7	COM11	COM15	COM3	2024-04-11_13h32.28.729	001-EEG_SVR_Officel	2022.2.5	144.01689013440844		7.1039999999998145	1_sub-pilot030_SVR_EEG_block3-4.protocol.csv	step17	2321	230.556	STIMULATE	48.7	48.7	48.7	48.6	48.7	17	1062.395
1056.55	0	528275	10/Hi	1	2	0	2	0	7.0	0.0	7.0	0.0						1182.278938200092	1189.3974845000776	1189.3974845000776	5.0	['5', 'return']	[2.5719835000345483, 3.0520104001043364]	7.11	5.38	3.0	10hz	high_pain	48.7			sub-030	250	30	47.7	48.7	COM11	COM15	COM3	2024-04-11_13h32.28.729	001-EEG_SVR_Officel	2022.2.5	144.01689013440844		5.382000000000062	1_sub-pilot030_SVR_EEG_block3-4.protocol.csv	step17	2321	230.556	STIMULATE	48.7	48.7	48.7	48.6	48.7	17	1062.395
1066.502	0	533251	wait	20	2	0	2	0	8.0	0.0	8.0	0.0						1205.4687442000725	1212.177854000009	1212.177854000009	6.0	['6', 'return']	[2.5992269000271335, 3.8238724000984803]	6.7	5.34	0.0	40hz	high_pain	48.7			sub-030	250	30	47.7	48.7	COM11	COM15	COM3	2024-04-11_13h32.28.729	001-EEG_SVR_Officel	2022.2.5	144.01689013440844		10.701999999999998	1_sub-pilot030_SVR_EEG_block3-4.protocol.csv	step19	2550	253.275	STIMULATE	48.7	48.6	48.7	48.6	48.8	19	1085.114
1073.2	0	536600	40hz	9	2	0	2	0	8.0	0.0	8.0	0.0						1205.4687442000725	1212.177854000009	1212.177854000009	6.0	['6', 'return']	[2.5992269000271335, 3.8238724000984803]	6.7	5.34	0.0	40hz	high_pain	48.7			sub-030	250	30	47.7	48.7	COM11	COM15	COM3	2024-04-11_13h32.28.729	001-EEG_SVR_Officel	2022.2.5	144.01689013440844		6.698000000000093	1_sub-pilot030_SVR_EEG_block3-4.protocol.csv	step19	2550	253.275	STIMULATE	48.7	48.6	48.7	48.6	48.8	19	1085.114
1079.288	0	539644	40/Hi	7	2	0	2	0	8.0	0.0	8.0	0.0						1205.4687442000725	1212.177854000009	1212.177854000009	6.0	['6', 'return']	[2.5992269000271335, 3.8238724000984803]	6.7	5.34	0.0	40hz	high_pain	48.7			sub-030	250	30	47.7	48.7	COM11	COM15	COM3	2024-04-11_13h32.28.729	001-EEG_SVR_Officel	2022.2.5	144.01689013440844		5.337999999999965	1_sub-pilot030_SVR_EEG_block3-4.protocol.csv	step19	2550	253.275	STIMULATE	48.7	48.6	48.7	48.6	48.8	19	1085.114
1090.046	0	545023	wait	20	2	0	2	0	9.0	0.0	9.0	0.0						1229.0127214000097	1234.7013675000053	1234.7013675000053	4.0	['4', 'return']	[2.5402461999328807, 3.2035767999477684]	5.68	6.22	1.0	20hz	low_pain	47.7			sub-030	250	30	47.7	48.7	COM11	COM15	COM3	2024-04-11_13h32.28.729	001-EEG_SVR_Officel	2022.2.5	144.01689013440844		11.508000000000038	1_sub-pilot030_SVR_EEG_block3-4.protocol.csv	step21	2786	276.61	STIMULATE	47.8	47.6	47.6	47.7	47.7	21	1108.449
1095.724	0	547862	20hz	6	2	0	2	0	9.0	0.0	9.0	0.0						1229.0127214000097	1234.7013675000053	1234.7013675000053	4.0	['4', 'return']	[2.5402461999328807, 3.2035767999477684]	5.68	6.22	1.0	20hz	low_pain	47.7			sub-030	250	30	47.7	48.7	COM11	COM15	COM3	2024-04-11_13h32.28.729	001-EEG_SVR_Officel	2022.2.5	144.01689013440844		5.677999999999884	1_sub-pilot030_SVR_EEG_block3-4.protocol.csv	step21	2786	276.61	STIMULATE	47.8	47.6	47.6	47.7	47.7	21	1108.449
1102.694	0	551347	20/Lo	5	2	0	2	0	9.0	0.0	9.0	0.0						1229.0127214000097	1234.7013675000053	1234.7013675000053	4.0	['4', 'return']	[2.5402461999328807, 3.2035767999477684]	5.68	6.22	1.0	20hz	low_pain	47.7			sub-030	250	30	47.7	48.7	COM11	COM15	COM3	2024-04-11_13h32.28.729	001-EEG_SVR_Officel	2022.2.5	144.01689013440844		6.220000000000027	1_sub-pilot030_SVR_EEG_block3-4.protocol.csv	step21	2786	276.61	STIMULATE	47.8	47.6	47.6	47.7	47.7	21	1108.449
1111.96	0	555980	wait	20	2	0	2	0	10.0	0.0	10.0	0.0						1250.925567700062	1258.3008469000924	1258.3008469000924	7.0	['7', 'return']	[2.572596100042574, 3.0763635000912473]	7.37	6.02	2.0	10hz	high_pain	48.7			sub-030	250	30	47.7	48.7	COM11	COM15	COM3	2024-04-11_13h32.28.729	001-EEG_SVR_Officel	2022.2.5	144.01689013440844		10.016000000000076	1_sub-pilot030_SVR_EEG_block3-4.protocol.csv	step23	3022	300.084	STIMULATE	48.7	48.7	48.6	48.7	48.7	23	1131.923
1119.33	0	559665	10hz	3	2	0	2	0	10.0	0.0	10.0	0.0						1250.925567700062	1258.3008469000924	1258.3008469000924	7.0	['7', 'return']	[2.572596100042574, 3.0763635000912473]	7.37	6.02	2.0	10hz	high_pain	48.7			sub-030	250	30	47.7	48.7	COM11	COM15	COM3	2024-04-11_13h32.28.729	001-EEG_SVR_Officel	2022.2.5	144.01689013440844		7.369999999999891	1_sub-pilot030_SVR_EEG_block3-4.protocol.csv	step23	3022	300.084	STIMULATE	48.7	48.7	48.6	48.7	48.7	23	1131.923
1126.1	0	563050	10/Hi	1	2	0	2	0	10.0	0.0	10.0	0.0						1250.925567700062	1258.3008469000924	1258.3008469000924	7.0	['7', 'return']	[2.572596100042574, 3.0763635000912473]	7.37	6.02	2.0	10hz	high_pain	48.7			sub-030	250	30	47.7	48.7	COM11	COM15	COM3	2024-04-11_13h32.28.729	001-EEG_SVR_Officel	2022.2.5	144.01689013440844		6.019999999999982	1_sub-pilot030_SVR_EEG_block3-4.protocol.csv	step23	3022	300.084	STIMULATE	48.7	48.7	48.6	48.7	48.7	23	1131.923
1135.436	0	567718	wait	20	2	0	2	0	11.0	0.0	11.0	0.0						1274.4010088000214	1281.9576495999936	1281.9576495999936	2.0	['2', 'return']	[2.667856700019911, 3.245237300056033]	7.55	5.82	3.0	controle	low_pain	47.7			sub-030	250	30	47.7	48.7	COM11	COM15	COM3	2024-04-11_13h32.28.729	001-EEG_SVR_Officel	2022.2.5	144.01689013440844		10.086000000000013	1_sub-pilot030_SVR_EEG_block3-4.protocol.csv	step25	3259	323.572	STIMULATE	47.7	47.7	47.6	47.7	47.7	25	1155.411
1142.978	0	571489	CNhz	12	2	0	2	0	11.0	0.0	11.0	0.0						1274.4010088000214	1281.9576495999936	1281.9576495999936	2.0	['2', 'return']	[2.667856700019911, 3.245237300056033]	7.55	5.82	3.0	controle	low_pain	47.7			sub-030	250	30	47.7	48.7	COM11	COM15	COM3	2024-04-11_13h32.28.729	001-EEG_SVR_Officel	2022.2.5	144.01689013440844		7.542000000000144	1_sub-pilot030_SVR_EEG_block3-4.protocol.csv	step25	3259	323.572	STIMULATE	47.7	47.7	47.6	47.7	47.7	25	1155.411
1149.548	0	574774	CN/Lo	11	2	0	2	0	11.0	0.0	11.0	0.0						1274.4010088000214	1281.9576495999936	1281.9576495999936	2.0	['2', 'return']	[2.667856700019911, 3.245237300056033]	7.55	5.82	3.0	controle	low_pain	47.7			sub-030	250	30	47.7	48.7	COM11	COM15	COM3	2024-04-11_13h32.28.729	001-EEG_SVR_Officel	2022.2.5	144.01689013440844		5.819999999999936	1_sub-pilot030_SVR_EEG_block3-4.protocol.csv	step25	3259	323.572	STIMULATE	47.7	47.7	47.6	47.7	47.7	25	1155.411
1159.256	0	579628	wait	20	2	0	2	0	12.0	0.0	12.0	0.0						1298.223354000016	1305.9322472000497	1305.9322472000497	5.0	['5', 'return']	[2.3648929999908432, 2.9095430000452325]	7.7	5.39	0.0	10hz	high_pain	48.7			sub-030	250	30	47.7	48.7	COM11	COM15	COM3	2024-04-11_13h32.28.729	001-EEG_SVR_Officel	2022.2.5	144.01689013440844		10.458000000000084	1_sub-pilot030_SVR_EEG_block3-4.protocol.csv	step27	3497	347.116	STIMULATE	48.8	48.6	48.7	48.7	48.6	27	1178.955
1166.954	0	583477	10hz	3	2	0	2	0	12.0	0.0	12.0	0.0						1298.223354000016	1305.9322472000497	1305.9322472000497	5.0	['5', 'return']	[2.3648929999908432, 2.9095430000452325]	7.7	5.39	0.0	10hz	high_pain	48.7			sub-030	250	30	47.7	48.7	COM11	COM15	COM3	2024-04-11_13h32.28.729	001-EEG_SVR_Officel	2022.2.5	144.01689013440844		7.697999999999865	1_sub-pilot030_SVR_EEG_block3-4.protocol.csv	step27	3497	347.116	STIMULATE	48.8	48.6	48.7	48.7	48.6	27	1178.955
1173.098	0	586549	10/Hi	1	2	0	2	0	12.0	0.0	12.0	0.0						1298.223354000016	1305.9322472000497	1305.9322472000497	5.0	['5', 'return']	[2.3648929999908432, 2.9095430000452325]	7.7	5.39	0.0	10hz	high_pain	48.7			sub-030	250	30	47.7	48.7	COM11	COM15	COM3	2024-04-11_13h32.28.729	001-EEG_SVR_Officel	2022.2.5	144.01689013440844		5.3940000000000055	1_sub-pilot030_SVR_EEG_block3-4.protocol.csv	step27	3497	347.116	STIMULATE	48.8	48.6	48.7	48.7	48.6	27	1178.955
1182.884	0	591442	wait	20	2	0	2	0	13.0	0.0	13.0	0.0						1321.850775500061	1327.5597544000484	1327.5597544000484	5.0	['5', 'return']	[2.6733953999355435, 3.330556600005366]	5.7	6.49	1.0	20hz	high_pain	48.7			sub-030	250	30	47.7	48.7	COM11	COM15	COM3	2024-04-11_13h32.28.729	001-EEG_SVR_Officel	2022.2.5	144.01689013440844		10.536000000000058	1_sub-pilot030_SVR_EEG_block3-4.protocol.csv	step29	3726	369.891	STIMULATE	48.8	48.6	48.7	48.7	48.8	29	1201.73
1188.58	0	594290	20hz	6	2	0	2	0	13.0	0.0	13.0	0.0						1321.850775500061	1327.5597544000484	1327.5597544000484	5.0	['5', 'return']	[2.6733953999355435, 3.330556600005366]	5.7	6.49	1.0	20hz	high_pain	48.7			sub-030	250	30	47.7	48.7	COM11	COM15	COM3	2024-04-11_13h32.28.729	001-EEG_SVR_Officel	2022.2.5	144.01689013440844		5.695999999999913	1_sub-pilot030_SVR_EEG_block3-4.protocol.csv	step29	3726	369.891	STIMULATE	48.8	48.6	48.7	48.7	48.8	29	1201.73
1195.824	0	597912	20/Hi	4	2	0	2	0	13.0	0.0	13.0	0.0						1321.850775500061	1327.5597544000484	1327.5597544000484	5.0	['5', 'return']	[2.6733953999355435, 3.330556600005366]	5.7	6.49	1.0	20hz	high_pain	48.7			sub-030	250	30	47.7	48.7	COM11	COM15	COM3	2024-04-11_13h32.28.729	001-EEG_SVR_Officel	2022.2.5	144.01689013440844		6.494000000000142	1_sub-pilot030_SVR_EEG_block3-4.protocol.csv	step29	3726	369.891	STIMULATE	48.8	48.6	48.7	48.7	48.8	29	1201.73
1204.934	0	602467	wait	20	2	0	2	0	14.0	0.0	14.0	0.0						1343.9021441000514	1350.95180410007	1350.95180410007	5.0	['5', 'return']	[2.2816114999586716, 3.5295046999817714]	7.04	5.35	2.0	20hz	high_pain	48.7			sub-030	250	30	47.7	48.7	COM11	COM15	COM3	2024-04-11_13h32.28.729	001-EEG_SVR_Officel	2022.2.5	144.01689013440844		9.8599999999999	1_sub-pilot030_SVR_EEG_block3-4.protocol.csv	step31	3951	392.175	STIMULATE	48.7	48.7	48.7	48.7	48.7	31	1224.0140000000001
1211.972	0	605986	20hz	6	2	0	2	0	14.0	0.0	14.0	0.0						1343.9021441000514	1350.95180410007	1350.95180410007	5.0	['5', 'return']	[2.2816114999586716, 3.5295046999817714]	7.04	5.35	2.0	20hz	high_pain	48.7			sub-030	250	30	47.7	48.7	COM11	COM15	COM3	2024-04-11_13h32.28.729	001-EEG_SVR_Officel	2022.2.5	144.01689013440844		7.038000000000011	1_sub-pilot030_SVR_EEG_block3-4.protocol.csv	step31	3951	392.175	STIMULATE	48.7	48.7	48.7	48.7	48.7	31	1224.0140000000001
1218.076	0	609038	20/Hi	4	2	0	2	0	14.0	0.0	14.0	0.0						1343.9021441000514	1350.95180410007	1350.95180410007	5.0	['5', 'return']	[2.2816114999586716, 3.5295046999817714]	7.04	5.35	2.0	20hz	high_pain	48.7			sub-030	250	30	47.7	48.7	COM11	COM15	COM3	2024-04-11_13h32.28.729	001-EEG_SVR_Officel	2022.2.5	144.01689013440844		5.354000000000042	1_sub-pilot030_SVR_EEG_block3-4.protocol.csv	step31	3951	392.175	STIMULATE	48.7	48.7	48.7	48.7	48.7	31	1224.0140000000001
1228.528	0	614264	wait	20	2	0	2	0	15.0	0.0	15.0	0.0						1367.4950962000294	1373.1841597000605	1373.1841597000605	1.0	['1', 'return']	[2.696989000076428, 3.3368512999732047]	5.68	6.1	3.0	20hz	low_pain	47.7			sub-030	250	30	47.7	48.7	COM11	COM15	COM3	2024-04-11_13h32.28.729	001-EEG_SVR_Officel	2022.2.5	144.01689013440844		11.201999999999998	1_sub-pilot030_SVR_EEG_block3-4.protocol.csv	step33	4183	415.139	STIMULATE	47.7	47.6	47.7	47.7	47.7	33	1246.978
1234.204	0	617102	20hz	6	2	0	2	0	15.0	0.0	15.0	0.0						1367.4950962000294	1373.1841597000605	1373.1841597000605	1.0	['1', 'return']	[2.696989000076428, 3.3368512999732047]	5.68	6.1	3.0	20hz	low_pain	47.7			sub-030	250	30	47.7	48.7	COM11	COM15	COM3	2024-04-11_13h32.28.729	001-EEG_SVR_Officel	2022.2.5	144.01689013440844		5.675999999999931	1_sub-pilot030_SVR_EEG_block3-4.protocol.csv	step33	4183	415.139	STIMULATE	47.7	47.6	47.7	47.7	47.7	33	1246.978
1241.056	0	620528	20/Lo	5	2	0	2	0	15.0	0.0	15.0	0.0						1367.4950962000294	1373.1841597000605	1373.1841597000605	1.0	['1', 'return']	[2.696989000076428, 3.3368512999732047]	5.68	6.1	3.0	20hz	low_pain	47.7			sub-030	250	30	47.7	48.7	COM11	COM15	COM3	2024-04-11_13h32.28.729	001-EEG_SVR_Officel	2022.2.5	144.01689013440844		6.102000000000089	1_sub-pilot030_SVR_EEG_block3-4.protocol.csv	step33	4183	415.139	STIMULATE	47.7	47.6	47.7	47.7	47.7	33	1246.978
1348.064	0	674032	wait	20	3	0	3	0	0.0	0.0	0.0	0.0				p	0.5661108000203967	1487.0302415000042	1494.9827157000543	1494.9827157000543	3.0	['3', 'return']	[2.1226917000021785, 3.362786899902858]	7.94	5.08	0.0	controle	low_pain	47.7			sub-030	250	30	47.7	48.7	COM11	COM15	COM3	2024-04-11_13h32.28.729	001-EEG_SVR_Officel	2022.2.5	144.01689013440844		107.75800000000004	1_sub-pilot030_SVR_EEG_block3-4.protocol.csv	step35	5393	535.919	STIMULATE	47.7	47.6	47.6	47.6	47.7	35	1367.739
1356.002	0	678001	CNhz	12	3	0	3	0	0.0	0.0	0.0	0.0				p	0.5661108000203967	1487.0302415000042	1494.9827157000543	1494.9827157000543	3.0	['3', 'return']	[2.1226917000021785, 3.362786899902858]	7.94	5.08	0.0	controle	low_pain	47.7			sub-030	250	30	47.7	48.7	COM11	COM15	COM3	2024-04-11_13h32.28.729	001-EEG_SVR_Officel	2022.2.5	144.01689013440844		7.9379999999998745	1_sub-pilot030_SVR_EEG_block3-4.protocol.csv	step35	5393	535.919	STIMULATE	47.7	47.6	47.6	47.6	47.7	35	1367.739
1361.834	0	680917	CN/Lo	11	3	0	3	0	0.0	0.0	0.0	0.0				p	0.5661108000203967	1487.0302415000042	1494.9827157000543	1494.9827157000543	3.0	['3', 'return']	[2.1226917000021785, 3.362786899902858]	7.94	5.08	0.0	controle	low_pain	47.7			sub-030	250	30	47.7	48.7	COM11	COM15	COM3	2024-04-11_13h32.28.729	001-EEG_SVR_Officel	2022.2.5	144.01689013440844		5.082000000000107	1_sub-pilot030_SVR_EEG_block3-4.protocol.csv	step35	5393	535.919	STIMULATE	47.7	47.6	47.6	47.6	47.7	35	1367.739
1372.39	0	686195	wait	20	3	0	3	0	1.0	0.0	1.0	0.0						1511.35924660007	1518.985824200092	1518.985824200092	6.0	['6', 'return']	[1.6716168000129983, 2.175323799951002]	7.62	5.42	1.0	40hz	high_pain	48.7			sub-030	250	30	47.7	48.7	COM11	COM15	COM3	2024-04-11_13h32.28.729	001-EEG_SVR_Officel	2022.2.5	144.01689013440844		11.30600000000004	1_sub-pilot030_SVR_EEG_block3-4.protocol.csv	step37	5637	560.16	STIMULATE	48.7	48.7	48.7	48.7	48.9	37	1391.98
1380.006	0	690003	40hz	9	3	0	3	0	1.0	0.0	1.0	0.0						1511.35924660007	1518.985824200092	1518.985824200092	6.0	['6', 'return']	[1.6716168000129983, 2.175323799951002]	7.62	5.42	1.0	40hz	high_pain	48.7			sub-030	250	30	47.7	48.7	COM11	COM15	COM3	2024-04-11_13h32.28.729	001-EEG_SVR_Officel	2022.2.5	144.01689013440844		7.6159999999999854	1_sub-pilot030_SVR_EEG_block3-4.protocol.csv	step37	5637	560.16	STIMULATE	48.7	48.7	48.7	48.7	48.9	37	1391.98
1386.178	0	693089	40/Hi	7	3	0	3	0	1.0	0.0	1.0	0.0						1511.35924660007	1518.985824200092	1518.985824200092	6.0	['6', 'return']	[1.6716168000129983, 2.175323799951002]	7.62	5.42	1.0	40hz	high_pain	48.7			sub-030	250	30	47.7	48.7	COM11	COM15	COM3	2024-04-11_13h32.28.729	001-EEG_SVR_Officel	2022.2.5	144.01689013440844		5.4220000000000255	1_sub-pilot030_SVR_EEG_block3-4.protocol.csv	step37	5637	560.16	STIMULATE	48.7	48.7	48.7	48.7	48.9	37	1391.98
1395.214	0	697607	wait	20	3	0	3	0	2.0	0.0	2.0	0.0						1534.1822294000303	1541.8150512999855	1541.8150512999855	4.0	['4', 'return']	[1.7152970000170171, 2.227231499971822]	7.62	5.33	2.0	10hz	low_pain	47.7			sub-030	250	30	47.7	48.7	COM11	COM15	COM3	2024-04-11_13h32.28.729	001-EEG_SVR_Officel	2022.2.5	144.01689013440844		9.78599999999983	1_sub-pilot030_SVR_EEG_block3-4.protocol.csv	step39	5867	582.91	STIMULATE	47.7	47.6	47.7	47.7	47.8	39	1414.73
1402.834	0	701417	10hz	3	3	0	3	0	2.0	0.0	2.0	0.0						1534.1822294000303	1541.8150512999855	1541.8150512999855	4.0	['4', 'return']	[1.7152970000170171, 2.227231499971822]	7.62	5.33	2.0	10hz	low_pain	47.7			sub-030	250	30	47.7	48.7	COM11	COM15	COM3	2024-04-11_13h32.28.729	001-EEG_SVR_Officel	2022.2.5	144.01689013440844		7.620000000000118	1_sub-pilot030_SVR_EEG_block3-4.protocol.csv	step39	5867	582.91	STIMULATE	47.7	47.6	47.7	47.7	47.8	39	1414.73
1408.916	0	704458	10/Lo	2	3	0	3	0	2.0	0.0	2.0	0.0						1534.1822294000303	1541.8150512999855	1541.8150512999855	4.0	['4', 'return']	[1.7152970000170171, 2.227231499971822]	7.62	5.33	2.0	10hz	low_pain	47.7			sub-030	250	30	47.7	48.7	COM11	COM15	COM3	2024-04-11_13h32.28.729	001-EEG_SVR_Officel	2022.2.5	144.01689013440844		5.33199999999988	1_sub-pilot030_SVR_EEG_block3-4.protocol.csv	step39	5867	582.91	STIMULATE	47.7	47.6	47.7	47.7	47.8	39	1414.73
1418.084	0	709042	wait	20	3	0	3	0	3.0	0.0	3.0	0.0						1557.0525605999865	1562.9631242000032	1562.9631242000032	6.0	['6', 'return']	[1.9657720000250265, 3.341240500099957]	5.9	5.76	3.0	controle	high_pain	48.7			sub-030	250	30	47.7	48.7	COM11	COM15	COM3	2024-04-11_13h32.28.729	001-EEG_SVR_Officel	2022.2.5	144.01689013440844		9.91800000000012	1_sub-pilot030_SVR_EEG_block3-4.protocol.csv	step41	6085	604.537	STIMULATE	48.7	48.6	48.7	48.7	48.7	41	1436.357
1423.984	0	711992	CNhz	12	3	0	3	0	3.0	0.0	3.0	0.0						1557.0525605999865	1562.9631242000032	1562.9631242000032	6.0	['6', 'return']	[1.9657720000250265, 3.341240500099957]	5.9	5.76	3.0	controle	high_pain	48.7			sub-030	250	30	47.7	48.7	COM11	COM15	COM3	2024-04-11_13h32.28.729	001-EEG_SVR_Officel	2022.2.5	144.01689013440844		5.899999999999864	1_sub-pilot030_SVR_EEG_block3-4.protocol.csv	step41	6085	604.537	STIMULATE	48.7	48.6	48.7	48.7	48.7	41	1436.357
1430.494	0	715247	CN/Hi	10	3	0	3	0	3.0	0.0	3.0	0.0						1557.0525605999865	1562.9631242000032	1562.9631242000032	6.0	['6', 'return']	[1.9657720000250265, 3.341240500099957]	5.9	5.76	3.0	controle	high_pain	48.7			sub-030	250	30	47.7	48.7	COM11	COM15	COM3	2024-04-11_13h32.28.729	001-EEG_SVR_Officel	2022.2.5	144.01689013440844		5.759999999999991	1_sub-pilot030_SVR_EEG_block3-4.protocol.csv	step41	6085	604.537	STIMULATE	48.7	48.6	48.7	48.7	48.7	41	1436.357
1440.35	0	720175	wait	20	3	0	3	0	4.0	0.0	4.0	0.0						1579.3186239000645	1585.6601615999823	1585.6601615999823	3.0	['3', 'return']	[2.3573532999726012, 3.0298382999608293]	6.33	5.51	0.0	20hz	high_pain	48.7			sub-030	250	30	47.7	48.7	COM11	COM15	COM3	2024-04-11_13h32.28.729	001-EEG_SVR_Officel	2022.2.5	144.01689013440844		10.605999999999995	1_sub-pilot030_SVR_EEG_block3-4.protocol.csv	step43	6311	626.987	STIMULATE	48.7	48.7	48.7	48.7	48.7	43	1458.807
1446.68	0	723340	20hz	6	3	0	3	0	4.0	0.0	4.0	0.0						1579.3186239000645	1585.6601615999823	1585.6601615999823	3.0	['3', 'return']	[2.3573532999726012, 3.0298382999608293]	6.33	5.51	0.0	20hz	high_pain	48.7			sub-030	250	30	47.7	48.7	COM11	COM15	COM3	2024-04-11_13h32.28.729	001-EEG_SVR_Officel	2022.2.5	144.01689013440844		6.330000000000155	1_sub-pilot030_SVR_EEG_block3-4.protocol.csv	step43	6311	626.987	STIMULATE	48.7	48.7	48.7	48.7	48.7	43	1458.807
1452.942	0	726471	20/Hi	4	3	0	3	0	4.0	0.0	4.0	0.0						1579.3186239000645	1585.6601615999823	1585.6601615999823	3.0	['3', 'return']	[2.3573532999726012, 3.0298382999608293]	6.33	5.51	0.0	20hz	high_pain	48.7			sub-030	250	30	47.7	48.7	COM11	COM15	COM3	2024-04-11_13h32.28.729	001-EEG_SVR_Officel	2022.2.5	144.01689013440844		5.511999999999944	1_sub-pilot030_SVR_EEG_block3-4.protocol.csv	step43	6311	626.987	STIMULATE	48.7	48.7	48.7	48.7	48.7	43	1458.807
1462.734	0	731367	wait	20	3	0	3	0	5.0	0.0	5.0	0.0						1601.7036984000588	1608.1003407000098	1608.1003407000098	6.0	['6', 'return']	[2.654030599980615, 3.1332726000109687]	6.39	6.15	1.0	controle	high_pain	48.7			sub-030	250	30	47.7	48.7	COM11	COM15	COM3	2024-04-11_13h32.28.729	001-EEG_SVR_Officel	2022.2.5	144.01689013440844		10.541999999999916	1_sub-pilot030_SVR_EEG_block3-4.protocol.csv	step45	6544	650.075	STIMULATE	48.7	48.7	48.6	48.8	48.9	45	1481.895
1469.12	0	734560	CNhz	12	3	0	3	0	5.0	0.0	5.0	0.0						1601.7036984000588	1608.1003407000098	1608.1003407000098	6.0	['6', 'return']	[2.654030599980615, 3.1332726000109687]	6.39	6.15	1.0	controle	high_pain	48.7			sub-030	250	30	47.7	48.7	COM11	COM15	COM3	2024-04-11_13h32.28.729	001-EEG_SVR_Officel	2022.2.5	144.01689013440844		6.385999999999967	1_sub-pilot030_SVR_EEG_block3-4.protocol.csv	step45	6544	650.075	STIMULATE	48.7	48.7	48.6	48.8	48.9	45	1481.895
1476.022	0	738011	CN/Hi	10	3	0	3	0	5.0	0.0	5.0	0.0						1601.7036984000588	1608.1003407000098	1608.1003407000098	6.0	['6', 'return']	[2.654030599980615, 3.1332726000109687]	6.39	6.15	1.0	controle	high_pain	48.7			sub-030	250	30	47.7	48.7	COM11	COM15	COM3	2024-04-11_13h32.28.729	001-EEG_SVR_Officel	2022.2.5	144.01689013440844		6.152000000000044	1_sub-pilot030_SVR_EEG_block3-4.protocol.csv	step45	6544	650.075	STIMULATE	48.7	48.7	48.6	48.8	48.9	45	1481.895
1485.28	0	742640	wait	20	3	0	3	0	6.0	0.0	6.0	0.0						1624.2481055000098	1631.6448170000222	1631.6448170000222	2.0	['2', 'return']	[2.2600843999534845, 2.956932200002484]	7.39	5.37	2.0	controle	low_pain	47.7			sub-030	250	30	47.7	48.7	COM11	COM15	COM3	2024-04-11_13h32.28.729	001-EEG_SVR_Officel	2022.2.5	144.01689013440844		10.008000000000038	1_sub-pilot030_SVR_EEG_block3-4.protocol.csv	step47	6774	672.883	STIMULATE	47.7	47.6	47.7	47.7	47.7	47	1504.703
1492.664	0	746332	CNhz	12	3	0	3	0	6.0	0.0	6.0	0.0						1624.2481055000098	1631.6448170000222	1631.6448170000222	2.0	['2', 'return']	[2.2600843999534845, 2.956932200002484]	7.39	5.37	2.0	controle	low_pain	47.7			sub-030	250	30	47.7	48.7	COM11	COM15	COM3	2024-04-11_13h32.28.729	001-EEG_SVR_Officel	2022.2.5	144.01689013440844		7.3840000000000146	1_sub-pilot030_SVR_EEG_block3-4.protocol.csv	step47	6774	672.883	STIMULATE	47.7	47.6	47.7	47.7	47.7	47	1504.703
1498.788	0	749394	CN/Lo	11	3	0	3	0	6.0	0.0	6.0	0.0						1624.2481055000098	1631.6448170000222	1631.6448170000222	2.0	['2', 'return']	[2.2600843999534845, 2.956932200002484]	7.39	5.37	2.0	controle	low_pain	47.7			sub-030	250	30	47.7	48.7	COM11	COM15	COM3	2024-04-11_13h32.28.729	001-EEG_SVR_Officel	2022.2.5	144.01689013440844		5.374000000000024	1_sub-pilot030_SVR_EEG_block3-4.protocol.csv	step47	6774	672.883	STIMULATE	47.7	47.6	47.7	47.7	47.7	47	1504.703
1508.642	0	754321	wait	20	3	0	3	0	7.0	0.0	7.0	0.0						1647.611655100016	1653.6409271000884	1653.6409271000884	1.0	['1', 'return']	[2.168489499948919, 2.904890999896452]	6.02	6.08	3.0	10hz	low_pain	47.7			sub-030	250	30	47.7	48.7	COM11	COM15	COM3	2024-04-11_13h32.28.729	001-EEG_SVR_Officel	2022.2.5	144.01689013440844		10.604000000000042	1_sub-pilot030_SVR_EEG_block3-4.protocol.csv	step49	7003	695.593	STIMULATE	47.7	47.6	47.7	47.7	47.7	49	1527.413
1514.66	0	757330	10hz	3	3	0	3	0	7.0	0.0	7.0	0.0						1647.611655100016	1653.6409271000884	1653.6409271000884	1.0	['1', 'return']	[2.168489499948919, 2.904890999896452]	6.02	6.08	3.0	10hz	low_pain	47.7			sub-030	250	30	47.7	48.7	COM11	COM15	COM3	2024-04-11_13h32.28.729	001-EEG_SVR_Officel	2022.2.5	144.01689013440844		6.018000000000029	1_sub-pilot030_SVR_EEG_block3-4.protocol.csv	step49	7003	695.593	STIMULATE	47.7	47.6	47.7	47.7	47.7	49	1527.413
1521.492	0	760746	10/Lo	2	3	0	3	0	7.0	0.0	7.0	0.0						1647.611655100016	1653.6409271000884	1653.6409271000884	1.0	['1', 'return']	[2.168489499948919, 2.904890999896452]	6.02	6.08	3.0	10hz	low_pain	47.7			sub-030	250	30	47.7	48.7	COM11	COM15	COM3	2024-04-11_13h32.28.729	001-EEG_SVR_Officel	2022.2.5	144.01689013440844		6.08199999999988	1_sub-pilot030_SVR_EEG_block3-4.protocol.csv	step49	7003	695.593	STIMULATE	47.7	47.6	47.7	47.7	47.7	49	1527.413
1530.59	0	765295	wait	20	3	0	3	0	8.0	0.0	8.0	0.0						1669.5582812000066	1677.2197567000983	1677.2197567000983	5.0	['5', 'return']	[2.1968377000885084, 2.717970500001684]	7.65	5.94	0.0	controle	high_pain	48.7			sub-030	250	30	47.7	48.7	COM11	COM15	COM3	2024-04-11_13h32.28.729	001-EEG_SVR_Officel	2022.2.5	144.01689013440844		9.847999999999956	1_sub-pilot030_SVR_EEG_block3-4.protocol.csv	step51	7240	719.096	STIMULATE	48.7	48.7	48.6	48.7	48.7	51	1550.9160000000002
1538.24	0	769120	CNhz	12	3	0	3	0	8.0	0.0	8.0	0.0						1669.5582812000066	1677.2197567000983	1677.2197567000983	5.0	['5', 'return']	[2.1968377000885084, 2.717970500001684]	7.65	5.94	0.0	controle	high_pain	48.7			sub-030	250	30	47.7	48.7	COM11	COM15	COM3	2024-04-11_13h32.28.729	001-EEG_SVR_Officel	2022.2.5	144.01689013440844		7.650000000000091	1_sub-pilot030_SVR_EEG_block3-4.protocol.csv	step51	7240	719.096	STIMULATE	48.7	48.7	48.6	48.7	48.7	51	1550.9160000000002
1544.932	0	772466	CN/Hi	10	3	0	3	0	8.0	0.0	8.0	0.0						1669.5582812000066	1677.2197567000983	1677.2197567000983	5.0	['5', 'return']	[2.1968377000885084, 2.717970500001684]	7.65	5.94	0.0	controle	high_pain	48.7			sub-030	250	30	47.7	48.7	COM11	COM15	COM3	2024-04-11_13h32.28.729	001-EEG_SVR_Officel	2022.2.5	144.01689013440844		5.942000000000007	1_sub-pilot030_SVR_EEG_block3-4.protocol.csv	step51	7240	719.096	STIMULATE	48.7	48.7	48.6	48.7	48.7	51	1550.9160000000002
1553.988	0	776994	wait	20	3	0	3	0	9.0	0.0	9.0	0.0						1692.9577901000157	1700.798934800085	1700.798934800085	3.0	['3', 'return']	[2.226050499943085, 2.866113799973391]	7.83	6.34	1.0	10hz	low_pain	47.7			sub-030	250	30	47.7	48.7	COM11	COM15	COM3	2024-04-11_13h32.28.729	001-EEG_SVR_Officel	2022.2.5	144.01689013440844		9.80600000000004	1_sub-pilot030_SVR_EEG_block3-4.protocol.csv	step53	7480	742.919	STIMULATE	47.7	47.6	47.6	47.6	47.7	53	1574.739
1561.818	0	780909	10hz	3	3	0	3	0	9.0	0.0	9.0	0.0						1692.9577901000157	1700.798934800085	1700.798934800085	3.0	['3', 'return']	[2.226050499943085, 2.866113799973391]	7.83	6.34	1.0	10hz	low_pain	47.7			sub-030	250	30	47.7	48.7	COM11	COM15	COM3	2024-04-11_13h32.28.729	001-EEG_SVR_Officel	2022.2.5	144.01689013440844		7.829999999999927	1_sub-pilot030_SVR_EEG_block3-4.protocol.csv	step53	7480	742.919	STIMULATE	47.7	47.6	47.6	47.6	47.7	53	1574.739
1568.908	0	784454	10/Lo	2	3	0	3	0	9.0	0.0	9.0	0.0						1692.9577901000157	1700.798934800085	1700.798934800085	3.0	['3', 'return']	[2.226050499943085, 2.866113799973391]	7.83	6.34	1.0	10hz	low_pain	47.7			sub-030	250	30	47.7	48.7	COM11	COM15	COM3	2024-04-11_13h32.28.729	001-EEG_SVR_Officel	2022.2.5	144.01689013440844		6.339999999999918	1_sub-pilot030_SVR_EEG_block3-4.protocol.csv	step53	7480	742.919	STIMULATE	47.7	47.6	47.6	47.6	47.7	53	1574.739
1577.708	0	788854	wait	20	3	0	3	0	10.0	0.0	10.0	0.0						1716.675482999999	1722.9675583000062	1722.9675583000062	5.0	['5', 'return']	[2.0490296999923885, 2.680805300013162]	6.28	5.88	2.0	20hz	low_pain	47.7			sub-030	250	30	47.7	48.7	COM11	COM15	COM3	2024-04-11_13h32.28.729	001-EEG_SVR_Officel	2022.2.5	144.01689013440844		9.550000000000182	1_sub-pilot030_SVR_EEG_block3-4.protocol.csv	step55	7699	764.672	STIMULATE	47.7	47.6	47.6	47.6	47.8	55	1596.4920000000002
1583.986	0	791993	20hz	6	3	0	3	0	10.0	0.0	10.0	0.0						1716.675482999999	1722.9675583000062	1722.9675583000062	5.0	['5', 'return']	[2.0490296999923885, 2.680805300013162]	6.28	5.88	2.0	20hz	low_pain	47.7			sub-030	250	30	47.7	48.7	COM11	COM15	COM3	2024-04-11_13h32.28.729	001-EEG_SVR_Officel	2022.2.5	144.01689013440844		6.27800000000002	1_sub-pilot030_SVR_EEG_block3-4.protocol.csv	step55	7699	764.672	STIMULATE	47.7	47.6	47.6	47.6	47.8	55	1596.4920000000002
1590.618	0	795309	20/Lo	5	3	0	3	0	10.0	0.0	10.0	0.0						1716.675482999999	1722.9675583000062	1722.9675583000062	5.0	['5', 'return']	[2.0490296999923885, 2.680805300013162]	6.28	5.88	2.0	20hz	low_pain	47.7			sub-030	250	30	47.7	48.7	COM11	COM15	COM3	2024-04-11_13h32.28.729	001-EEG_SVR_Officel	2022.2.5	144.01689013440844		5.8819999999998345	1_sub-pilot030_SVR_EEG_block3-4.protocol.csv	step55	7699	764.672	STIMULATE	47.7	47.6	47.6	47.6	47.8	55	1596.4920000000002
1599.688	0	799844	wait	20	3	0	3	0	11.0	0.0	11.0	0.0						1738.6576977000805	1746.3391714000609	1746.3391714000609	6.0	['6', 'return']	[2.334308100049384, 2.838158500031568]	7.67	5.38	3.0	40hz	high_pain	48.7			sub-030	250	30	47.7	48.7	COM11	COM15	COM3	2024-04-11_13h32.28.729	001-EEG_SVR_Officel	2022.2.5	144.01689013440844		9.820000000000164	1_sub-pilot030_SVR_EEG_block3-4.protocol.csv	step57	7925	787.611	STIMULATE	48.7	48.7	48.7	48.7	48.7	57	1619.431
1607.358	0	803679	40hz	9	3	0	3	0	11.0	0.0	11.0	0.0						1738.6576977000805	1746.3391714000609	1746.3391714000609	6.0	['6', 'return']	[2.334308100049384, 2.838158500031568]	7.67	5.38	3.0	40hz	high_pain	48.7			sub-030	250	30	47.7	48.7	COM11	COM15	COM3	2024-04-11_13h32.28.729	001-EEG_SVR_Officel	2022.2.5	144.01689013440844		7.669999999999845	1_sub-pilot030_SVR_EEG_block3-4.protocol.csv	step57	7925	787.611	STIMULATE	48.7	48.7	48.7	48.7	48.7	57	1619.431
1613.488	0	806744	40/Hi	7	3	0	3	0	11.0	0.0	11.0	0.0						1738.6576977000805	1746.3391714000609	1746.3391714000609	6.0	['6', 'return']	[2.334308100049384, 2.838158500031568]	7.67	5.38	3.0	40hz	high_pain	48.7			sub-030	250	30	47.7	48.7	COM11	COM15	COM3	2024-04-11_13h32.28.729	001-EEG_SVR_Officel	2022.2.5	144.01689013440844		5.380000000000109	1_sub-pilot030_SVR_EEG_block3-4.protocol.csv	step57	7925	787.611	STIMULATE	48.7	48.7	48.7	48.7	48.7	57	1619.431
1623.226	0	811613	wait	20	3	0	3	0	12.0	0.0	12.0	0.0						1762.1958086000525	1769.1689427000238	1769.1689427000238	3.0	['3', 'return']	[2.2487187000224367, 2.9286306999856606]	6.96	5.28	0.0	10hz	low_pain	47.7			sub-030	250	30	47.7	48.7	COM11	COM15	COM3	2024-04-11_13h32.28.729	001-EEG_SVR_Officel	2022.2.5	144.01689013440844		10.488000000000056	1_sub-pilot030_SVR_EEG_block3-4.protocol.csv	step59	8145	810.321	STIMULATE	47.7	47.6	47.7	47.7	47.7	59	1642.141
1630.188	0	815094	10hz	3	3	0	3	0	12.0	0.0	12.0	0.0						1762.1958086000525	1769.1689427000238	1769.1689427000238	3.0	['3', 'return']	[2.2487187000224367, 2.9286306999856606]	6.96	5.28	0.0	10hz	low_pain	47.7			sub-030	250	30	47.7	48.7	COM11	COM15	COM3	2024-04-11_13h32.28.729	001-EEG_SVR_Officel	2022.2.5	144.01689013440844		6.961999999999989	1_sub-pilot030_SVR_EEG_block3-4.protocol.csv	step59	8145	810.321	STIMULATE	47.7	47.6	47.7	47.7	47.7	59	1642.141
1636.22	0	818110	10/Lo	2	3	0	3	0	12.0	0.0	12.0	0.0						1762.1958086000525	1769.1689427000238	1769.1689427000238	3.0	['3', 'return']	[2.2487187000224367, 2.9286306999856606]	6.96	5.28	0.0	10hz	low_pain	47.7			sub-030	250	30	47.7	48.7	COM11	COM15	COM3	2024-04-11_13h32.28.729	001-EEG_SVR_Officel	2022.2.5	144.01689013440844		5.281999999999925	1_sub-pilot030_SVR_EEG_block3-4.protocol.csv	step59	8145	810.321	STIMULATE	47.7	47.6	47.7	47.7	47.7	59	1642.141
1646.138	0	823069	wait	20	3	0	3	0	13.0	0.0	13.0	0.0						1785.1076131000882	1792.205876699998	1792.205876699998	3.0	['3', 'return']	[3.028597900061868, 3.644656900083646]	7.09	5.32	1.0	40hz	low_pain	47.7			sub-030	250	30	47.7	48.7	COM11	COM15	COM3	2024-04-11_13h32.28.729	001-EEG_SVR_Officel	2022.2.5	144.01689013440844		10.667999999999893	1_sub-pilot030_SVR_EEG_block3-4.protocol.csv	step61	8366	833.342	STIMULATE	47.7	47.6	47.6	47.7	47.8	61	1665.162
1653.224	0	826612	40hz	9	3	0	3	0	13.0	0.0	13.0	0.0						1785.1076131000882	1792.205876699998	1792.205876699998	3.0	['3', 'return']	[3.028597900061868, 3.644656900083646]	7.09	5.32	1.0	40hz	low_pain	47.7			sub-030	250	30	47.7	48.7	COM11	COM15	COM3	2024-04-11_13h32.28.729	001-EEG_SVR_Officel	2022.2.5	144.01689013440844		7.086000000000013	1_sub-pilot030_SVR_EEG_block3-4.protocol.csv	step61	8366	833.342	STIMULATE	47.7	47.6	47.6	47.7	47.8	61	1665.162
1659.292	0	829646	40/Lo	8	3	0	3	0	13.0	0.0	13.0	0.0						1785.1076131000882	1792.205876699998	1792.205876699998	3.0	['3', 'return']	[3.028597900061868, 3.644656900083646]	7.09	5.32	1.0	40hz	low_pain	47.7			sub-030	250	30	47.7	48.7	COM11	COM15	COM3	2024-04-11_13h32.28.729	001-EEG_SVR_Officel	2022.2.5	144.01689013440844		5.317999999999984	1_sub-pilot030_SVR_EEG_block3-4.protocol.csv	step61	8366	833.342	STIMULATE	47.7	47.6	47.6	47.7	47.8	61	1665.162
1669.898	0	834949	wait	20	3	0	3	0	14.0	0.0	14.0	0.0						1808.867452000035	1816.6254999000807	1816.6254999000807	3.0	['3', 'return']	[2.2564656999893486, 2.8092613000189885]	7.75	5.5	2.0	40hz	low_pain	47.7			sub-030	250	30	47.7	48.7	COM11	COM15	COM3	2024-04-11_13h32.28.729	001-EEG_SVR_Officel	2022.2.5	144.01689013440844		11.355999999999995	1_sub-pilot030_SVR_EEG_block3-4.protocol.csv	step63	8600	857.956	STIMULATE	47.7	47.6	47.7	47.7	47.8	63	1689.776
1677.644	0	838822	40hz	9	3	0	3	0	14.0	0.0	14.0	0.0						1808.867452000035	1816.6254999000807	1816.6254999000807	3.0	['3', 'return']	[2.2564656999893486, 2.8092613000189885]	7.75	5.5	2.0	40hz	low_pain	47.7			sub-030	250	30	47.7	48.7	COM11	COM15	COM3	2024-04-11_13h32.28.729	001-EEG_SVR_Officel	2022.2.5	144.01689013440844		7.746000000000095	1_sub-pilot030_SVR_EEG_block3-4.protocol.csv	step63	8600	857.956	STIMULATE	47.7	47.6	47.7	47.7	47.8	63	1689.776
1683.892	0	841946	40/Lo	8	3	0	3	0	14.0	0.0	14.0	0.0						1808.867452000035	1816.6254999000807	1816.6254999000807	3.0	['3', 'return']	[2.2564656999893486, 2.8092613000189885]	7.75	5.5	2.0	40hz	low_pain	47.7			sub-030	250	30	47.7	48.7	COM11	COM15	COM3	2024-04-11_13h32.28.729	001-EEG_SVR_Officel	2022.2.5	144.01689013440844		5.498000000000047	1_sub-pilot030_SVR_EEG_block3-4.protocol.csv	step63	8600	857.956	STIMULATE	47.7	47.6	47.7	47.7	47.8	63	1689.776
1693.484	0	846742	wait	20	3	0	3	0	15.0	0.0	15.0	0.0						1832.4536491000329	1838.5238420000533	1838.5238420000533	2.0	['2', 'return']	[2.109226500033401, 2.7499508999753743]	6.06	5.17	3.0	40hz	low_pain	47.7			sub-030	250	30	47.7	48.7	COM11	COM15	COM3	2024-04-11_13h32.28.729	001-EEG_SVR_Officel	2022.2.5	144.01689013440844		10.34199999999987	1_sub-pilot030_SVR_EEG_block3-4.protocol.csv	step65	8803	879.492	STIMULATE	47.7	47.6	47.7	47.7	47.7	65	1711.312
1699.542	0	849771	40hz	9	3	0	3	0	15.0	0.0	15.0	0.0						1832.4536491000329	1838.5238420000533	1838.5238420000533	2.0	['2', 'return']	[2.109226500033401, 2.7499508999753743]	6.06	5.17	3.0	40hz	low_pain	47.7			sub-030	250	30	47.7	48.7	COM11	COM15	COM3	2024-04-11_13h32.28.729	001-EEG_SVR_Officel	2022.2.5	144.01689013440844		6.057999999999993	1_sub-pilot030_SVR_EEG_block3-4.protocol.csv	step65	8803	879.492	STIMULATE	47.7	47.6	47.7	47.7	47.7	65	1711.312
1705.464	0	852732	40/Lo	8	3	0	3	0	15.0	0.0	15.0	0.0						1832.4536491000329	1838.5238420000533	1838.5238420000533	2.0	['2', 'return']	[2.109226500033401, 2.7499508999753743]	6.06	5.17	3.0	40hz	low_pain	47.7			sub-030	250	30	47.7	48.7	COM11	COM15	COM3	2024-04-11_13h32.28.729	001-EEG_SVR_Officel	2022.2.5	144.01689013440844		5.1720000000000255	1_sub-pilot030_SVR_EEG_block3-4.protocol.csv	step65	8803	879.492	STIMULATE	47.7	47.6	47.7	47.7	47.7	65	1711.312
1776.056	0	888028	wait	20	4	0	4	0	0.0	0.0	0.0	0.0				p	1.3962342999875546	1915.0254111000104	1921.325469100033	1921.325469100033	2.0	['2', 'return']	[2.11625019996427, 2.804226199979894]	6.29	6.32	0.0	20hz	low_pain	47.7			sub-030	250	30	47.7	48.7	COM11	COM15	COM3	2024-04-11_13h32.28.729	001-EEG_SVR_Officel	2022.2.5	144.01689013440844		71.3420000000001	2_sub-pilot030_SVR_EEG_block5-6.protocol.csv	step3	671	66.931	STIMULATE	47.7	47.6	47.6	47.7	47.9	3	1795.275
1782.344	0	891172	20hz	6	4	0	4	0	0.0	0.0	0.0	0.0				p	1.3962342999875546	1915.0254111000104	1921.325469100033	1921.325469100033	2.0	['2', 'return']	[2.11625019996427, 2.804226199979894]	6.29	6.32	0.0	20hz	low_pain	47.7			sub-030	250	30	47.7	48.7	COM11	COM15	COM3	2024-04-11_13h32.28.729	001-EEG_SVR_Officel	2022.2.5	144.01689013440844		6.288000000000011	2_sub-pilot030_SVR_EEG_block5-6.protocol.csv	step3	671	66.931	STIMULATE	47.7	47.6	47.6	47.7	47.9	3	1795.275
1789.412	0	894706	20/Lo	5	4	0	4	0	0.0	0.0	0.0	0.0				p	1.3962342999875546	1915.0254111000104	1921.325469100033	1921.325469100033	2.0	['2', 'return']	[2.11625019996427, 2.804226199979894]	6.29	6.32	0.0	20hz	low_pain	47.7			sub-030	250	30	47.7	48.7	COM11	COM15	COM3	2024-04-11_13h32.28.729	001-EEG_SVR_Officel	2022.2.5	144.01689013440844		6.317999999999984	2_sub-pilot030_SVR_EEG_block5-6.protocol.csv	step3	671	66.931	STIMULATE	47.7	47.6	47.6	47.7	47.9	3	1795.275
1798.176	0	899088	wait	20	4	0	4	0	1.0	0.0	1.0	0.0						1937.146778800059	1943.723975000088	1943.723975000088	7.0	['7', 'return']	[1.7746074000606313, 2.2532425000099465]	6.57	5.52	1.0	20hz	high_pain	48.7			sub-030	250	30	47.7	48.7	COM11	COM15	COM3	2024-04-11_13h32.28.729	001-EEG_SVR_Officel	2022.2.5	144.01689013440844		9.513999999999896	2_sub-pilot030_SVR_EEG_block5-6.protocol.csv	step5	889	88.526	STIMULATE	48.7	48.7	48.7	48.7	48.8	5	1816.8700000000001
1804.74	0	902370	20hz	6	4	0	4	0	1.0	0.0	1.0	0.0						1937.146778800059	1943.723975000088	1943.723975000088	7.0	['7', 'return']	[1.7746074000606313, 2.2532425000099465]	6.57	5.52	1.0	20hz	high_pain	48.7			sub-030	250	30	47.7	48.7	COM11	COM15	COM3	2024-04-11_13h32.28.729	001-EEG_SVR_Officel	2022.2.5	144.01689013440844		6.564000000000078	2_sub-pilot030_SVR_EEG_block5-6.protocol.csv	step5	889	88.526	STIMULATE	48.7	48.7	48.7	48.7	48.8	5	1816.8700000000001
1811.01	0	905505	20/Hi	4	4	0	4	0	1.0	0.0	1.0	0.0						1937.146778800059	1943.723975000088	1943.723975000088	7.0	['7', 'return']	[1.7746074000606313, 2.2532425000099465]	6.57	5.52	1.0	20hz	high_pain	48.7			sub-030	250	30	47.7	48.7	COM11	COM15	COM3	2024-04-11_13h32.28.729	001-EEG_SVR_Officel	2022.2.5	144.01689013440844		5.519999999999982	2_sub-pilot030_SVR_EEG_block5-6.protocol.csv	step5	889	88.526	STIMULATE	48.7	48.7	48.7	48.7	48.8	5	1816.8700000000001
1820.018	0	910009	wait	20	4	0	4	0	2.0	0.0	2.0	0.0						1958.989161800011	1964.6779226000651	1964.6779226000651	4.0	['4', 'return']	[1.8427481000544503, 2.4510094999568537]	5.68	5.73	2.0	40hz	low_pain	47.7			sub-030	250	30	47.7	48.7	COM11	COM15	COM3	2024-04-11_13h32.28.729	001-EEG_SVR_Officel	2022.2.5	144.01689013440844		9.758000000000038	2_sub-pilot030_SVR_EEG_block5-6.protocol.csv	step7	1102	109.623	STIMULATE	47.7	47.6	47.7	47.7	47.8	7	1837.967
1825.696	0	912848	40hz	9	4	0	4	0	2.0	0.0	2.0	0.0						1958.989161800011	1964.6779226000651	1964.6779226000651	4.0	['4', 'return']	[1.8427481000544503, 2.4510094999568537]	5.68	5.73	2.0	40hz	low_pain	47.7			sub-030	250	30	47.7	48.7	COM11	COM15	COM3	2024-04-11_13h32.28.729	001-EEG_SVR_Officel	2022.2.5	144.01689013440844		5.677999999999884	2_sub-pilot030_SVR_EEG_block5-6.protocol.csv	step7	1102	109.623	STIMULATE	47.7	47.6	47.7	47.7	47.8	7	1837.967
1832.18	0	916090	40/Lo	8	4	0	4	0	2.0	0.0	2.0	0.0						1958.989161800011	1964.6779226000651	1964.6779226000651	4.0	['4', 'return']	[1.8427481000544503, 2.4510094999568537]	5.68	5.73	2.0	40hz	low_pain	47.7			sub-030	250	30	47.7	48.7	COM11	COM15	COM3	2024-04-11_13h32.28.729	001-EEG_SVR_Officel	2022.2.5	144.01689013440844		5.734000000000151	2_sub-pilot030_SVR_EEG_block5-6.protocol.csv	step7	1102	109.623	STIMULATE	47.7	47.6	47.7	47.7	47.8	7	1837.967
1841.168	0	920584	wait	20	4	0	4	0	3.0	0.0	3.0	0.0						1980.1376488000387	1986.763803499984	1986.763803499984	6.0	['6', 'return']	[1.7032186000142246, 2.286373100010678]	6.62	5.31	3.0	10hz	high_pain	48.7			sub-030	250	30	47.7	48.7	COM11	COM15	COM3	2024-04-11_13h32.28.729	001-EEG_SVR_Officel	2022.2.5	144.01689013440844		9.737999999999829	2_sub-pilot030_SVR_EEG_block5-6.protocol.csv	step9	1321	131.36	STIMULATE	48.7	48.7	48.6	48.6	48.7	9	1859.704
1847.78	0	923890	10hz	3	4	0	4	0	3.0	0.0	3.0	0.0						1980.1376488000387	1986.763803499984	1986.763803499984	6.0	['6', 'return']	[1.7032186000142246, 2.286373100010678]	6.62	5.31	3.0	10hz	high_pain	48.7			sub-030	250	30	47.7	48.7	COM11	COM15	COM3	2024-04-11_13h32.28.729	001-EEG_SVR_Officel	2022.2.5	144.01689013440844		6.61200000000008	2_sub-pilot030_SVR_EEG_block5-6.protocol.csv	step9	1321	131.36	STIMULATE	48.7	48.7	48.6	48.6	48.7	9	1859.704
1853.842	0	926921	10/Hi	1	4	0	4	0	3.0	0.0	3.0	0.0						1980.1376488000387	1986.763803499984	1986.763803499984	6.0	['6', 'return']	[1.7032186000142246, 2.286373100010678]	6.62	5.31	3.0	10hz	high_pain	48.7			sub-030	250	30	47.7	48.7	COM11	COM15	COM3	2024-04-11_13h32.28.729	001-EEG_SVR_Officel	2022.2.5	144.01689013440844		5.3120000000001255	2_sub-pilot030_SVR_EEG_block5-6.protocol.csv	step9	1321	131.36	STIMULATE	48.7	48.7	48.6	48.6	48.7	9	1859.704
1863.1	0	931550	wait	20	4	0	4	0	4.0	0.0	4.0	0.0						2002.0713114000391	2009.0928563000637	2009.0928563000637	2.0	['2', 'return']	[1.5968427000334486, 2.2774313000263646]	7.01	5.64	0.0	10hz	low_pain	47.7			sub-030	250	30	47.7	48.7	COM11	COM15	COM3	2024-04-11_13h32.28.729	001-EEG_SVR_Officel	2022.2.5	144.01689013440844		10.00799999999981	2_sub-pilot030_SVR_EEG_block5-6.protocol.csv	step11	1550	154.07	STIMULATE	47.7	47.6	47.6	47.6	47.8	11	1882.414
1870.11	0	935055	10hz	3	4	0	4	0	4.0	0.0	4.0	0.0						2002.0713114000391	2009.0928563000637	2009.0928563000637	2.0	['2', 'return']	[1.5968427000334486, 2.2774313000263646]	7.01	5.64	0.0	10hz	low_pain	47.7			sub-030	250	30	47.7	48.7	COM11	COM15	COM3	2024-04-11_13h32.28.729	001-EEG_SVR_Officel	2022.2.5	144.01689013440844		7.009999999999991	2_sub-pilot030_SVR_EEG_block5-6.protocol.csv	step11	1550	154.07	STIMULATE	47.7	47.6	47.6	47.6	47.8	11	1882.414
1876.504	0	938252	10/Lo	2	4	0	4	0	4.0	0.0	4.0	0.0						2002.0713114000391	2009.0928563000637	2009.0928563000637	2.0	['2', 'return']	[1.5968427000334486, 2.2774313000263646]	7.01	5.64	0.0	10hz	low_pain	47.7			sub-030	250	30	47.7	48.7	COM11	COM15	COM3	2024-04-11_13h32.28.729	001-EEG_SVR_Officel	2022.2.5	144.01689013440844		5.6440000000000055	2_sub-pilot030_SVR_EEG_block5-6.protocol.csv	step11	1550	154.07	STIMULATE	47.7	47.6	47.6	47.6	47.8	11	1882.414
1885.408	0	942704	wait	20	4	0	4	0	5.0	0.0	5.0	0.0						2024.379409300047	2029.678720000084	2029.678720000084	6.0	['6', 'return']	[1.3787561000790447, 1.9466230000834912]	5.29	6.25	1.0	40hz	high_pain	48.7			sub-030	250	30	47.7	48.7	COM11	COM15	COM3	2024-04-11_13h32.28.729	001-EEG_SVR_Officel	2022.2.5	144.01689013440844		9.653999999999996	2_sub-pilot030_SVR_EEG_block5-6.protocol.csv	step13	1764	175.221	STIMULATE	48.7	48.7	48.7	48.7	48.8	13	1903.565
1890.696	0	945348	40hz	9	4	0	4	0	5.0	0.0	5.0	0.0						2024.379409300047	2029.678720000084	2029.678720000084	6.0	['6', 'return']	[1.3787561000790447, 1.9466230000834912]	5.29	6.25	1.0	40hz	high_pain	48.7			sub-030	250	30	47.7	48.7	COM11	COM15	COM3	2024-04-11_13h32.28.729	001-EEG_SVR_Officel	2022.2.5	144.01689013440844		5.288000000000011	2_sub-pilot030_SVR_EEG_block5-6.protocol.csv	step13	1764	175.221	STIMULATE	48.7	48.7	48.7	48.7	48.8	13	1903.565
1897.696	0	948848	40/Hi	7	4	0	4	0	5.0	0.0	5.0	0.0						2024.379409300047	2029.678720000084	2029.678720000084	6.0	['6', 'return']	[1.3787561000790447, 1.9466230000834912]	5.29	6.25	1.0	40hz	high_pain	48.7			sub-030	250	30	47.7	48.7	COM11	COM15	COM3	2024-04-11_13h32.28.729	001-EEG_SVR_Officel	2022.2.5	144.01689013440844		6.25	2_sub-pilot030_SVR_EEG_block5-6.protocol.csv	step13	1764	175.221	STIMULATE	48.7	48.7	48.7	48.7	48.8	13	1903.565
1905.676	0	952838	wait	20	4	0	4	0	6.0	0.0	6.0	0.0						2044.6463803000515	2049.736622099997	2049.736622099997	3.0	['3', 'return']	[1.7685654000379145, 2.6804576000431553]	5.08	5.86	2.0	controle	low_pain	47.7			sub-030	250	30	47.7	48.7	COM11	COM15	COM3	2024-04-11_13h32.28.729	001-EEG_SVR_Officel	2022.2.5	144.01689013440844		8.730000000000018	2_sub-pilot030_SVR_EEG_block5-6.protocol.csv	step15	1962	194.816	STIMULATE	47.7	47.6	47.6	47.7	47.7	15	1923.16
1910.754	0	955377	CNhz	12	4	0	4	0	6.0	0.0	6.0	0.0						2044.6463803000515	2049.736622099997	2049.736622099997	3.0	['3', 'return']	[1.7685654000379145, 2.6804576000431553]	5.08	5.86	2.0	controle	low_pain	47.7			sub-030	250	30	47.7	48.7	COM11	COM15	COM3	2024-04-11_13h32.28.729	001-EEG_SVR_Officel	2022.2.5	144.01689013440844		5.0779999999999745	2_sub-pilot030_SVR_EEG_block5-6.protocol.csv	step15	1962	194.816	STIMULATE	47.7	47.6	47.6	47.7	47.7	15	1923.16
1917.364	0	958682	CN/Lo	11	4	0	4	0	6.0	0.0	6.0	0.0						2044.6463803000515	2049.736622099997	2049.736622099997	3.0	['3', 'return']	[1.7685654000379145, 2.6804576000431553]	5.08	5.86	2.0	controle	low_pain	47.7			sub-030	250	30	47.7	48.7	COM11	COM15	COM3	2024-04-11_13h32.28.729	001-EEG_SVR_Officel	2022.2.5	144.01689013440844		5.860000000000127	2_sub-pilot030_SVR_EEG_block5-6.protocol.csv	step15	1962	194.816	STIMULATE	47.7	47.6	47.6	47.7	47.7	15	1923.16
1926.462	0	963231	wait	20	4	0	4	0	7.0	0.0	7.0	0.0						2065.4329923000187	2071.940873500076	2071.940873500076	1.0	['1', 'return']	[1.692185700056143, 2.7963602000381798]	6.5	5.42	3.0	10hz	low_pain	47.7			sub-030	250	30	47.7	48.7	COM11	COM15	COM3	2024-04-11_13h32.28.729	001-EEG_SVR_Officel	2022.2.5	144.01689013440844		9.847999999999956	2_sub-pilot030_SVR_EEG_block5-6.protocol.csv	step17	2182	216.677	STIMULATE	47.7	47.6	47.6	47.7	47.7	17	1945.021
1932.958	0	966479	10hz	3	4	0	4	0	7.0	0.0	7.0	0.0						2065.4329923000187	2071.940873500076	2071.940873500076	1.0	['1', 'return']	[1.692185700056143, 2.7963602000381798]	6.5	5.42	3.0	10hz	low_pain	47.7			sub-030	250	30	47.7	48.7	COM11	COM15	COM3	2024-04-11_13h32.28.729	001-EEG_SVR_Officel	2022.2.5	144.01689013440844		6.496000000000095	2_sub-pilot030_SVR_EEG_block5-6.protocol.csv	step17	2182	216.677	STIMULATE	47.7	47.6	47.6	47.7	47.7	17	1945.021
1939.13	0	969565	10/Lo	2	4	0	4	0	7.0	0.0	7.0	0.0						2065.4329923000187	2071.940873500076	2071.940873500076	1.0	['1', 'return']	[1.692185700056143, 2.7963602000381798]	6.5	5.42	3.0	10hz	low_pain	47.7			sub-030	250	30	47.7	48.7	COM11	COM15	COM3	2024-04-11_13h32.28.729	001-EEG_SVR_Officel	2022.2.5	144.01689013440844		5.4220000000000255	2_sub-pilot030_SVR_EEG_block5-6.protocol.csv	step17	2182	216.677	STIMULATE	47.7	47.6	47.6	47.7	47.7	17	1945.021
1948.784	0	974392	wait	20	4	0	4	0	8.0	0.0	8.0	0.0						2087.755108400015	2094.0475469999947	2094.0475469999947	3.0	['3', 'return']	[1.8815043999347836, 2.6578190999571234]	6.28	5.87	0.0	40hz	low_pain	47.7			sub-030	250	30	47.7	48.7	COM11	COM15	COM3	2024-04-11_13h32.28.729	001-EEG_SVR_Officel	2022.2.5	144.01689013440844		10.403999999999996	2_sub-pilot030_SVR_EEG_block5-6.protocol.csv	step19	2410	239.216	STIMULATE	47.7	47.6	47.7	47.6	47.7	19	1967.56
1955.064	0	977532	40hz	9	4	0	4	0	8.0	0.0	8.0	0.0						2087.755108400015	2094.0475469999947	2094.0475469999947	3.0	['3', 'return']	[1.8815043999347836, 2.6578190999571234]	6.28	5.87	0.0	40hz	low_pain	47.7			sub-030	250	30	47.7	48.7	COM11	COM15	COM3	2024-04-11_13h32.28.729	001-EEG_SVR_Officel	2022.2.5	144.01689013440844		6.279999999999973	2_sub-pilot030_SVR_EEG_block5-6.protocol.csv	step19	2410	239.216	STIMULATE	47.7	47.6	47.7	47.6	47.7	19	1967.56
