onset	duration	sample	trial_type	value	block.thisRepN	block.thisTrialN	block.thisN	block.thisIndex	reps.thisRepN	reps.thisTrialN	reps.thisN	reps.thisIndex	afrec_start	rec_start	rec_start_egi	key_resp.keys	key_resp.rt	wait_time_text.started	wait_time_text.stopped	therm_loca_text.started	subResponse	keyResp.keys	keyResp.rt	ITI_wait	wait_trigger	loca_thermode	Hz_condition	temp_condition	temp_valeur	text.started	text.stopped	participant	brightness	num_part	low	high	com_svr	com_thermode	com_eeg	date	expName	psychopyVersion	frameRate	Unnamed: 39	distance_from_previous	file	step	index	time	type	temp1	temp2	temp3	temp4	temp5	step_num	time_sync
14.834	0	7417	wait	20	0	0	0	0	0.0	0.0	0.0	0.0	182.1552299	181.95343079999972	1699369427.9977117	p	14.60220440000012	196.78859909999983	203.4489939	203.4489939	8.0	['8', 'return']	[3.56683940000039, 4.382778200000757]	6.65	6.16	0.0	40hz	high_pain	45.5			sub-pilot015	250	15	43	45.5	COM11	COM7	COM3	2023-11-07_10h01.32.116	001-EEG_SVR_Officel	2022.2.5	143.9806029326614		14.834	0_sub-pilot015_SVR_EEG_block1-2.protocol.csv	step3	1209	120.711	STIMULATE	45.6	45.4	45.4	45.4	45.5	3	34.19499999999999
21.482	0	10741	40hz	9	0	0	0	0	0.0	0.0	0.0	0.0	182.1552299	181.95343079999972	1699369427.9977117	p	14.60220440000012	196.78859909999983	203.4489939	203.4489939	8.0	['8', 'return']	[3.56683940000039, 4.382778200000757]	6.65	6.16	0.0	40hz	high_pain	45.5			sub-pilot015	250	15	43	45.5	COM11	COM7	COM3	2023-11-07_10h01.32.116	001-EEG_SVR_Officel	2022.2.5	143.9806029326614		6.648	0_sub-pilot015_SVR_EEG_block1-2.protocol.csv	step3	1209	120.711	STIMULATE	45.6	45.4	45.4	45.4	45.5	3	34.19499999999999
28.39	0	14195	40/Hi	7	0	0	0	0	0.0	0.0	0.0	0.0	182.1552299	181.95343079999972	1699369427.9977117	p	14.60220440000012	196.78859909999983	203.4489939	203.4489939	8.0	['8', 'return']	[3.56683940000039, 4.382778200000757]	6.65	6.16	0.0	40hz	high_pain	45.5			sub-pilot015	250	15	43	45.5	COM11	COM7	COM3	2023-11-07_10h01.32.116	001-EEG_SVR_Officel	2022.2.5	143.9806029326614		6.158000000000001	0_sub-pilot015_SVR_EEG_block1-2.protocol.csv	step3	1209	120.711	STIMULATE	45.6	45.4	45.4	45.4	45.5	3	34.19499999999999
38.894	0	19447	wait	20	0	0	0	0	1.0	0.0	1.0	0.0						220.84723410000012	225.85510490000024	225.85510490000024	7.0	['7', 'return']	[5.183195000000524, 5.719173600000431]	5.0	5.33	1.0	20hz	high_pain	45.5			sub-pilot015	250	15	43	45.5	COM11	COM7	COM3	2023-11-07_10h01.32.116	001-EEG_SVR_Officel	2022.2.5	143.9806029326614		11.253999999999998	0_sub-pilot015_SVR_EEG_block1-2.protocol.csv	step5	1427	142.331	STIMULATE	45.7	45.4	45.4	45.4	45.7	5	55.81499999999998
43.888	0	21944	20hz	6	0	0	0	0	1.0	0.0	1.0	0.0						220.84723410000012	225.85510490000024	225.85510490000024	7.0	['7', 'return']	[5.183195000000524, 5.719173600000431]	5.0	5.33	1.0	20hz	high_pain	45.5			sub-pilot015	250	15	43	45.5	COM11	COM7	COM3	2023-11-07_10h01.32.116	001-EEG_SVR_Officel	2022.2.5	143.9806029326614		4.994	0_sub-pilot015_SVR_EEG_block1-2.protocol.csv	step5	1427	142.331	STIMULATE	45.7	45.4	45.4	45.4	45.7	5	55.81499999999998
49.97	0	24985	20/Hi	4	0	0	0	0	1.0	0.0	1.0	0.0						220.84723410000012	225.85510490000024	225.85510490000024	7.0	['7', 'return']	[5.183195000000524, 5.719173600000431]	5.0	5.33	1.0	20hz	high_pain	45.5			sub-pilot015	250	15	43	45.5	COM11	COM7	COM3	2023-11-07_10h01.32.116	001-EEG_SVR_Officel	2022.2.5	143.9806029326614		5.332000000000001	0_sub-pilot015_SVR_EEG_block1-2.protocol.csv	step5	1427	142.331	STIMULATE	45.7	45.4	45.4	45.4	45.7	5	55.81499999999998
62.638	0	31319	wait	20	0	0	0	0	2.0	0.0	2.0	0.0						244.59312330000057	250.3642702000002	250.3642702000002	6.0	['6', 'return']	[6.634955999999875, 7.387435800000276]	5.76	5.64	2.0	20hz	low_pain	43.0			sub-pilot015	250	15	43	45.5	COM11	COM7	COM3	2023-11-07_10h01.32.116	001-EEG_SVR_Officel	2022.2.5	143.9806029326614		13.418	0_sub-pilot015_SVR_EEG_block1-2.protocol.csv	step7	1677	167.109	STIMULATE	43.2	42.9	42.9	42.9	43.2	7	80.593
68.396	0	34198	20hz	6	0	0	0	0	2.0	0.0	2.0	0.0						244.59312330000057	250.3642702000002	250.3642702000002	6.0	['6', 'return']	[6.634955999999875, 7.387435800000276]	5.76	5.64	2.0	20hz	low_pain	43.0			sub-pilot015	250	15	43	45.5	COM11	COM7	COM3	2023-11-07_10h01.32.116	001-EEG_SVR_Officel	2022.2.5	143.9806029326614		5.758000000000003	0_sub-pilot015_SVR_EEG_block1-2.protocol.csv	step7	1677	167.109	STIMULATE	43.2	42.9	42.9	42.9	43.2	7	80.593
74.784	0	37392	20/Lo	5	0	0	0	0	2.0	0.0	2.0	0.0						244.59312330000057	250.3642702000002	250.3642702000002	6.0	['6', 'return']	[6.634955999999875, 7.387435800000276]	5.76	5.64	2.0	20hz	low_pain	43.0			sub-pilot015	250	15	43	45.5	COM11	COM7	COM3	2023-11-07_10h01.32.116	001-EEG_SVR_Officel	2022.2.5	143.9806029326614		5.638000000000005	0_sub-pilot015_SVR_EEG_block1-2.protocol.csv	step7	1677	167.109	STIMULATE	43.2	42.9	42.9	42.9	43.2	7	80.593
88.814	0	44407	wait	20	0	0	0	0	3.0	0.0	3.0	0.0						270.76930589999984	278.1453615000005	278.1453615000005	5.0	['5', 'return']	[10.189505399999689, 11.349393499999678]	7.37	6.15	3.0	controle	low_pain	43.0			sub-pilot015	250	15	43	45.5	COM11	COM7	COM3	2023-11-07_10h01.32.116	001-EEG_SVR_Officel	2022.2.5	143.9806029326614		14.779999999999987	0_sub-pilot015_SVR_EEG_block1-2.protocol.csv	step9	1962	195.436	STIMULATE	43.0	42.9	42.9	42.9	43.1	9	108.92
96.178	0	48089	CNhz	12	0	0	0	0	3.0	0.0	3.0	0.0						270.76930589999984	278.1453615000005	278.1453615000005	5.0	['5', 'return']	[10.189505399999689, 11.349393499999678]	7.37	6.15	3.0	controle	low_pain	43.0			sub-pilot015	250	15	43	45.5	COM11	COM7	COM3	2023-11-07_10h01.32.116	001-EEG_SVR_Officel	2022.2.5	143.9806029326614		7.364000000000004	0_sub-pilot015_SVR_EEG_block1-2.protocol.csv	step9	1962	195.436	STIMULATE	43.0	42.9	42.9	42.9	43.1	9	108.92
103.08	0	51540	CN/Lo	11	0	0	0	0	3.0	0.0	3.0	0.0						270.76930589999984	278.1453615000005	278.1453615000005	5.0	['5', 'return']	[10.189505399999689, 11.349393499999678]	7.37	6.15	3.0	controle	low_pain	43.0			sub-pilot015	250	15	43	45.5	COM11	COM7	COM3	2023-11-07_10h01.32.116	001-EEG_SVR_Officel	2022.2.5	143.9806029326614		6.152000000000001	0_sub-pilot015_SVR_EEG_block1-2.protocol.csv	step9	1962	195.436	STIMULATE	43.0	42.9	42.9	42.9	43.1	9	108.92
120.554	0	60277	wait	20	0	0	0	0	4.0	0.0	4.0	0.0						302.50940130000026	309.5381718000003	309.5381718000003	7.0	['7', 'return']	[2.637815299999602, 3.0762173000002804]	7.02	5.38	0.0	10hz	high_pain	45.5			sub-pilot015	250	15	43	45.5	COM11	COM7	COM3	2023-11-07_10h01.32.116	001-EEG_SVR_Officel	2022.2.5	143.9806029326614		18.224000000000004	0_sub-pilot015_SVR_EEG_block1-2.protocol.csv	step11	2270	226.064	STIMULATE	45.7	45.4	45.4	45.5	45.7	11	139.548
127.57	0	63785	10hz	3	0	0	0	0	4.0	0.0	4.0	0.0						302.50940130000026	309.5381718000003	309.5381718000003	7.0	['7', 'return']	[2.637815299999602, 3.0762173000002804]	7.02	5.38	0.0	10hz	high_pain	45.5			sub-pilot015	250	15	43	45.5	COM11	COM7	COM3	2023-11-07_10h01.32.116	001-EEG_SVR_Officel	2022.2.5	143.9806029326614		7.015999999999991	0_sub-pilot015_SVR_EEG_block1-2.protocol.csv	step11	2270	226.064	STIMULATE	45.7	45.4	45.4	45.5	45.7	11	139.548
133.702	0	66851	10/Hi	1	0	0	0	0	4.0	0.0	4.0	0.0						302.50940130000026	309.5381718000003	309.5381718000003	7.0	['7', 'return']	[2.637815299999602, 3.0762173000002804]	7.02	5.38	0.0	10hz	high_pain	45.5			sub-pilot015	250	15	43	45.5	COM11	COM7	COM3	2023-11-07_10h01.32.116	001-EEG_SVR_Officel	2022.2.5	143.9806029326614		5.382000000000005	0_sub-pilot015_SVR_EEG_block1-2.protocol.csv	step11	2270	226.064	STIMULATE	45.7	45.4	45.4	45.5	45.7	11	139.548
143.674	0	71837	wait	20	0	0	0	0	5.0	0.0	5.0	0.0						325.63044200000013	332.3465987000004	332.3465987000004	8.0	['8', 'return']	[2.700724600000285, 3.1425146000001405]	6.71	6.31	1.0	10hz	high_pain	45.5			sub-pilot015	250	15	43	45.5	COM11	COM7	COM3	2023-11-07_10h01.32.116	001-EEG_SVR_Officel	2022.2.5	143.9806029326614		10.722000000000008	0_sub-pilot015_SVR_EEG_block1-2.protocol.csv	step13	2510	249.815	STIMULATE	45.7	45.4	45.4	45.5	45.7	13	163.29899999999998
150.378	0	75189	10hz	3	0	0	0	0	5.0	0.0	5.0	0.0						325.63044200000013	332.3465987000004	332.3465987000004	8.0	['8', 'return']	[2.700724600000285, 3.1425146000001405]	6.71	6.31	1.0	10hz	high_pain	45.5			sub-pilot015	250	15	43	45.5	COM11	COM7	COM3	2023-11-07_10h01.32.116	001-EEG_SVR_Officel	2022.2.5	143.9806029326614		6.703999999999979	0_sub-pilot015_SVR_EEG_block1-2.protocol.csv	step13	2510	249.815	STIMULATE	45.7	45.4	45.4	45.5	45.7	13	163.29899999999998
157.44	0	78720	10/Hi	1	0	0	0	0	5.0	0.0	5.0	0.0						325.63044200000013	332.3465987000004	332.3465987000004	8.0	['8', 'return']	[2.700724600000285, 3.1425146000001405]	6.71	6.31	1.0	10hz	high_pain	45.5			sub-pilot015	250	15	43	45.5	COM11	COM7	COM3	2023-11-07_10h01.32.116	001-EEG_SVR_Officel	2022.2.5	143.9806029326614		6.312000000000012	0_sub-pilot015_SVR_EEG_block1-2.protocol.csv	step13	2510	249.815	STIMULATE	45.7	45.4	45.4	45.5	45.7	13	163.29899999999998
166.546	0	83273	wait	20	0	0	0	0	6.0	0.0	6.0	0.0						348.50055590000056	355.5367861999998	355.5367861999998	5.0	['5', 'return']	[2.3740226999998413, 2.9824311000002126]	7.03	5.49	2.0	40hz	low_pain	43.0			sub-pilot015	250	15	43	45.5	COM11	COM7	COM3	2023-11-07_10h01.32.116	001-EEG_SVR_Officel	2022.2.5	143.9806029326614		9.855999999999995	0_sub-pilot015_SVR_EEG_block1-2.protocol.csv	step15	2736	272.215	STIMULATE	43.1	42.9	42.9	42.9	43.1	15	185.69899999999996
173.57	0	86785	40hz	9	0	0	0	0	6.0	0.0	6.0	0.0						348.50055590000056	355.5367861999998	355.5367861999998	5.0	['5', 'return']	[2.3740226999998413, 2.9824311000002126]	7.03	5.49	2.0	40hz	low_pain	43.0			sub-pilot015	250	15	43	45.5	COM11	COM7	COM3	2023-11-07_10h01.32.116	001-EEG_SVR_Officel	2022.2.5	143.9806029326614		7.024000000000001	0_sub-pilot015_SVR_EEG_block1-2.protocol.csv	step15	2736	272.215	STIMULATE	43.1	42.9	42.9	42.9	43.1	15	185.69899999999996
179.812	0	89906	40/Lo	8	0	0	0	0	6.0	0.0	6.0	0.0						348.50055590000056	355.5367861999998	355.5367861999998	5.0	['5', 'return']	[2.3740226999998413, 2.9824311000002126]	7.03	5.49	2.0	40hz	low_pain	43.0			sub-pilot015	250	15	43	45.5	COM11	COM7	COM3	2023-11-07_10h01.32.116	001-EEG_SVR_Officel	2022.2.5	143.9806029326614		5.492000000000019	0_sub-pilot015_SVR_EEG_block1-2.protocol.csv	step15	2736	272.215	STIMULATE	43.1	42.9	42.9	42.9	43.1	15	185.69899999999996
189.584	0	94792	wait	20	0	0	0	0	7.0	0.0	7.0	0.0						371.53860870000017	376.8448005000005	376.8448005000005	6.0	['6', 'return']	[3.194260299999769, 3.825380199999927]	5.3	5.96	3.0	40hz	low_pain	43.0			sub-pilot015	250	15	43	45.5	COM11	COM7	COM3	2023-11-07_10h01.32.116	001-EEG_SVR_Officel	2022.2.5	143.9806029326614		10.521999999999991	0_sub-pilot015_SVR_EEG_block1-2.protocol.csv	step17	2955	293.929	STIMULATE	42.9	42.9	42.9	42.9	43.0	17	207.41299999999995
194.878	0	97439	40hz	9	0	0	0	0	7.0	0.0	7.0	0.0						371.53860870000017	376.8448005000005	376.8448005000005	6.0	['6', 'return']	[3.194260299999769, 3.825380199999927]	5.3	5.96	3.0	40hz	low_pain	43.0			sub-pilot015	250	15	43	45.5	COM11	COM7	COM3	2023-11-07_10h01.32.116	001-EEG_SVR_Officel	2022.2.5	143.9806029326614		5.293999999999983	0_sub-pilot015_SVR_EEG_block1-2.protocol.csv	step17	2955	293.929	STIMULATE	42.9	42.9	42.9	42.9	43.0	17	207.41299999999995
201.59	0	100795	40/Lo	8	0	0	0	0	7.0	0.0	7.0	0.0						371.53860870000017	376.8448005000005	376.8448005000005	6.0	['6', 'return']	[3.194260299999769, 3.825380199999927]	5.3	5.96	3.0	40hz	low_pain	43.0			sub-pilot015	250	15	43	45.5	COM11	COM7	COM3	2023-11-07_10h01.32.116	001-EEG_SVR_Officel	2022.2.5	143.9806029326614		5.9620000000000175	0_sub-pilot015_SVR_EEG_block1-2.protocol.csv	step17	2955	293.929	STIMULATE	42.9	42.9	42.9	42.9	43.0	17	207.41299999999995
211.73	0	105865	wait	20	0	0	0	0	8.0	0.0	8.0	0.0						393.68725719999975	399.98651800000016	399.98651800000016	6.0	['6', 'return']	[5.34858179999992, 5.949092000000746]	6.29	5.77	0.0	10hz	low_pain	43.0			sub-pilot015	250	15	43	45.5	COM11	COM7	COM3	2023-11-07_10h01.32.116	001-EEG_SVR_Officel	2022.2.5	143.9806029326614		10.889999999999986	0_sub-pilot015_SVR_EEG_block1-2.protocol.csv	step19	3186	316.893	STIMULATE	43.2	42.9	42.9	42.9	43.1	19	230.37699999999995
218.018	0	109009	10hz	3	0	0	0	0	8.0	0.0	8.0	0.0						393.68725719999975	399.98651800000016	399.98651800000016	6.0	['6', 'return']	[5.34858179999992, 5.949092000000746]	6.29	5.77	0.0	10hz	low_pain	43.0			sub-pilot015	250	15	43	45.5	COM11	COM7	COM3	2023-11-07_10h01.32.116	001-EEG_SVR_Officel	2022.2.5	143.9806029326614		6.288000000000011	0_sub-pilot015_SVR_EEG_block1-2.protocol.csv	step19	3186	316.893	STIMULATE	43.2	42.9	42.9	42.9	43.1	19	230.37699999999995
224.538	0	112269	10/Lo	2	0	0	0	0	8.0	0.0	8.0	0.0						393.68725719999975	399.98651800000016	399.98651800000016	6.0	['6', 'return']	[5.34858179999992, 5.949092000000746]	6.29	5.77	0.0	10hz	low_pain	43.0			sub-pilot015	250	15	43	45.5	COM11	COM7	COM3	2023-11-07_10h01.32.116	001-EEG_SVR_Officel	2022.2.5	143.9806029326614		5.77000000000001	0_sub-pilot015_SVR_EEG_block1-2.protocol.csv	step19	3186	316.893	STIMULATE	43.2	42.9	42.9	42.9	43.1	19	230.37699999999995
236.998	0	118499	wait	20	0	0	0	0	9.0	0.0	9.0	0.0						418.9540154000001	425.9618569999998	425.9618569999998	6.0	['6', 'return']	[6.886234399999921, 7.564882600000601]	7.0	6.19	1.0	controle	high_pain	45.5			sub-pilot015	250	15	43	45.5	COM11	COM7	COM3	2023-11-07_10h01.32.116	001-EEG_SVR_Officel	2022.2.5	143.9806029326614		13.20999999999998	0_sub-pilot015_SVR_EEG_block1-2.protocol.csv	step21	3453	343.365	STIMULATE	45.7	45.4	45.4	45.5	45.7	21	256.849
243.994	0	121997	CNhz	12	0	0	0	0	9.0	0.0	9.0	0.0						418.9540154000001	425.9618569999998	425.9618569999998	6.0	['6', 'return']	[6.886234399999921, 7.564882600000601]	7.0	6.19	1.0	controle	high_pain	45.5			sub-pilot015	250	15	43	45.5	COM11	COM7	COM3	2023-11-07_10h01.32.116	001-EEG_SVR_Officel	2022.2.5	143.9806029326614		6.996000000000009	0_sub-pilot015_SVR_EEG_block1-2.protocol.csv	step21	3453	343.365	STIMULATE	45.7	45.4	45.4	45.5	45.7	21	256.849
250.938	0	125469	CN/Hi	10	0	0	0	0	9.0	0.0	9.0	0.0						418.9540154000001	425.9618569999998	425.9618569999998	6.0	['6', 'return']	[6.886234399999921, 7.564882600000601]	7.0	6.19	1.0	controle	high_pain	45.5			sub-pilot015	250	15	43	45.5	COM11	COM7	COM3	2023-11-07_10h01.32.116	001-EEG_SVR_Officel	2022.2.5	143.9806029326614		6.193999999999988	0_sub-pilot015_SVR_EEG_block1-2.protocol.csv	step21	3453	343.365	STIMULATE	45.7	45.4	45.4	45.5	45.7	21	256.849
264.592	0	132296	wait	20	0	0	0	0	10.0	0.0	10.0	0.0						446.5477210000004	453.5694242000004	453.5694242000004	8.0	['8', 'return']	[5.252416899999844, 5.901336199999605]	7.01	5.82	2.0	controle	high_pain	45.5			sub-pilot015	250	15	43	45.5	COM11	COM7	COM3	2023-11-07_10h01.32.116	001-EEG_SVR_Officel	2022.2.5	143.9806029326614		14.403999999999996	0_sub-pilot015_SVR_EEG_block1-2.protocol.csv	step23	3727	370.551	STIMULATE	45.7	45.5	45.4	45.5	45.7	23	284.03499999999997
271.602	0	135801	CNhz	12	0	0	0	0	10.0	0.0	10.0	0.0						446.5477210000004	453.5694242000004	453.5694242000004	8.0	['8', 'return']	[5.252416899999844, 5.901336199999605]	7.01	5.82	2.0	controle	high_pain	45.5			sub-pilot015	250	15	43	45.5	COM11	COM7	COM3	2023-11-07_10h01.32.116	001-EEG_SVR_Officel	2022.2.5	143.9806029326614		7.009999999999991	0_sub-pilot015_SVR_EEG_block1-2.protocol.csv	step23	3727	370.551	STIMULATE	45.7	45.5	45.4	45.5	45.7	23	284.03499999999997
278.17	0	139085	CN/Hi	10	0	0	0	0	10.0	0.0	10.0	0.0						446.5477210000004	453.5694242000004	453.5694242000004	8.0	['8', 'return']	[5.252416899999844, 5.901336199999605]	7.01	5.82	2.0	controle	high_pain	45.5			sub-pilot015	250	15	43	45.5	COM11	COM7	COM3	2023-11-07_10h01.32.116	001-EEG_SVR_Officel	2022.2.5	143.9806029326614		5.8180000000000405	0_sub-pilot015_SVR_EEG_block1-2.protocol.csv	step23	3727	370.551	STIMULATE	45.7	45.5	45.4	45.5	45.7	23	284.03499999999997
290.532	0	145266	wait	20	0	0	0	0	11.0	0.0	11.0	0.0						472.4889992000003	477.6077713	477.6077713	6.0	['6', 'return']	[2.6165228999998362, 3.0969623999999385]	5.11	5.31	3.0	10hz	low_pain	43.0			sub-pilot015	250	15	43	45.5	COM11	COM7	COM3	2023-11-07_10h01.32.116	001-EEG_SVR_Officel	2022.2.5	143.9806029326614		13.111999999999966	0_sub-pilot015_SVR_EEG_block1-2.protocol.csv	step25	3964	394.028	STIMULATE	43.0	42.9	42.9	42.9	43.1	25	307.512
295.638	0	147819	10hz	3	0	0	0	0	11.0	0.0	11.0	0.0						472.4889992000003	477.6077713	477.6077713	6.0	['6', 'return']	[2.6165228999998362, 3.0969623999999385]	5.11	5.31	3.0	10hz	low_pain	43.0			sub-pilot015	250	15	43	45.5	COM11	COM7	COM3	2023-11-07_10h01.32.116	001-EEG_SVR_Officel	2022.2.5	143.9806029326614		5.1059999999999945	0_sub-pilot015_SVR_EEG_block1-2.protocol.csv	step25	3964	394.028	STIMULATE	43.0	42.9	42.9	42.9	43.1	25	307.512
301.7	0	150850	10/Lo	2	0	0	0	0	11.0	0.0	11.0	0.0						472.4889992000003	477.6077713	477.6077713	6.0	['6', 'return']	[2.6165228999998362, 3.0969623999999385]	5.11	5.31	3.0	10hz	low_pain	43.0			sub-pilot015	250	15	43	45.5	COM11	COM7	COM3	2023-11-07_10h01.32.116	001-EEG_SVR_Officel	2022.2.5	143.9806029326614		5.312000000000012	0_sub-pilot015_SVR_EEG_block1-2.protocol.csv	step25	3964	394.028	STIMULATE	43.0	42.9	42.9	42.9	43.1	25	307.512
311.756	0	155878	wait	20	0	0	0	0	12.0	0.0	12.0	0.0						493.7129055999999	500.6305269999998	500.6305269999998	7.0	['7', 'return']	[3.1278919999995196, 3.641622600000119]	6.91	6.31	0.0	20hz	high_pain	45.5			sub-pilot015	250	15	43	45.5	COM11	COM7	COM3	2023-11-07_10h01.32.116	001-EEG_SVR_Officel	2022.2.5	143.9806029326614		10.805999999999983	0_sub-pilot015_SVR_EEG_block1-2.protocol.csv	step27	4206	418.081	STIMULATE	45.6	45.4	45.4	45.5	45.7	27	331.565
318.662	0	159331	20hz	6	0	0	0	0	12.0	0.0	12.0	0.0						493.7129055999999	500.6305269999998	500.6305269999998	7.0	['7', 'return']	[3.1278919999995196, 3.641622600000119]	6.91	6.31	0.0	20hz	high_pain	45.5			sub-pilot015	250	15	43	45.5	COM11	COM7	COM3	2023-11-07_10h01.32.116	001-EEG_SVR_Officel	2022.2.5	143.9806029326614		6.906000000000006	0_sub-pilot015_SVR_EEG_block1-2.protocol.csv	step27	4206	418.081	STIMULATE	45.6	45.4	45.4	45.5	45.7	27	331.565
325.722	0	162861	20/Hi	4	0	0	0	0	12.0	0.0	12.0	0.0						493.7129055999999	500.6305269999998	500.6305269999998	7.0	['7', 'return']	[3.1278919999995196, 3.641622600000119]	6.91	6.31	0.0	20hz	high_pain	45.5			sub-pilot015	250	15	43	45.5	COM11	COM7	COM3	2023-11-07_10h01.32.116	001-EEG_SVR_Officel	2022.2.5	143.9806029326614		6.310000000000002	0_sub-pilot015_SVR_EEG_block1-2.protocol.csv	step27	4206	418.081	STIMULATE	45.6	45.4	45.4	45.5	45.7	27	331.565
335.328	0	167664	wait	20	0	0	0	0	13.0	0.0	13.0	0.0						517.2856016000001	524.4175909	524.4175909	5.0	['5', 'return']	[2.4214358999997785, 2.9570599999997285]	7.12	5.03	1.0	10hz	low_pain	43.0			sub-pilot015	250	15	43	45.5	COM11	COM7	COM3	2023-11-07_10h01.32.116	001-EEG_SVR_Officel	2022.2.5	143.9806029326614		10.355999999999995	0_sub-pilot015_SVR_EEG_block1-2.protocol.csv	step29	4434	440.653	STIMULATE	43.2	42.9	42.9	42.9	43.1	29	354.137
342.448	0	171224	10hz	3	0	0	0	0	13.0	0.0	13.0	0.0						517.2856016000001	524.4175909	524.4175909	5.0	['5', 'return']	[2.4214358999997785, 2.9570599999997285]	7.12	5.03	1.0	10hz	low_pain	43.0			sub-pilot015	250	15	43	45.5	COM11	COM7	COM3	2023-11-07_10h01.32.116	001-EEG_SVR_Officel	2022.2.5	143.9806029326614		7.1200000000000045	0_sub-pilot015_SVR_EEG_block1-2.protocol.csv	step29	4434	440.653	STIMULATE	43.2	42.9	42.9	42.9	43.1	29	354.137
348.232	0	174116	10/Lo	2	0	0	0	0	13.0	0.0	13.0	0.0						517.2856016000001	524.4175909	524.4175909	5.0	['5', 'return']	[2.4214358999997785, 2.9570599999997285]	7.12	5.03	1.0	10hz	low_pain	43.0			sub-pilot015	250	15	43	45.5	COM11	COM7	COM3	2023-11-07_10h01.32.116	001-EEG_SVR_Officel	2022.2.5	143.9806029326614		5.034000000000049	0_sub-pilot015_SVR_EEG_block1-2.protocol.csv	step29	4434	440.653	STIMULATE	43.2	42.9	42.9	42.9	43.1	29	354.137
358.434	0	179217	wait	20	0	0	0	0	14.0	0.0	14.0	0.0						540.3922992000003	545.4696937000003	545.4696937000003	4.5	['4', 'a', '5', 'return']	[5.105729200000496, 5.825226300000395, 6.249513599999773, 7.201263400000244]	5.07	5.94	2.0	10hz	low_pain	43.0			sub-pilot015	250	15	43	45.5	COM11	COM7	COM3	2023-11-07_10h01.32.116	001-EEG_SVR_Officel	2022.2.5	143.9806029326614		10.951999999999998	0_sub-pilot015_SVR_EEG_block1-2.protocol.csv	step31	4655	462.523	STIMULATE	43.0	42.9	42.9	42.9	43.1	31	376.007
363.5	0	181750	10hz	3	0	0	0	0	14.0	0.0	14.0	0.0						540.3922992000003	545.4696937000003	545.4696937000003	4.5	['4', 'a', '5', 'return']	[5.105729200000496, 5.825226300000395, 6.249513599999773, 7.201263400000244]	5.07	5.94	2.0	10hz	low_pain	43.0			sub-pilot015	250	15	43	45.5	COM11	COM7	COM3	2023-11-07_10h01.32.116	001-EEG_SVR_Officel	2022.2.5	143.9806029326614		5.065999999999974	0_sub-pilot015_SVR_EEG_block1-2.protocol.csv	step31	4655	462.523	STIMULATE	43.0	42.9	42.9	42.9	43.1	31	376.007
370.194	0	185097	10/Lo	2	0	0	0	0	14.0	0.0	14.0	0.0						540.3922992000003	545.4696937000003	545.4696937000003	4.5	['4', 'a', '5', 'return']	[5.105729200000496, 5.825226300000395, 6.249513599999773, 7.201263400000244]	5.07	5.94	2.0	10hz	low_pain	43.0			sub-pilot015	250	15	43	45.5	COM11	COM7	COM3	2023-11-07_10h01.32.116	001-EEG_SVR_Officel	2022.2.5	143.9806029326614		5.944000000000017	0_sub-pilot015_SVR_EEG_block1-2.protocol.csv	step31	4655	462.523	STIMULATE	43.0	42.9	42.9	42.9	43.1	31	376.007
383.722	0	191861	wait	20	0	0	0	0	15.0	0.0	15.0	0.0						565.6800151000002	571.4724477000004	571.4724477000004	9.0	['9', 'return']	[2.39957830000003, 2.8146034999999756]	5.78	5.38	3.0	40hz	high_pain	45.5			sub-pilot015	250	15	43	45.5	COM11	COM7	COM3	2023-11-07_10h01.32.116	001-EEG_SVR_Officel	2022.2.5	143.9806029326614		14.277999999999963	0_sub-pilot015_SVR_EEG_block1-2.protocol.csv	step33	4911	487.988	STIMULATE	45.5	45.4	45.4	45.5	45.7	33	401.472
389.502	0	194751	40hz	9	0	0	0	0	15.0	0.0	15.0	0.0						565.6800151000002	571.4724477000004	571.4724477000004	9.0	['9', 'return']	[2.39957830000003, 2.8146034999999756]	5.78	5.38	3.0	40hz	high_pain	45.5			sub-pilot015	250	15	43	45.5	COM11	COM7	COM3	2023-11-07_10h01.32.116	001-EEG_SVR_Officel	2022.2.5	143.9806029326614		5.78000000000003	0_sub-pilot015_SVR_EEG_block1-2.protocol.csv	step33	4911	487.988	STIMULATE	45.5	45.4	45.4	45.5	45.7	33	401.472
395.634	0	197817	40/Hi	7	0	0	0	0	15.0	0.0	15.0	0.0						565.6800151000002	571.4724477000004	571.4724477000004	9.0	['9', 'return']	[2.39957830000003, 2.8146034999999756]	5.78	5.38	3.0	40hz	high_pain	45.5			sub-pilot015	250	15	43	45.5	COM11	COM7	COM3	2023-11-07_10h01.32.116	001-EEG_SVR_Officel	2022.2.5	143.9806029326614		5.382000000000005	0_sub-pilot015_SVR_EEG_block1-2.protocol.csv	step33	4911	487.988	STIMULATE	45.5	45.4	45.4	45.5	45.7	33	401.472
440.87	0	220435	wait	20	1	0	1	0	0.0	0.0	0.0	0.0				p	1.0659537000001365	622.8268193999997	628.4449962000003	628.4449962000003	4.0	['4', 'return']	[2.449956600000405, 3.0350197999996453]	5.61	6.09	0.0	controle	low_pain	43.0			sub-pilot015	250	15	43	45.5	COM11	COM7	COM3	2023-11-07_10h01.32.116	001-EEG_SVR_Officel	2022.2.5	143.9806029326614		45.98599999999999	0_sub-pilot015_SVR_EEG_block1-2.protocol.csv	step35	5491	545.736	STIMULATE	43.0	42.9	42.9	43.1	43.2	35	459.17
446.476	0	223238	CNhz	12	1	0	1	0	0.0	0.0	0.0	0.0				p	1.0659537000001365	622.8268193999997	628.4449962000003	628.4449962000003	4.0	['4', 'return']	[2.449956600000405, 3.0350197999996453]	5.61	6.09	0.0	controle	low_pain	43.0			sub-pilot015	250	15	43	45.5	COM11	COM7	COM3	2023-11-07_10h01.32.116	001-EEG_SVR_Officel	2022.2.5	143.9806029326614		5.6059999999999945	0_sub-pilot015_SVR_EEG_block1-2.protocol.csv	step35	5491	545.736	STIMULATE	43.0	42.9	42.9	43.1	43.2	35	459.17
453.314	0	226657	CN/Lo	11	1	0	1	0	0.0	0.0	0.0	0.0				p	1.0659537000001365	622.8268193999997	628.4449962000003	628.4449962000003	4.0	['4', 'return']	[2.449956600000405, 3.0350197999996453]	5.61	6.09	0.0	controle	low_pain	43.0			sub-pilot015	250	15	43	45.5	COM11	COM7	COM3	2023-11-07_10h01.32.116	001-EEG_SVR_Officel	2022.2.5	143.9806029326614		6.088000000000022	0_sub-pilot015_SVR_EEG_block1-2.protocol.csv	step35	5491	545.736	STIMULATE	43.0	42.9	42.9	43.1	43.2	35	459.17
462.53	0	231265	wait	20	1	0	1	0	1.0	0.0	1.0	0.0						644.4879047	651.2459253000002	651.2459253000002	6.0	['6', 'return']	[3.1045668000006117, 3.5606641000003947]	6.75	5.97	1.0	40hz	low_pain	43.0			sub-pilot015	250	15	43	45.5	COM11	COM7	COM3	2023-11-07_10h01.32.116	001-EEG_SVR_Officel	2022.2.5	143.9806029326614		9.965999999999951	0_sub-pilot015_SVR_EEG_block1-2.protocol.csv	step37	5719	568.36	STIMULATE	42.9	42.9	42.9	43.0	43.1	37	481.79400000000004
469.276	0	234638	40hz	9	1	0	1	0	1.0	0.0	1.0	0.0						644.4879047	651.2459253000002	651.2459253000002	6.0	['6', 'return']	[3.1045668000006117, 3.5606641000003947]	6.75	5.97	1.0	40hz	low_pain	43.0			sub-pilot015	250	15	43	45.5	COM11	COM7	COM3	2023-11-07_10h01.32.116	001-EEG_SVR_Officel	2022.2.5	143.9806029326614		6.746000000000038	0_sub-pilot015_SVR_EEG_block1-2.protocol.csv	step37	5719	568.36	STIMULATE	42.9	42.9	42.9	43.0	43.1	37	481.79400000000004
475.996	0	237998	40/Lo	8	1	0	1	0	1.0	0.0	1.0	0.0						644.4879047	651.2459253000002	651.2459253000002	6.0	['6', 'return']	[3.1045668000006117, 3.5606641000003947]	6.75	5.97	1.0	40hz	low_pain	43.0			sub-pilot015	250	15	43	45.5	COM11	COM7	COM3	2023-11-07_10h01.32.116	001-EEG_SVR_Officel	2022.2.5	143.9806029326614		5.96999999999997	0_sub-pilot015_SVR_EEG_block1-2.protocol.csv	step37	5719	568.36	STIMULATE	42.9	42.9	42.9	43.0	43.1	37	481.79400000000004
485.866	0	242933	wait	20	1	0	1	0	2.0	0.0	2.0	0.0						667.8244099999997	674.6239608999999	674.6239608999999	7.0	['7', 'return']	[2.814941600000566, 3.240133700000115]	6.79	5.41	2.0	controle	low_pain	43.0			sub-pilot015	250	15	43	45.5	COM11	COM7	COM3	2023-11-07_10h01.32.116	001-EEG_SVR_Officel	2022.2.5	143.9806029326614		10.620000000000005	0_sub-pilot015_SVR_EEG_block1-2.protocol.csv	step39	5950	591.288	STIMULATE	42.9	42.8	42.9	43.0	43.2	39	504.72200000000004
492.654	0	246327	CNhz	12	1	0	1	0	2.0	0.0	2.0	0.0						667.8244099999997	674.6239608999999	674.6239608999999	7.0	['7', 'return']	[2.814941600000566, 3.240133700000115]	6.79	5.41	2.0	controle	low_pain	43.0			sub-pilot015	250	15	43	45.5	COM11	COM7	COM3	2023-11-07_10h01.32.116	001-EEG_SVR_Officel	2022.2.5	143.9806029326614		6.788000000000011	0_sub-pilot015_SVR_EEG_block1-2.protocol.csv	step39	5950	591.288	STIMULATE	42.9	42.8	42.9	43.0	43.2	39	504.72200000000004
498.812	0	249406	CN/Lo	11	1	0	1	0	2.0	0.0	2.0	0.0						667.8244099999997	674.6239608999999	674.6239608999999	7.0	['7', 'return']	[2.814941600000566, 3.240133700000115]	6.79	5.41	2.0	controle	low_pain	43.0			sub-pilot015	250	15	43	45.5	COM11	COM7	COM3	2023-11-07_10h01.32.116	001-EEG_SVR_Officel	2022.2.5	143.9806029326614		5.4080000000000155	0_sub-pilot015_SVR_EEG_block1-2.protocol.csv	step39	5950	591.288	STIMULATE	42.9	42.8	42.9	43.0	43.2	39	504.72200000000004
508.918	0	254459	wait	20	1	0	1	0	3.0	0.0	3.0	0.0						690.8756565999997	698.6966077000002	698.6966077000002	8.0	['8', 'return']	[3.0065514999996594, 3.293790399999125]	7.81	5.22	3.0	10hz	high_pain	45.5			sub-pilot015	250	15	43	45.5	COM11	COM7	COM3	2023-11-07_10h01.32.116	001-EEG_SVR_Officel	2022.2.5	143.9806029326614		10.855999999999995	0_sub-pilot015_SVR_EEG_block1-2.protocol.csv	step41	6191	615.129	STIMULATE	45.5	45.4	45.4	45.6	45.8	41	528.5630000000001
516.728	0	258363	10hz	3	1	0	1	0	3.0	0.0	3.0	0.0						690.8756565999997	698.6966077000002	698.6966077000002	8.0	['8', 'return']	[3.0065514999996594, 3.293790399999125]	7.81	5.22	3.0	10hz	high_pain	45.5			sub-pilot015	250	15	43	45.5	COM11	COM7	COM3	2023-11-07_10h01.32.116	001-EEG_SVR_Officel	2022.2.5	143.9806029326614		7.809999999999945	0_sub-pilot015_SVR_EEG_block1-2.protocol.csv	step41	6191	615.129	STIMULATE	45.5	45.4	45.4	45.6	45.8	41	528.5630000000001
522.698	0	261349	10/Hi	1	1	0	1	0	3.0	0.0	3.0	0.0						690.8756565999997	698.6966077000002	698.6966077000002	8.0	['8', 'return']	[3.0065514999996594, 3.293790399999125]	7.81	5.22	3.0	10hz	high_pain	45.5			sub-pilot015	250	15	43	45.5	COM11	COM7	COM3	2023-11-07_10h01.32.116	001-EEG_SVR_Officel	2022.2.5	143.9806029326614		5.220000000000027	0_sub-pilot015_SVR_EEG_block1-2.protocol.csv	step41	6191	615.129	STIMULATE	45.5	45.4	45.4	45.6	45.8	41	528.5630000000001
533.054	0	266527	wait	20	1	0	1	0	4.0	0.0	4.0	0.0						715.0109979000003	722.2831295000001	722.2831295000001	8.5	['8', 'a', '5', 'return']	[2.5964946000003692, 3.5329781999998886, 3.8286215999996784, 4.516819100000248]	7.26	5.89	0.0	controle	high_pain	45.5			sub-pilot015	250	15	43	45.5	COM11	COM7	COM3	2023-11-07_10h01.32.116	001-EEG_SVR_Officel	2022.2.5	143.9806029326614		11.105999999999995	0_sub-pilot015_SVR_EEG_block1-2.protocol.csv	step43	6436	639.411	STIMULATE	45.5	45.4	45.4	45.7	45.8	43	552.845
540.312	0	270156	CNhz	12	1	0	1	0	4.0	0.0	4.0	0.0						715.0109979000003	722.2831295000001	722.2831295000001	8.5	['8', 'a', '5', 'return']	[2.5964946000003692, 3.5329781999998886, 3.8286215999996784, 4.516819100000248]	7.26	5.89	0.0	controle	high_pain	45.5			sub-pilot015	250	15	43	45.5	COM11	COM7	COM3	2023-11-07_10h01.32.116	001-EEG_SVR_Officel	2022.2.5	143.9806029326614		7.258000000000038	0_sub-pilot015_SVR_EEG_block1-2.protocol.csv	step43	6436	639.411	STIMULATE	45.5	45.4	45.4	45.7	45.8	43	552.845
546.958	0	273479	CN/Hi	10	1	0	1	0	4.0	0.0	4.0	0.0						715.0109979000003	722.2831295000001	722.2831295000001	8.5	['8', 'a', '5', 'return']	[2.5964946000003692, 3.5329781999998886, 3.8286215999996784, 4.516819100000248]	7.26	5.89	0.0	controle	high_pain	45.5			sub-pilot015	250	15	43	45.5	COM11	COM7	COM3	2023-11-07_10h01.32.116	001-EEG_SVR_Officel	2022.2.5	143.9806029326614		5.895999999999958	0_sub-pilot015_SVR_EEG_block1-2.protocol.csv	step43	6436	639.411	STIMULATE	45.5	45.4	45.4	45.7	45.8	43	552.845
557.862	0	278931	wait	20	1	0	1	0	5.0	0.0	5.0	0.0						739.8191999000005	746.1463182000002	746.1463182000002	5.0	['5', 'return']	[2.5627834999995684, 3.107714300000225]	6.32	5.87	1.0	20hz	low_pain	43.0			sub-pilot015	250	15	43	45.5	COM11	COM7	COM3	2023-11-07_10h01.32.116	001-EEG_SVR_Officel	2022.2.5	143.9806029326614		11.653999999999996	0_sub-pilot015_SVR_EEG_block1-2.protocol.csv	step45	6675	663.167	STIMULATE	42.9	42.9	42.9	43.0	43.1	45	576.6010000000001
564.176	0	282088	20hz	6	1	0	1	0	5.0	0.0	5.0	0.0						739.8191999000005	746.1463182000002	746.1463182000002	5.0	['5', 'return']	[2.5627834999995684, 3.107714300000225]	6.32	5.87	1.0	20hz	low_pain	43.0			sub-pilot015	250	15	43	45.5	COM11	COM7	COM3	2023-11-07_10h01.32.116	001-EEG_SVR_Officel	2022.2.5	143.9806029326614		6.314000000000078	0_sub-pilot015_SVR_EEG_block1-2.protocol.csv	step45	6675	663.167	STIMULATE	42.9	42.9	42.9	43.0	43.1	45	576.6010000000001
570.8	0	285400	20/Lo	5	1	0	1	0	5.0	0.0	5.0	0.0						739.8191999000005	746.1463182000002	746.1463182000002	5.0	['5', 'return']	[2.5627834999995684, 3.107714300000225]	6.32	5.87	1.0	20hz	low_pain	43.0			sub-pilot015	250	15	43	45.5	COM11	COM7	COM3	2023-11-07_10h01.32.116	001-EEG_SVR_Officel	2022.2.5	143.9806029326614		5.87399999999991	0_sub-pilot015_SVR_EEG_block1-2.protocol.csv	step45	6675	663.167	STIMULATE	42.9	42.9	42.9	43.0	43.1	45	576.6010000000001
580.314	0	290157	wait	20	1	0	1	0	6.0	0.0	6.0	0.0						762.2732216999998	768.7810242999999	768.7810242999999	8.5	['8', 'a', '5', 'return']	[6.723050900000089, 8.161958400000003, 8.84279080000033, 9.673656900000424]	6.5	6.12	2.0	10hz	high_pain	45.5			sub-pilot015	250	15	43	45.5	COM11	COM7	COM3	2023-11-07_10h01.32.116	001-EEG_SVR_Officel	2022.2.5	143.9806029326614		10.26400000000001	0_sub-pilot015_SVR_EEG_block1-2.protocol.csv	step47	6907	686.157	STIMULATE	45.5	45.4	45.4	45.7	45.7	47	599.5910000000001
586.81	0	293405	10hz	3	1	0	1	0	6.0	0.0	6.0	0.0						762.2732216999998	768.7810242999999	768.7810242999999	8.5	['8', 'a', '5', 'return']	[6.723050900000089, 8.161958400000003, 8.84279080000033, 9.673656900000424]	6.5	6.12	2.0	10hz	high_pain	45.5			sub-pilot015	250	15	43	45.5	COM11	COM7	COM3	2023-11-07_10h01.32.116	001-EEG_SVR_Officel	2022.2.5	143.9806029326614		6.495999999999981	0_sub-pilot015_SVR_EEG_block1-2.protocol.csv	step47	6907	686.157	STIMULATE	45.5	45.4	45.4	45.7	45.7	47	599.5910000000001
593.684	0	296842	10/Hi	1	1	0	1	0	6.0	0.0	6.0	0.0						762.2732216999998	768.7810242999999	768.7810242999999	8.5	['8', 'a', '5', 'return']	[6.723050900000089, 8.161958400000003, 8.84279080000033, 9.673656900000424]	6.5	6.12	2.0	10hz	high_pain	45.5			sub-pilot015	250	15	43	45.5	COM11	COM7	COM3	2023-11-07_10h01.32.116	001-EEG_SVR_Officel	2022.2.5	143.9806029326614		6.124000000000024	0_sub-pilot015_SVR_EEG_block1-2.protocol.csv	step47	6907	686.157	STIMULATE	45.5	45.4	45.4	45.7	45.7	47	599.5910000000001
609.512	0	304756	wait	20	1	0	1	0	7.0	0.0	7.0	0.0						791.4711293000005	796.5411454	796.5411454	8.0	['8', 'return']	[2.6022894000007, 2.9142027000007147]	5.06	5.22	3.0	20hz	high_pain	45.5			sub-pilot015	250	15	43	45.5	COM11	COM7	COM3	2023-11-07_10h01.32.116	001-EEG_SVR_Officel	2022.2.5	143.9806029326614		16.577999999999975	0_sub-pilot015_SVR_EEG_block1-2.protocol.csv	step49	7178	713.013	STIMULATE	45.5	45.4	45.4	45.5	45.7	49	626.4470000000001
614.57	0	307285	20hz	6	1	0	1	0	7.0	0.0	7.0	0.0						791.4711293000005	796.5411454	796.5411454	8.0	['8', 'return']	[2.6022894000007, 2.9142027000007147]	5.06	5.22	3.0	20hz	high_pain	45.5			sub-pilot015	250	15	43	45.5	COM11	COM7	COM3	2023-11-07_10h01.32.116	001-EEG_SVR_Officel	2022.2.5	143.9806029326614		5.058000000000106	0_sub-pilot015_SVR_EEG_block1-2.protocol.csv	step49	7178	713.013	STIMULATE	45.5	45.4	45.4	45.5	45.7	49	626.4470000000001
620.54	0	310270	20/Hi	4	1	0	1	0	7.0	0.0	7.0	0.0						791.4711293000005	796.5411454	796.5411454	8.0	['8', 'return']	[2.6022894000007, 2.9142027000007147]	5.06	5.22	3.0	20hz	high_pain	45.5			sub-pilot015	250	15	43	45.5	COM11	COM7	COM3	2023-11-07_10h01.32.116	001-EEG_SVR_Officel	2022.2.5	143.9806029326614		5.219999999999914	0_sub-pilot015_SVR_EEG_block1-2.protocol.csv	step49	7178	713.013	STIMULATE	45.5	45.4	45.4	45.5	45.7	49	626.4470000000001
630.514	0	315257	wait	20	1	0	1	0	8.0	0.0	8.0	0.0						812.4743485000004	819.502634	819.502634	5.0	['5', 'return']	[2.456631400000333, 3.151946900000439]	7.02	6.44	0.0	40hz	low_pain	43.0			sub-pilot015	250	15	43	45.5	COM11	COM7	COM3	2023-11-07_10h01.32.116	001-EEG_SVR_Officel	2022.2.5	143.9806029326614		10.724000000000046	0_sub-pilot015_SVR_EEG_block1-2.protocol.csv	step51	7421	737.165	STIMULATE	42.9	42.9	42.9	43.0	43.1	51	650.5989999999999
637.532	0	318766	40hz	9	1	0	1	0	8.0	0.0	8.0	0.0						812.4743485000004	819.502634	819.502634	5.0	['5', 'return']	[2.456631400000333, 3.151946900000439]	7.02	6.44	0.0	40hz	low_pain	43.0			sub-pilot015	250	15	43	45.5	COM11	COM7	COM3	2023-11-07_10h01.32.116	001-EEG_SVR_Officel	2022.2.5	143.9806029326614		7.018000000000029	0_sub-pilot015_SVR_EEG_block1-2.protocol.csv	step51	7421	737.165	STIMULATE	42.9	42.9	42.9	43.0	43.1	51	650.5989999999999
644.724	0	322362	40/Lo	8	1	0	1	0	8.0	0.0	8.0	0.0						812.4743485000004	819.502634	819.502634	5.0	['5', 'return']	[2.456631400000333, 3.151946900000439]	7.02	6.44	0.0	40hz	low_pain	43.0			sub-pilot015	250	15	43	45.5	COM11	COM7	COM3	2023-11-07_10h01.32.116	001-EEG_SVR_Officel	2022.2.5	143.9806029326614		6.442000000000007	0_sub-pilot015_SVR_EEG_block1-2.protocol.csv	step51	7421	737.165	STIMULATE	42.9	42.9	42.9	43.0	43.1	51	650.5989999999999
653.712	0	326856	wait	20	1	0	1	0	9.0	0.0	9.0	0.0						835.6715214000001	843.2417193000006	843.2417193000006	8.0	['8', 'return']	[2.9823518000002878, 3.318119800000204]	7.56	5.6	1.0	40hz	high_pain	45.5			sub-pilot015	250	15	43	45.5	COM11	COM7	COM3	2023-11-07_10h01.32.116	001-EEG_SVR_Officel	2022.2.5	143.9806029326614		9.737999999999943	0_sub-pilot015_SVR_EEG_block1-2.protocol.csv	step53	7651	760.056	STIMULATE	45.5	45.4	45.4	45.6	45.7	53	673.49
661.27	0	330635	40hz	9	1	0	1	0	9.0	0.0	9.0	0.0						835.6715214000001	843.2417193000006	843.2417193000006	8.0	['8', 'return']	[2.9823518000002878, 3.318119800000204]	7.56	5.6	1.0	40hz	high_pain	45.5			sub-pilot015	250	15	43	45.5	COM11	COM7	COM3	2023-11-07_10h01.32.116	001-EEG_SVR_Officel	2022.2.5	143.9806029326614		7.557999999999993	0_sub-pilot015_SVR_EEG_block1-2.protocol.csv	step53	7651	760.056	STIMULATE	45.5	45.4	45.4	45.6	45.7	53	673.49
667.624	0	333812	40/Hi	7	1	0	1	0	9.0	0.0	9.0	0.0						835.6715214000001	843.2417193000006	843.2417193000006	8.0	['8', 'return']	[2.9823518000002878, 3.318119800000204]	7.56	5.6	1.0	40hz	high_pain	45.5			sub-pilot015	250	15	43	45.5	COM11	COM7	COM3	2023-11-07_10h01.32.116	001-EEG_SVR_Officel	2022.2.5	143.9806029326614		5.604000000000042	0_sub-pilot015_SVR_EEG_block1-2.protocol.csv	step53	7651	760.056	STIMULATE	45.5	45.4	45.4	45.6	45.7	53	673.49
677.618	0	338809	wait	20	1	0	1	0	10.0	0.0	10.0	0.0						859.5766691000003	867.4583238999999	867.4583238999999	9.0	['9', 'return']	[2.9319894999998724, 3.2685328999996273]	7.88	5.0	2.0	40hz	high_pain	45.5			sub-pilot015	250	15	43	45.5	COM11	COM7	COM3	2023-11-07_10h01.32.116	001-EEG_SVR_Officel	2022.2.5	143.9806029326614		10.744000000000028	0_sub-pilot015_SVR_EEG_block1-2.protocol.csv	step55	7889	783.788	STIMULATE	45.7	45.4	45.4	45.5	45.8	55	697.222
685.494	0	342747	40hz	9	1	0	1	0	10.0	0.0	10.0	0.0						859.5766691000003	867.4583238999999	867.4583238999999	9.0	['9', 'return']	[2.9319894999998724, 3.2685328999996273]	7.88	5.0	2.0	40hz	high_pain	45.5			sub-pilot015	250	15	43	45.5	COM11	COM7	COM3	2023-11-07_10h01.32.116	001-EEG_SVR_Officel	2022.2.5	143.9806029326614		7.875999999999976	0_sub-pilot015_SVR_EEG_block1-2.protocol.csv	step55	7889	783.788	STIMULATE	45.7	45.4	45.4	45.5	45.8	55	697.222
691.244	0	345622	40/Hi	7	1	0	1	0	10.0	0.0	10.0	0.0						859.5766691000003	867.4583238999999	867.4583238999999	9.0	['9', 'return']	[2.9319894999998724, 3.2685328999996273]	7.88	5.0	2.0	40hz	high_pain	45.5			sub-pilot015	250	15	43	45.5	COM11	COM7	COM3	2023-11-07_10h01.32.116	001-EEG_SVR_Officel	2022.2.5	143.9806029326614		5.0	0_sub-pilot015_SVR_EEG_block1-2.protocol.csv	step55	7889	783.788	STIMULATE	45.7	45.4	45.4	45.5	45.8	55	697.222
701.794	0	350897	wait	20	1	0	1	0	11.0	0.0	11.0	0.0						883.7530711000004	891.7532315000003	891.7532315000003	7.0	['7', 'return']	[2.8699475000003076, 3.324532700000418]	7.99	5.76	3.0	20hz	low_pain	43.0			sub-pilot015	250	15	43	45.5	COM11	COM7	COM3	2023-11-07_10h01.32.116	001-EEG_SVR_Officel	2022.2.5	143.9806029326614		11.299999999999955	0_sub-pilot015_SVR_EEG_block1-2.protocol.csv	step57	8134	808.769	STIMULATE	42.9	42.9	42.9	42.9	43.1	57	722.203
709.782	0	354891	20hz	6	1	0	1	0	11.0	0.0	11.0	0.0						883.7530711000004	891.7532315000003	891.7532315000003	7.0	['7', 'return']	[2.8699475000003076, 3.324532700000418]	7.99	5.76	3.0	20hz	low_pain	43.0			sub-pilot015	250	15	43	45.5	COM11	COM7	COM3	2023-11-07_10h01.32.116	001-EEG_SVR_Officel	2022.2.5	143.9806029326614		7.988000000000056	0_sub-pilot015_SVR_EEG_block1-2.protocol.csv	step57	8134	808.769	STIMULATE	42.9	42.9	42.9	42.9	43.1	57	722.203
716.296	0	358148	20/Lo	5	1	0	1	0	11.0	0.0	11.0	0.0						883.7530711000004	891.7532315000003	891.7532315000003	7.0	['7', 'return']	[2.8699475000003076, 3.324532700000418]	7.99	5.76	3.0	20hz	low_pain	43.0			sub-pilot015	250	15	43	45.5	COM11	COM7	COM3	2023-11-07_10h01.32.116	001-EEG_SVR_Officel	2022.2.5	143.9806029326614		5.76400000000001	0_sub-pilot015_SVR_EEG_block1-2.protocol.csv	step57	8134	808.769	STIMULATE	42.9	42.9	42.9	42.9	43.1	57	722.203
726.138	0	363069	wait	20	1	0	1	0	12.0	0.0	12.0	0.0						908.0964108000004	915.3459360000002	915.3459360000002	7.0	['7', 'return']	[3.116397799999504, 3.4685503999999128]	7.25	6.01	0.0	20hz	low_pain	43.0			sub-pilot015	250	15	43	45.5	COM11	COM7	COM3	2023-11-07_10h01.32.116	001-EEG_SVR_Officel	2022.2.5	143.9806029326614		10.591999999999985	0_sub-pilot015_SVR_EEG_block1-2.protocol.csv	step59	8363	832.59	STIMULATE	43.1	42.9	42.9	42.9	43.2	59	746.0240000000001
733.382	0	366691	20hz	6	1	0	1	0	12.0	0.0	12.0	0.0						908.0964108000004	915.3459360000002	915.3459360000002	7.0	['7', 'return']	[3.116397799999504, 3.4685503999999128]	7.25	6.01	0.0	20hz	low_pain	43.0			sub-pilot015	250	15	43	45.5	COM11	COM7	COM3	2023-11-07_10h01.32.116	001-EEG_SVR_Officel	2022.2.5	143.9806029326614		7.2439999999999145	0_sub-pilot015_SVR_EEG_block1-2.protocol.csv	step59	8363	832.59	STIMULATE	43.1	42.9	42.9	42.9	43.2	59	746.0240000000001
740.146	0	370073	20/Lo	5	1	0	1	0	12.0	0.0	12.0	0.0						908.0964108000004	915.3459360000002	915.3459360000002	7.0	['7', 'return']	[3.116397799999504, 3.4685503999999128]	7.25	6.01	0.0	20hz	low_pain	43.0			sub-pilot015	250	15	43	45.5	COM11	COM7	COM3	2023-11-07_10h01.32.116	001-EEG_SVR_Officel	2022.2.5	143.9806029326614		6.01400000000001	0_sub-pilot015_SVR_EEG_block1-2.protocol.csv	step59	8363	832.59	STIMULATE	43.1	42.9	42.9	42.9	43.2	59	746.0240000000001
749.876	0	374938	wait	20	1	0	1	0	13.0	0.0	13.0	0.0						931.8347101000004	937.6346532000002	937.6346532000002	7.0	['7', 'return']	[3.93118400000003, 4.716004400000202]	5.79	5.85	1.0	controle	low_pain	43.0			sub-pilot015	250	15	43	45.5	COM11	COM7	COM3	2023-11-07_10h01.32.116	001-EEG_SVR_Officel	2022.2.5	143.9806029326614		10.480000000000018	0_sub-pilot015_SVR_EEG_block1-2.protocol.csv	step61	8575	854.719	STIMULATE	42.9	42.8	42.9	43.0	43.2	61	768.153
755.662	0	377831	CNhz	12	1	0	1	0	13.0	0.0	13.0	0.0						931.8347101000004	937.6346532000002	937.6346532000002	7.0	['7', 'return']	[3.93118400000003, 4.716004400000202]	5.79	5.85	1.0	controle	low_pain	43.0			sub-pilot015	250	15	43	45.5	COM11	COM7	COM3	2023-11-07_10h01.32.116	001-EEG_SVR_Officel	2022.2.5	143.9806029326614		5.786000000000058	0_sub-pilot015_SVR_EEG_block1-2.protocol.csv	step61	8575	854.719	STIMULATE	42.9	42.8	42.9	43.0	43.2	61	768.153
762.266	0	381133	CN/Lo	11	1	0	1	0	13.0	0.0	13.0	0.0						931.8347101000004	937.6346532000002	937.6346532000002	7.0	['7', 'return']	[3.93118400000003, 4.716004400000202]	5.79	5.85	1.0	controle	low_pain	43.0			sub-pilot015	250	15	43	45.5	COM11	COM7	COM3	2023-11-07_10h01.32.116	001-EEG_SVR_Officel	2022.2.5	143.9806029326614		5.853999999999928	0_sub-pilot015_SVR_EEG_block1-2.protocol.csv	step61	8575	854.719	STIMULATE	42.9	42.8	42.9	43.0	43.2	61	768.153
773.414	0	386707	wait	20	1	0	1	0	14.0	0.0	14.0	0.0						955.3734827000004	960.8600100999996	960.8600100999996	8.0	['8', 'return']	[3.1388024000007135, 3.523389599999973]	5.48	6.41	2.0	20hz	high_pain	45.5			sub-pilot015	250	15	43	45.5	COM11	COM7	COM3	2023-11-07_10h01.32.116	001-EEG_SVR_Officel	2022.2.5	143.9806029326614		11.898000000000025	0_sub-pilot015_SVR_EEG_block1-2.protocol.csv	step63	8800	878.447	STIMULATE	45.7	45.4	45.4	45.5	45.7	63	791.8810000000001
778.888	0	389444	20hz	6	1	0	1	0	14.0	0.0	14.0	0.0						955.3734827000004	960.8600100999996	960.8600100999996	8.0	['8', 'return']	[3.1388024000007135, 3.523389599999973]	5.48	6.41	2.0	20hz	high_pain	45.5			sub-pilot015	250	15	43	45.5	COM11	COM7	COM3	2023-11-07_10h01.32.116	001-EEG_SVR_Officel	2022.2.5	143.9806029326614		5.474000000000046	0_sub-pilot015_SVR_EEG_block1-2.protocol.csv	step63	8800	878.447	STIMULATE	45.7	45.4	45.4	45.5	45.7	63	791.8810000000001
786.046	0	393023	20/Hi	4	1	0	1	0	14.0	0.0	14.0	0.0						955.3734827000004	960.8600100999996	960.8600100999996	8.0	['8', 'return']	[3.1388024000007135, 3.523389599999973]	5.48	6.41	2.0	20hz	high_pain	45.5			sub-pilot015	250	15	43	45.5	COM11	COM7	COM3	2023-11-07_10h01.32.116	001-EEG_SVR_Officel	2022.2.5	143.9806029326614		6.4080000000000155	0_sub-pilot015_SVR_EEG_block1-2.protocol.csv	step63	8800	878.447	STIMULATE	45.7	45.4	45.4	45.5	45.7	63	791.8810000000001
795.442	0	397721	wait	20	1	0	1	0	15.0	0.0	15.0	0.0						977.4031971999998	984.2722070000004	984.2722070000004	8.5	['8', 'a', '5', 'return']	[5.093962900000406, 5.750502799999595, 6.518790299999637, 7.4319492000004175]	6.86	5.41	3.0	controle	high_pain	45.5			sub-pilot015	250	15	43	45.5	COM11	COM7	COM3	2023-11-07_10h01.32.116	001-EEG_SVR_Officel	2022.2.5	143.9806029326614		10.145999999999958	0_sub-pilot015_SVR_EEG_block1-2.protocol.csv	step65	9011	900.914	STIMULATE	45.5	45.4	45.4	45.5	45.8	65	814.348
802.3	0	401150	CNhz	12	1	0	1	0	15.0	0.0	15.0	0.0						977.4031971999998	984.2722070000004	984.2722070000004	8.5	['8', 'a', '5', 'return']	[5.093962900000406, 5.750502799999595, 6.518790299999637, 7.4319492000004175]	6.86	5.41	3.0	controle	high_pain	45.5			sub-pilot015	250	15	43	45.5	COM11	COM7	COM3	2023-11-07_10h01.32.116	001-EEG_SVR_Officel	2022.2.5	143.9806029326614		6.857999999999947	0_sub-pilot015_SVR_EEG_block1-2.protocol.csv	step65	9011	900.914	STIMULATE	45.5	45.4	45.4	45.5	45.8	65	814.348
808.458	0	404229	CN/Hi	10	1	0	1	0	15.0	0.0	15.0	0.0						977.4031971999998	984.2722070000004	984.2722070000004	8.5	['8', 'a', '5', 'return']	[5.093962900000406, 5.750502799999595, 6.518790299999637, 7.4319492000004175]	6.86	5.41	3.0	controle	high_pain	45.5			sub-pilot015	250	15	43	45.5	COM11	COM7	COM3	2023-11-07_10h01.32.116	001-EEG_SVR_Officel	2022.2.5	143.9806029326614		5.4080000000000155	0_sub-pilot015_SVR_EEG_block1-2.protocol.csv	step65	9011	900.914	STIMULATE	45.5	45.4	45.4	45.5	45.8	65	814.348
859.062	0	429531	wait	20	2	0	2	0	0.0	0.0	0.0	0.0				p	0.3347696000000724	1041.0219743000002	1047.4325365	1047.4325365	7.0	['7', 'return']	[3.190981300000203, 3.647367999999915]	6.4	6.37	0.0	40hz	high_pain	45.5			sub-pilot015	250	15	43	45.5	COM11	COM7	COM3	2023-11-07_10h01.32.116	001-EEG_SVR_Officel	2022.2.5	143.9806029326614		51.35400000000004	1_sub-pilot015_SVR_EEG_block3-4.protocol.csv	step3	443	44.126	STIMULATE	45.7	45.4	45.4	45.6	45.7	3	878.3249999999999
865.46	0	432730	40hz	9	2	0	2	0	0.0	0.0	0.0	0.0				p	0.3347696000000724	1041.0219743000002	1047.4325365	1047.4325365	7.0	['7', 'return']	[3.190981300000203, 3.647367999999915]	6.4	6.37	0.0	40hz	high_pain	45.5			sub-pilot015	250	15	43	45.5	COM11	COM7	COM3	2023-11-07_10h01.32.116	001-EEG_SVR_Officel	2022.2.5	143.9806029326614		6.398000000000025	1_sub-pilot015_SVR_EEG_block3-4.protocol.csv	step3	443	44.126	STIMULATE	45.7	45.4	45.4	45.6	45.7	3	878.3249999999999
872.584	0	436292	40/Hi	7	2	0	2	0	0.0	0.0	0.0	0.0				p	0.3347696000000724	1041.0219743000002	1047.4325365	1047.4325365	7.0	['7', 'return']	[3.190981300000203, 3.647367999999915]	6.4	6.37	0.0	40hz	high_pain	45.5			sub-pilot015	250	15	43	45.5	COM11	COM7	COM3	2023-11-07_10h01.32.116	001-EEG_SVR_Officel	2022.2.5	143.9806029326614		6.37399999999991	1_sub-pilot015_SVR_EEG_block3-4.protocol.csv	step3	443	44.126	STIMULATE	45.7	45.4	45.4	45.6	45.7	3	878.3249999999999
882.134	0	441067	wait	20	2	0	2	0	1.0	0.0	1.0	0.0						1064.0948203000005	1070.8246463	1070.8246463	6.0	['6', 'return']	[4.102792199999385, 4.8548257000002195]	6.72	5.44	1.0	10hz	low_pain	43.0			sub-pilot015	250	15	43	45.5	COM11	COM7	COM3	2023-11-07_10h01.32.116	001-EEG_SVR_Officel	2022.2.5	143.9806029326614		10.300000000000068	1_sub-pilot015_SVR_EEG_block3-4.protocol.csv	step5	670	66.615	STIMULATE	42.9	42.9	42.9	43.1	43.2	5	900.814
888.852	0	444426	10hz	3	2	0	2	0	1.0	0.0	1.0	0.0						1064.0948203000005	1070.8246463	1070.8246463	6.0	['6', 'return']	[4.102792199999385, 4.8548257000002195]	6.72	5.44	1.0	10hz	low_pain	43.0			sub-pilot015	250	15	43	45.5	COM11	COM7	COM3	2023-11-07_10h01.32.116	001-EEG_SVR_Officel	2022.2.5	143.9806029326614		6.717999999999961	1_sub-pilot015_SVR_EEG_block3-4.protocol.csv	step5	670	66.615	STIMULATE	42.9	42.9	42.9	43.1	43.2	5	900.814
895.046	0	447523	10/Lo	2	2	0	2	0	1.0	0.0	1.0	0.0						1064.0948203000005	1070.8246463	1070.8246463	6.0	['6', 'return']	[4.102792199999385, 4.8548257000002195]	6.72	5.44	1.0	10hz	low_pain	43.0			sub-pilot015	250	15	43	45.5	COM11	COM7	COM3	2023-11-07_10h01.32.116	001-EEG_SVR_Officel	2022.2.5	143.9806029326614		5.444000000000074	1_sub-pilot015_SVR_EEG_block3-4.protocol.csv	step5	670	66.615	STIMULATE	42.9	42.9	42.9	43.1	43.2	5	900.814
906.734	0	453367	wait	20	2	0	2	0	2.0	0.0	2.0	0.0						1088.6944586000004	1096.1537322999998	1096.1537322999998	8.0	['8', 'return']	[2.5491996000000654, 2.8208459999996194]	7.45	5.75	2.0	controle	high_pain	45.5			sub-pilot015	250	15	43	45.5	COM11	COM7	COM3	2023-11-07_10h01.32.116	001-EEG_SVR_Officel	2022.2.5	143.9806029326614		12.437999999999988	1_sub-pilot015_SVR_EEG_block3-4.protocol.csv	step7	929	92.305	STIMULATE	45.5	45.4	45.4	45.6	45.7	7	926.5039999999999
914.18	0	457090	CNhz	12	2	0	2	0	2.0	0.0	2.0	0.0						1088.6944586000004	1096.1537322999998	1096.1537322999998	8.0	['8', 'return']	[2.5491996000000654, 2.8208459999996194]	7.45	5.75	2.0	controle	high_pain	45.5			sub-pilot015	250	15	43	45.5	COM11	COM7	COM3	2023-11-07_10h01.32.116	001-EEG_SVR_Officel	2022.2.5	143.9806029326614		7.445999999999913	1_sub-pilot015_SVR_EEG_block3-4.protocol.csv	step7	929	92.305	STIMULATE	45.5	45.4	45.4	45.6	45.7	7	926.5039999999999
920.678	0	460339	CN/Hi	10	2	0	2	0	2.0	0.0	2.0	0.0						1088.6944586000004	1096.1537322999998	1096.1537322999998	8.0	['8', 'return']	[2.5491996000000654, 2.8208459999996194]	7.45	5.75	2.0	controle	high_pain	45.5			sub-pilot015	250	15	43	45.5	COM11	COM7	COM3	2023-11-07_10h01.32.116	001-EEG_SVR_Officel	2022.2.5	143.9806029326614		5.748000000000047	1_sub-pilot015_SVR_EEG_block3-4.protocol.csv	step7	929	92.305	STIMULATE	45.5	45.4	45.4	45.6	45.7	7	926.5039999999999
930.034	0	465017	wait	20	2	0	2	0	3.0	0.0	3.0	0.0						1111.9958247	1118.7118986	1118.7118986	6.0	['6', 'return']	[2.3512026999997033, 2.792456299999685]	6.71	6.22	3.0	10hz	low_pain	43.0			sub-pilot015	250	15	43	45.5	COM11	COM7	COM3	2023-11-07_10h01.32.116	001-EEG_SVR_Officel	2022.2.5	143.9806029326614		10.105999999999995	1_sub-pilot015_SVR_EEG_block3-4.protocol.csv	step9	1161	115.34	STIMULATE	42.9	42.9	42.9	43.0	43.2	9	949.539
936.74	0	468370	10hz	3	2	0	2	0	3.0	0.0	3.0	0.0						1111.9958247	1118.7118986	1118.7118986	6.0	['6', 'return']	[2.3512026999997033, 2.792456299999685]	6.71	6.22	3.0	10hz	low_pain	43.0			sub-pilot015	250	15	43	45.5	COM11	COM7	COM3	2023-11-07_10h01.32.116	001-EEG_SVR_Officel	2022.2.5	143.9806029326614		6.706000000000017	1_sub-pilot015_SVR_EEG_block3-4.protocol.csv	step9	1161	115.34	STIMULATE	42.9	42.9	42.9	43.0	43.2	9	949.539
943.71	0	471855	10/Lo	2	2	0	2	0	3.0	0.0	3.0	0.0						1111.9958247	1118.7118986	1118.7118986	6.0	['6', 'return']	[2.3512026999997033, 2.792456299999685]	6.71	6.22	3.0	10hz	low_pain	43.0			sub-pilot015	250	15	43	45.5	COM11	COM7	COM3	2023-11-07_10h01.32.116	001-EEG_SVR_Officel	2022.2.5	143.9806029326614		6.220000000000027	1_sub-pilot015_SVR_EEG_block3-4.protocol.csv	step9	1161	115.34	STIMULATE	42.9	42.9	42.9	43.0	43.2	9	949.539
952.566	0	476283	wait	20	2	0	2	0	4.0	0.0	4.0	0.0						1134.5263139000003	1139.8313011000005	1139.8313011000005	8.0	['8', 'return']	[4.800081200000022, 5.391340500000297]	5.3	6.0	0.0	controle	high_pain	45.5			sub-pilot015	250	15	43	45.5	COM11	COM7	COM3	2023-11-07_10h01.32.116	001-EEG_SVR_Officel	2022.2.5	143.9806029326614		9.605999999999995	1_sub-pilot015_SVR_EEG_block3-4.protocol.csv	step11	1372	136.201	STIMULATE	45.5	45.4	45.4	45.5	45.7	11	970.4
957.866	0	478933	CNhz	12	2	0	2	0	4.0	0.0	4.0	0.0						1134.5263139000003	1139.8313011000005	1139.8313011000005	8.0	['8', 'return']	[4.800081200000022, 5.391340500000297]	5.3	6.0	0.0	controle	high_pain	45.5			sub-pilot015	250	15	43	45.5	COM11	COM7	COM3	2023-11-07_10h01.32.116	001-EEG_SVR_Officel	2022.2.5	143.9806029326614		5.2999999999999545	1_sub-pilot015_SVR_EEG_block3-4.protocol.csv	step11	1372	136.201	STIMULATE	45.5	45.4	45.4	45.5	45.7	11	970.4
964.616	0	482308	CN/Hi	10	2	0	2	0	4.0	0.0	4.0	0.0						1134.5263139000003	1139.8313011000005	1139.8313011000005	8.0	['8', 'return']	[4.800081200000022, 5.391340500000297]	5.3	6.0	0.0	controle	high_pain	45.5			sub-pilot015	250	15	43	45.5	COM11	COM7	COM3	2023-11-07_10h01.32.116	001-EEG_SVR_Officel	2022.2.5	143.9806029326614		6.0	1_sub-pilot015_SVR_EEG_block3-4.protocol.csv	step11	1372	136.201	STIMULATE	45.5	45.4	45.4	45.5	45.7	11	970.4
976.284	0	488142	wait	20	2	0	2	0	5.0	0.0	5.0	0.0						1158.2440716000006	1164.0646819999995	1164.0646819999995	9.0	['9', 'return']	[2.822718100000202, 3.0391183000001547]	5.81	5.11	1.0	10hz	high_pain	45.5			sub-pilot015	250	15	43	45.5	COM11	COM7	COM3	2023-11-07_10h01.32.116	001-EEG_SVR_Officel	2022.2.5	143.9806029326614		12.418000000000006	1_sub-pilot015_SVR_EEG_block3-4.protocol.csv	step13	1607	159.513	STIMULATE	45.4	45.4	45.4	45.6	45.7	13	993.712
982.092	0	491046	10hz	3	2	0	2	0	5.0	0.0	5.0	0.0						1158.2440716000006	1164.0646819999995	1164.0646819999995	9.0	['9', 'return']	[2.822718100000202, 3.0391183000001547]	5.81	5.11	1.0	10hz	high_pain	45.5			sub-pilot015	250	15	43	45.5	COM11	COM7	COM3	2023-11-07_10h01.32.116	001-EEG_SVR_Officel	2022.2.5	143.9806029326614		5.807999999999993	1_sub-pilot015_SVR_EEG_block3-4.protocol.csv	step13	1607	159.513	STIMULATE	45.4	45.4	45.4	45.6	45.7	13	993.712
987.95	0	493975	10/Hi	1	2	0	2	0	5.0	0.0	5.0	0.0						1158.2440716000006	1164.0646819999995	1164.0646819999995	9.0	['9', 'return']	[2.822718100000202, 3.0391183000001547]	5.81	5.11	1.0	10hz	high_pain	45.5			sub-pilot015	250	15	43	45.5	COM11	COM7	COM3	2023-11-07_10h01.32.116	001-EEG_SVR_Officel	2022.2.5	143.9806029326614		5.108000000000061	1_sub-pilot015_SVR_EEG_block3-4.protocol.csv	step13	1607	159.513	STIMULATE	45.4	45.4	45.4	45.6	45.7	13	993.712
998.16	0	499080	wait	20	2	0	2	0	6.0	0.0	6.0	0.0						1180.1220835	1186.4913198	1186.4913198	8.0	['8', 'return']	[2.851488299999801, 3.4128977999998824]	6.36	5.83	2.0	20hz	high_pain	45.5			sub-pilot015	250	15	43	45.5	COM11	COM7	COM3	2023-11-07_10h01.32.116	001-EEG_SVR_Officel	2022.2.5	143.9806029326614		10.959999999999923	1_sub-pilot015_SVR_EEG_block3-4.protocol.csv	step15	1841	182.706	STIMULATE	45.5	45.4	45.4	45.5	45.6	15	1016.905
1004.518	0	502259	20hz	6	2	0	2	0	6.0	0.0	6.0	0.0						1180.1220835	1186.4913198	1186.4913198	8.0	['8', 'return']	[2.851488299999801, 3.4128977999998824]	6.36	5.83	2.0	20hz	high_pain	45.5			sub-pilot015	250	15	43	45.5	COM11	COM7	COM3	2023-11-07_10h01.32.116	001-EEG_SVR_Officel	2022.2.5	143.9806029326614		6.358000000000061	1_sub-pilot015_SVR_EEG_block3-4.protocol.csv	step15	1841	182.706	STIMULATE	45.5	45.4	45.4	45.5	45.6	15	1016.905
1011.1	0	505550	20/Hi	4	2	0	2	0	6.0	0.0	6.0	0.0						1180.1220835	1186.4913198	1186.4913198	8.0	['8', 'return']	[2.851488299999801, 3.4128977999998824]	6.36	5.83	2.0	20hz	high_pain	45.5			sub-pilot015	250	15	43	45.5	COM11	COM7	COM3	2023-11-07_10h01.32.116	001-EEG_SVR_Officel	2022.2.5	143.9806029326614		5.831999999999994	1_sub-pilot015_SVR_EEG_block3-4.protocol.csv	step15	1841	182.706	STIMULATE	45.5	45.4	45.4	45.5	45.6	15	1016.905
1020.964	0	510482	wait	20	2	0	2	0	7.0	0.0	7.0	0.0						1202.9241894000002	1209.1325290999998	1209.1325290999998	6.0	['6', 'return']	[5.18708020000031, 5.922211200000675]	6.2	5.13	3.0	controle	low_pain	43.0			sub-pilot015	250	15	43	45.5	COM11	COM7	COM3	2023-11-07_10h01.32.116	001-EEG_SVR_Officel	2022.2.5	143.9806029326614		10.614000000000033	1_sub-pilot015_SVR_EEG_block3-4.protocol.csv	step17	2062	204.64	STIMULATE	42.9	42.8	42.9	42.9	43.1	17	1038.839
1027.16	0	513580	CNhz	12	2	0	2	0	7.0	0.0	7.0	0.0						1202.9241894000002	1209.1325290999998	1209.1325290999998	6.0	['6', 'return']	[5.18708020000031, 5.922211200000675]	6.2	5.13	3.0	controle	low_pain	43.0			sub-pilot015	250	15	43	45.5	COM11	COM7	COM3	2023-11-07_10h01.32.116	001-EEG_SVR_Officel	2022.2.5	143.9806029326614		6.196000000000026	1_sub-pilot015_SVR_EEG_block3-4.protocol.csv	step17	2062	204.64	STIMULATE	42.9	42.8	42.9	42.9	43.1	17	1038.839
1033.04	0	516520	CN/Lo	11	2	0	2	0	7.0	0.0	7.0	0.0						1202.9241894000002	1209.1325290999998	1209.1325290999998	6.0	['6', 'return']	[5.18708020000031, 5.922211200000675]	6.2	5.13	3.0	controle	low_pain	43.0			sub-pilot015	250	15	43	45.5	COM11	COM7	COM3	2023-11-07_10h01.32.116	001-EEG_SVR_Officel	2022.2.5	143.9806029326614		5.129999999999882	1_sub-pilot015_SVR_EEG_block3-4.protocol.csv	step17	2062	204.64	STIMULATE	42.9	42.8	42.9	42.9	43.1	17	1038.839
1046.11	0	523054	wait	20	2	0	2	0	8.0	0.0	8.0	0.0						1228.0723165000004	1233.4132564000006	1233.4132564000006	8.0	['8', 'return']	[5.465644699999757, 6.41794420000042]	5.33	5.46	0.0	10hz	high_pain	45.5			sub-pilot015	250	15	43	45.5	COM11	COM7	COM3	2023-11-07_10h01.32.116	001-EEG_SVR_Officel	2022.2.5	143.9806029326614		13.819999999999936	1_sub-pilot015_SVR_EEG_block3-4.protocol.csv	step19	2311	229.346	STIMULATE	45.4	45.4	45.5	45.6	45.6	19	1063.545
1051.44	0	525720	10hz	3	2	0	2	0	8.0	0.0	8.0	0.0						1228.0723165000004	1233.4132564000006	1233.4132564000006	8.0	['8', 'return']	[5.465644699999757, 6.41794420000042]	5.33	5.46	0.0	10hz	high_pain	45.5			sub-pilot015	250	15	43	45.5	COM11	COM7	COM3	2023-11-07_10h01.32.116	001-EEG_SVR_Officel	2022.2.5	143.9806029326614		5.330000000000155	1_sub-pilot015_SVR_EEG_block3-4.protocol.csv	step19	2311	229.346	STIMULATE	45.4	45.4	45.5	45.6	45.6	19	1063.545
1057.654	0	528827	10/Hi	1	2	0	2	0	8.0	0.0	8.0	0.0						1228.0723165000004	1233.4132564000006	1233.4132564000006	8.0	['8', 'return']	[5.465644699999757, 6.41794420000042]	5.33	5.46	0.0	10hz	high_pain	45.5			sub-pilot015	250	15	43	45.5	COM11	COM7	COM3	2023-11-07_10h01.32.116	001-EEG_SVR_Officel	2022.2.5	143.9806029326614		5.463999999999942	1_sub-pilot015_SVR_EEG_block3-4.protocol.csv	step19	2311	229.346	STIMULATE	45.4	45.4	45.5	45.6	45.6	19	1063.545
1070.892	0	535446	wait	20	2	0	2	0	9.0	0.0	9.0	0.0						1252.8530338000005	1259.3942932000004	1259.3942932000004	5.0	['5', 'return']	[2.508316699999341, 4.091917899999316]	6.54	5.85	1.0	controle	low_pain	43.0			sub-pilot015	250	15	43	45.5	COM11	COM7	COM3	2023-11-07_10h01.32.116	001-EEG_SVR_Officel	2022.2.5	143.9806029326614		13.988000000000056	1_sub-pilot015_SVR_EEG_block3-4.protocol.csv	step21	2576	255.613	STIMULATE	42.9	42.9	42.9	43.1	43.1	21	1089.812
1077.428	0	538714	CNhz	12	2	0	2	0	9.0	0.0	9.0	0.0						1252.8530338000005	1259.3942932000004	1259.3942932000004	5.0	['5', 'return']	[2.508316699999341, 4.091917899999316]	6.54	5.85	1.0	controle	low_pain	43.0			sub-pilot015	250	15	43	45.5	COM11	COM7	COM3	2023-11-07_10h01.32.116	001-EEG_SVR_Officel	2022.2.5	143.9806029326614		6.536000000000058	1_sub-pilot015_SVR_EEG_block3-4.protocol.csv	step21	2576	255.613	STIMULATE	42.9	42.9	42.9	43.1	43.1	21	1089.812
1084.032	0	542016	CN/Lo	11	2	0	2	0	9.0	0.0	9.0	0.0						1252.8530338000005	1259.3942932000004	1259.3942932000004	5.0	['5', 'return']	[2.508316699999341, 4.091917899999316]	6.54	5.85	1.0	controle	low_pain	43.0			sub-pilot015	250	15	43	45.5	COM11	COM7	COM3	2023-11-07_10h01.32.116	001-EEG_SVR_Officel	2022.2.5	143.9806029326614		5.8539999999998145	1_sub-pilot015_SVR_EEG_block3-4.protocol.csv	step21	2576	255.613	STIMULATE	42.9	42.9	42.9	43.1	43.1	21	1089.812
1094.554	0	547277	wait	20	2	0	2	0	10.0	0.0	10.0	0.0						1276.5156484000004	1282.4677229000004	1282.4677229000004	8.0	['8', 'return']	[3.1887297000002945, 3.619990400000461]	5.94	5.86	2.0	10hz	high_pain	45.5			sub-pilot015	250	15	43	45.5	COM11	COM7	COM3	2023-11-07_10h01.32.116	001-EEG_SVR_Officel	2022.2.5	143.9806029326614		11.272000000000162	1_sub-pilot015_SVR_EEG_block3-4.protocol.csv	step23	2809	278.778	STIMULATE	45.5	45.4	45.5	45.6	45.7	23	1112.9769999999999
1100.494	0	550247	10hz	3	2	0	2	0	10.0	0.0	10.0	0.0						1276.5156484000004	1282.4677229000004	1282.4677229000004	8.0	['8', 'return']	[3.1887297000002945, 3.619990400000461]	5.94	5.86	2.0	10hz	high_pain	45.5			sub-pilot015	250	15	43	45.5	COM11	COM7	COM3	2023-11-07_10h01.32.116	001-EEG_SVR_Officel	2022.2.5	143.9806029326614		5.939999999999827	1_sub-pilot015_SVR_EEG_block3-4.protocol.csv	step23	2809	278.778	STIMULATE	45.5	45.4	45.5	45.6	45.7	23	1112.9769999999999
1107.104	0	553552	10/Hi	1	2	0	2	0	10.0	0.0	10.0	0.0						1276.5156484000004	1282.4677229000004	1282.4677229000004	8.0	['8', 'return']	[3.1887297000002945, 3.619990400000461]	5.94	5.86	2.0	10hz	high_pain	45.5			sub-pilot015	250	15	43	45.5	COM11	COM7	COM3	2023-11-07_10h01.32.116	001-EEG_SVR_Officel	2022.2.5	143.9806029326614		5.860000000000127	1_sub-pilot015_SVR_EEG_block3-4.protocol.csv	step23	2809	278.778	STIMULATE	45.5	45.4	45.5	45.6	45.7	23	1112.9769999999999
1117.14	0	558570	wait	20	2	0	2	0	11.0	0.0	11.0	0.0						1299.1012753999998	1304.4501864999995	1304.4501864999995	7.0	['7', 'return']	[3.1575127999994947, 3.5732812999995076]	5.34	6.23	3.0	40hz	low_pain	43.0			sub-pilot015	250	15	43	45.5	COM11	COM7	COM3	2023-11-07_10h01.32.116	001-EEG_SVR_Officel	2022.2.5	143.9806029326614		10.786000000000058	1_sub-pilot015_SVR_EEG_block3-4.protocol.csv	step25	3035	301.159	STIMULATE	42.9	42.9	42.9	42.9	43.1	25	1135.358
1122.476	0	561238	40hz	9	2	0	2	0	11.0	0.0	11.0	0.0						1299.1012753999998	1304.4501864999995	1304.4501864999995	7.0	['7', 'return']	[3.1575127999994947, 3.5732812999995076]	5.34	6.23	3.0	40hz	low_pain	43.0			sub-pilot015	250	15	43	45.5	COM11	COM7	COM3	2023-11-07_10h01.32.116	001-EEG_SVR_Officel	2022.2.5	143.9806029326614		5.336000000000013	1_sub-pilot015_SVR_EEG_block3-4.protocol.csv	step25	3035	301.159	STIMULATE	42.9	42.9	42.9	42.9	43.1	25	1135.358
1129.46	0	564730	40/Lo	8	2	0	2	0	11.0	0.0	11.0	0.0						1299.1012753999998	1304.4501864999995	1304.4501864999995	7.0	['7', 'return']	[3.1575127999994947, 3.5732812999995076]	5.34	6.23	3.0	40hz	low_pain	43.0			sub-pilot015	250	15	43	45.5	COM11	COM7	COM3	2023-11-07_10h01.32.116	001-EEG_SVR_Officel	2022.2.5	143.9806029326614		6.233999999999924	1_sub-pilot015_SVR_EEG_block3-4.protocol.csv	step25	3035	301.159	STIMULATE	42.9	42.9	42.9	42.9	43.1	25	1135.358
1139.08	0	569540	wait	20	2	0	2	0	12.0	0.0	12.0	0.0						1321.0422476999995	1328.7928831000004	1328.7928831000004	6.0	['6', 'return']	[2.862071100000321, 3.3666825999998764]	7.74	6.49	0.0	controle	low_pain	43.0			sub-pilot015	250	15	43	45.5	COM11	COM7	COM3	2023-11-07_10h01.32.116	001-EEG_SVR_Officel	2022.2.5	143.9806029326614		10.36999999999989	1_sub-pilot015_SVR_EEG_block3-4.protocol.csv	step27	3283	325.739	STIMULATE	43.1	42.8	42.9	42.9	43.1	27	1159.9379999999999
1146.82	0	573410	CNhz	12	2	0	2	0	12.0	0.0	12.0	0.0						1321.0422476999995	1328.7928831000004	1328.7928831000004	6.0	['6', 'return']	[2.862071100000321, 3.3666825999998764]	7.74	6.49	0.0	controle	low_pain	43.0			sub-pilot015	250	15	43	45.5	COM11	COM7	COM3	2023-11-07_10h01.32.116	001-EEG_SVR_Officel	2022.2.5	143.9806029326614		7.740000000000009	1_sub-pilot015_SVR_EEG_block3-4.protocol.csv	step27	3283	325.739	STIMULATE	43.1	42.8	42.9	42.9	43.1	27	1159.9379999999999
1154.06	0	577030	CN/Lo	11	2	0	2	0	12.0	0.0	12.0	0.0						1321.0422476999995	1328.7928831000004	1328.7928831000004	6.0	['6', 'return']	[2.862071100000321, 3.3666825999998764]	7.74	6.49	0.0	controle	low_pain	43.0			sub-pilot015	250	15	43	45.5	COM11	COM7	COM3	2023-11-07_10h01.32.116	001-EEG_SVR_Officel	2022.2.5	143.9806029326614		6.490000000000009	1_sub-pilot015_SVR_EEG_block3-4.protocol.csv	step27	3283	325.739	STIMULATE	43.1	42.8	42.9	42.9	43.1	27	1159.9379999999999
1163.206	0	581603	wait	20	2	0	2	0	13.0	0.0	13.0	0.0						1345.1693372000004	1353.1291187000002	1353.1291187000002	8.0	['8', 'return']	[2.7905618000004324, 3.1255953999998383]	7.95	5.15	1.0	40hz	high_pain	45.5			sub-pilot015	250	15	43	45.5	COM11	COM7	COM3	2023-11-07_10h01.32.116	001-EEG_SVR_Officel	2022.2.5	143.9806029326614		9.895999999999958	1_sub-pilot015_SVR_EEG_block3-4.protocol.csv	step29	3515	348.76	STIMULATE	45.6	45.4	45.4	45.5	45.7	29	1182.9589999999998
1171.154	0	585577	40hz	9	2	0	2	0	13.0	0.0	13.0	0.0						1345.1693372000004	1353.1291187000002	1353.1291187000002	8.0	['8', 'return']	[2.7905618000004324, 3.1255953999998383]	7.95	5.15	1.0	40hz	high_pain	45.5			sub-pilot015	250	15	43	45.5	COM11	COM7	COM3	2023-11-07_10h01.32.116	001-EEG_SVR_Officel	2022.2.5	143.9806029326614		7.948000000000093	1_sub-pilot015_SVR_EEG_block3-4.protocol.csv	step29	3515	348.76	STIMULATE	45.6	45.4	45.4	45.5	45.7	29	1182.9589999999998
1177.056	0	588528	40/Hi	7	2	0	2	0	13.0	0.0	13.0	0.0						1345.1693372000004	1353.1291187000002	1353.1291187000002	8.0	['8', 'return']	[2.7905618000004324, 3.1255953999998383]	7.95	5.15	1.0	40hz	high_pain	45.5			sub-pilot015	250	15	43	45.5	COM11	COM7	COM3	2023-11-07_10h01.32.116	001-EEG_SVR_Officel	2022.2.5	143.9806029326614		5.152000000000044	1_sub-pilot015_SVR_EEG_block3-4.protocol.csv	step29	3515	348.76	STIMULATE	45.6	45.4	45.4	45.5	45.7	29	1182.9589999999998
1187.314	0	593657	wait	20	2	0	2	0	14.0	0.0	14.0	0.0						1369.2774341999998	1375.7568643	1375.7568643	6.0	['6', 'return']	[2.5540940000000774, 3.1776576000002024]	6.47	5.76	2.0	40hz	low_pain	43.0			sub-pilot015	250	15	43	45.5	COM11	COM7	COM3	2023-11-07_10h01.32.116	001-EEG_SVR_Officel	2022.2.5	143.9806029326614		11.008000000000038	1_sub-pilot015_SVR_EEG_block3-4.protocol.csv	step31	3749	371.962	STIMULATE	43.0	42.9	42.9	43.0	43.1	31	1206.161
1193.782	0	596891	40hz	9	2	0	2	0	14.0	0.0	14.0	0.0						1369.2774341999998	1375.7568643	1375.7568643	6.0	['6', 'return']	[2.5540940000000774, 3.1776576000002024]	6.47	5.76	2.0	40hz	low_pain	43.0			sub-pilot015	250	15	43	45.5	COM11	COM7	COM3	2023-11-07_10h01.32.116	001-EEG_SVR_Officel	2022.2.5	143.9806029326614		6.467999999999847	1_sub-pilot015_SVR_EEG_block3-4.protocol.csv	step31	3749	371.962	STIMULATE	43.0	42.9	42.9	43.0	43.1	31	1206.161
1200.296	0	600148	40/Lo	8	2	0	2	0	14.0	0.0	14.0	0.0						1369.2774341999998	1375.7568643	1375.7568643	6.0	['6', 'return']	[2.5540940000000774, 3.1776576000002024]	6.47	5.76	2.0	40hz	low_pain	43.0			sub-pilot015	250	15	43	45.5	COM11	COM7	COM3	2023-11-07_10h01.32.116	001-EEG_SVR_Officel	2022.2.5	143.9806029326614		5.764000000000124	1_sub-pilot015_SVR_EEG_block3-4.protocol.csv	step31	3749	371.962	STIMULATE	43.0	42.9	42.9	43.0	43.1	31	1206.161
1209.998	0	604999	wait	20	2	0	2	0	15.0	0.0	15.0	0.0						1391.9603544000006	1399.6135196	1399.6135196	8.0	['8', 'return']	[3.3870573000003787, 3.770315699999628]	7.65	6.47	3.0	40hz	high_pain	45.5			sub-pilot015	250	15	43	45.5	COM11	COM7	COM3	2023-11-07_10h01.32.116	001-EEG_SVR_Officel	2022.2.5	143.9806029326614		10.451999999999998	1_sub-pilot015_SVR_EEG_block3-4.protocol.csv	step33	3997	396.563	STIMULATE	45.5	45.4	45.4	45.4	45.7	33	1230.762
1217.644	0	608822	40hz	9	2	0	2	0	15.0	0.0	15.0	0.0						1391.9603544000006	1399.6135196	1399.6135196	8.0	['8', 'return']	[3.3870573000003787, 3.770315699999628]	7.65	6.47	3.0	40hz	high_pain	45.5			sub-pilot015	250	15	43	45.5	COM11	COM7	COM3	2023-11-07_10h01.32.116	001-EEG_SVR_Officel	2022.2.5	143.9806029326614		7.645999999999958	1_sub-pilot015_SVR_EEG_block3-4.protocol.csv	step33	3997	396.563	STIMULATE	45.5	45.4	45.4	45.4	45.7	33	1230.762
1224.868	0	612434	40/Hi	7	2	0	2	0	15.0	0.0	15.0	0.0						1391.9603544000006	1399.6135196	1399.6135196	8.0	['8', 'return']	[3.3870573000003787, 3.770315699999628]	7.65	6.47	3.0	40hz	high_pain	45.5			sub-pilot015	250	15	43	45.5	COM11	COM7	COM3	2023-11-07_10h01.32.116	001-EEG_SVR_Officel	2022.2.5	143.9806029326614		6.473999999999933	1_sub-pilot015_SVR_EEG_block3-4.protocol.csv	step33	3997	396.563	STIMULATE	45.5	45.4	45.4	45.4	45.7	33	1230.762
1271.302	0	635651	wait	20	3	0	3	0	0.0	0.0	0.0	0.0				p	0.6294760000000679	1453.2662200999998	1461.1768574000002	1461.1768574000002	8.5	['8', 'a', '5', 'return']	[3.0231816000004983, 3.509751000000506, 3.8455086000003575, 4.598480599999675]	7.9	5.06	0.0	20hz	high_pain	45.5			sub-pilot015	250	15	43	45.5	COM11	COM7	COM3	2023-11-07_10h01.32.116	001-EEG_SVR_Officel	2022.2.5	143.9806029326614		47.18399999999997	1_sub-pilot015_SVR_EEG_block3-4.protocol.csv	step35	4600	456.649	STIMULATE	45.5	45.4	45.4	45.6	45.7	35	1290.879
1279.202	0	639601	20hz	6	3	0	3	0	0.0	0.0	0.0	0.0				p	0.6294760000000679	1453.2662200999998	1461.1768574000002	1461.1768574000002	8.5	['8', 'a', '5', 'return']	[3.0231816000004983, 3.509751000000506, 3.8455086000003575, 4.598480599999675]	7.9	5.06	0.0	20hz	high_pain	45.5			sub-pilot015	250	15	43	45.5	COM11	COM7	COM3	2023-11-07_10h01.32.116	001-EEG_SVR_Officel	2022.2.5	143.9806029326614		7.900000000000091	1_sub-pilot015_SVR_EEG_block3-4.protocol.csv	step35	4600	456.649	STIMULATE	45.5	45.4	45.4	45.6	45.7	35	1290.879
1285.014	0	642507	20/Hi	4	3	0	3	0	0.0	0.0	0.0	0.0				p	0.6294760000000679	1453.2662200999998	1461.1768574000002	1461.1768574000002	8.5	['8', 'a', '5', 'return']	[3.0231816000004983, 3.509751000000506, 3.8455086000003575, 4.598480599999675]	7.9	5.06	0.0	20hz	high_pain	45.5			sub-pilot015	250	15	43	45.5	COM11	COM7	COM3	2023-11-07_10h01.32.116	001-EEG_SVR_Officel	2022.2.5	143.9806029326614		5.061999999999898	1_sub-pilot015_SVR_EEG_block3-4.protocol.csv	step35	4600	456.649	STIMULATE	45.5	45.4	45.4	45.6	45.7	35	1290.879
1296.826	0	648413	wait	20	3	0	3	0	1.0	0.0	1.0	0.0						1478.7895236999998	1486.1798064999998	1486.1798064999998	8.0	['8', 'return']	[5.667833299999984, 6.50707070000044]	7.38	5.63	1.0	20hz	high_pain	45.5			sub-pilot015	250	15	43	45.5	COM11	COM7	COM3	2023-11-07_10h01.32.116	001-EEG_SVR_Officel	2022.2.5	143.9806029326614		12.562000000000126	1_sub-pilot015_SVR_EEG_block3-4.protocol.csv	step37	4859	482.344	STIMULATE	45.5	45.4	45.4	45.7	45.7	37	1316.5739999999998
1304.204	0	652102	20hz	6	3	0	3	0	1.0	0.0	1.0	0.0						1478.7895236999998	1486.1798064999998	1486.1798064999998	8.0	['8', 'return']	[5.667833299999984, 6.50707070000044]	7.38	5.63	1.0	20hz	high_pain	45.5			sub-pilot015	250	15	43	45.5	COM11	COM7	COM3	2023-11-07_10h01.32.116	001-EEG_SVR_Officel	2022.2.5	143.9806029326614		7.377999999999929	1_sub-pilot015_SVR_EEG_block3-4.protocol.csv	step37	4859	482.344	STIMULATE	45.5	45.4	45.4	45.7	45.7	37	1316.5739999999998
1310.586	0	655293	20/Hi	4	3	0	3	0	1.0	0.0	1.0	0.0						1478.7895236999998	1486.1798064999998	1486.1798064999998	8.0	['8', 'return']	[5.667833299999984, 6.50707070000044]	7.38	5.63	1.0	20hz	high_pain	45.5			sub-pilot015	250	15	43	45.5	COM11	COM7	COM3	2023-11-07_10h01.32.116	001-EEG_SVR_Officel	2022.2.5	143.9806029326614		5.632000000000062	1_sub-pilot015_SVR_EEG_block3-4.protocol.csv	step37	4859	482.344	STIMULATE	45.5	45.4	45.4	45.7	45.7	37	1316.5739999999998
1323.732	0	661866	wait	20	3	0	3	0	2.0	0.0	2.0	0.0						1505.6956525	1512.0718982000003	1512.0718982000003	5.0	['5', 'return']	[2.599054599999363, 3.3680272000001423]	6.37	5.21	2.0	10hz	low_pain	43.0			sub-pilot015	250	15	43	45.5	COM11	COM7	COM3	2023-11-07_10h01.32.116	001-EEG_SVR_Officel	2022.2.5	143.9806029326614		13.895999999999958	1_sub-pilot015_SVR_EEG_block3-4.protocol.csv	step39	5115	507.796	STIMULATE	42.9	42.9	42.9	43.1	43.1	39	1342.0259999999998
1330.096	0	665048	10hz	3	3	0	3	0	2.0	0.0	2.0	0.0						1505.6956525	1512.0718982000003	1512.0718982000003	5.0	['5', 'return']	[2.599054599999363, 3.3680272000001423]	6.37	5.21	2.0	10hz	low_pain	43.0			sub-pilot015	250	15	43	45.5	COM11	COM7	COM3	2023-11-07_10h01.32.116	001-EEG_SVR_Officel	2022.2.5	143.9806029326614		6.364000000000033	1_sub-pilot015_SVR_EEG_block3-4.protocol.csv	step39	5115	507.796	STIMULATE	42.9	42.9	42.9	43.1	43.1	39	1342.0259999999998
1336.06	0	668030	10/Lo	2	3	0	3	0	2.0	0.0	2.0	0.0						1505.6956525	1512.0718982000003	1512.0718982000003	5.0	['5', 'return']	[2.599054599999363, 3.3680272000001423]	6.37	5.21	2.0	10hz	low_pain	43.0			sub-pilot015	250	15	43	45.5	COM11	COM7	COM3	2023-11-07_10h01.32.116	001-EEG_SVR_Officel	2022.2.5	143.9806029326614		5.213999999999942	1_sub-pilot015_SVR_EEG_block3-4.protocol.csv	step39	5115	507.796	STIMULATE	42.9	42.9	42.9	43.1	43.1	39	1342.0259999999998
1346.484	0	673242	wait	20	3	0	3	0	3.0	0.0	3.0	0.0						1528.4481970000002	1535.8302961000004	1535.8302961000004	9.0	['9', 'return']	[3.2393184000002293, 3.7045231000001877]	7.38	5.26	3.0	20hz	high_pain	45.5			sub-pilot015	250	15	43	45.5	COM11	COM7	COM3	2023-11-07_10h01.32.116	001-EEG_SVR_Officel	2022.2.5	143.9806029326614		11.173999999999978	1_sub-pilot015_SVR_EEG_block3-4.protocol.csv	step41	5355	531.519	STIMULATE	45.5	45.4	45.4	45.5	45.7	41	1365.7489999999998
1353.862	0	676931	20hz	6	3	0	3	0	3.0	0.0	3.0	0.0						1528.4481970000002	1535.8302961000004	1535.8302961000004	9.0	['9', 'return']	[3.2393184000002293, 3.7045231000001877]	7.38	5.26	3.0	20hz	high_pain	45.5			sub-pilot015	250	15	43	45.5	COM11	COM7	COM3	2023-11-07_10h01.32.116	001-EEG_SVR_Officel	2022.2.5	143.9806029326614		7.378000000000156	1_sub-pilot015_SVR_EEG_block3-4.protocol.csv	step41	5355	531.519	STIMULATE	45.5	45.4	45.4	45.5	45.7	41	1365.7489999999998
1359.876	0	679938	20/Hi	4	3	0	3	0	3.0	0.0	3.0	0.0						1528.4481970000002	1535.8302961000004	1535.8302961000004	9.0	['9', 'return']	[3.2393184000002293, 3.7045231000001877]	7.38	5.26	3.0	20hz	high_pain	45.5			sub-pilot015	250	15	43	45.5	COM11	COM7	COM3	2023-11-07_10h01.32.116	001-EEG_SVR_Officel	2022.2.5	143.9806029326614		5.263999999999896	1_sub-pilot015_SVR_EEG_block3-4.protocol.csv	step41	5355	531.519	STIMULATE	45.5	45.4	45.4	45.5	45.7	41	1365.7489999999998
1370.6	0	685300	wait	20	3	0	3	0	4.0	0.0	4.0	0.0						1552.5636830999997	1557.79333	1557.79333	7.0	['7', 'return']	[3.3022313999999824, 3.7994990999995935]	5.22	5.69	0.0	20hz	low_pain	43.0			sub-pilot015	250	15	43	45.5	COM11	COM7	COM3	2023-11-07_10h01.32.116	001-EEG_SVR_Officel	2022.2.5	143.9806029326614		11.473999999999933	1_sub-pilot015_SVR_EEG_block3-4.protocol.csv	step43	5581	553.924	STIMULATE	43.0	42.9	42.9	42.9	43.1	43	1388.154
1375.818	0	687909	20hz	6	3	0	3	0	4.0	0.0	4.0	0.0						1552.5636830999997	1557.79333	1557.79333	7.0	['7', 'return']	[3.3022313999999824, 3.7994990999995935]	5.22	5.69	0.0	20hz	low_pain	43.0			sub-pilot015	250	15	43	45.5	COM11	COM7	COM3	2023-11-07_10h01.32.116	001-EEG_SVR_Officel	2022.2.5	143.9806029326614		5.218000000000075	1_sub-pilot015_SVR_EEG_block3-4.protocol.csv	step43	5581	553.924	STIMULATE	43.0	42.9	42.9	42.9	43.1	43	1388.154
1382.26	0	691130	20/Lo	5	3	0	3	0	4.0	0.0	4.0	0.0						1552.5636830999997	1557.79333	1557.79333	7.0	['7', 'return']	[3.3022313999999824, 3.7994990999995935]	5.22	5.69	0.0	20hz	low_pain	43.0			sub-pilot015	250	15	43	45.5	COM11	COM7	COM3	2023-11-07_10h01.32.116	001-EEG_SVR_Officel	2022.2.5	143.9806029326614		5.692000000000007	1_sub-pilot015_SVR_EEG_block3-4.protocol.csv	step43	5581	553.924	STIMULATE	43.0	42.9	42.9	42.9	43.1	43	1388.154
1392.644	0	696322	wait	20	3	0	3	0	5.0	0.0	5.0	0.0						1574.6074991	1582.0177164000002	1582.0177164000002	5.0	['5', 'return']	[2.997337900000275, 3.4853173000001334]	7.4	5.68	1.0	40hz	low_pain	43.0			sub-pilot015	250	15	43	45.5	COM11	COM7	COM3	2023-11-07_10h01.32.116	001-EEG_SVR_Officel	2022.2.5	143.9806029326614		11.134000000000015	1_sub-pilot015_SVR_EEG_block3-4.protocol.csv	step45	5825	578.124	STIMULATE	42.9	42.9	42.9	43.1	43.2	45	1412.3539999999998
1400.042	0	700021	40hz	9	3	0	3	0	5.0	0.0	5.0	0.0						1574.6074991	1582.0177164000002	1582.0177164000002	5.0	['5', 'return']	[2.997337900000275, 3.4853173000001334]	7.4	5.68	1.0	40hz	low_pain	43.0			sub-pilot015	250	15	43	45.5	COM11	COM7	COM3	2023-11-07_10h01.32.116	001-EEG_SVR_Officel	2022.2.5	143.9806029326614		7.397999999999911	1_sub-pilot015_SVR_EEG_block3-4.protocol.csv	step45	5825	578.124	STIMULATE	42.9	42.9	42.9	43.1	43.2	45	1412.3539999999998
1406.47	0	703235	40/Lo	8	3	0	3	0	5.0	0.0	5.0	0.0						1574.6074991	1582.0177164000002	1582.0177164000002	5.0	['5', 'return']	[2.997337900000275, 3.4853173000001334]	7.4	5.68	1.0	40hz	low_pain	43.0			sub-pilot015	250	15	43	45.5	COM11	COM7	COM3	2023-11-07_10h01.32.116	001-EEG_SVR_Officel	2022.2.5	143.9806029326614		5.678000000000111	1_sub-pilot015_SVR_EEG_block3-4.protocol.csv	step45	5825	578.124	STIMULATE	42.9	42.9	42.9	43.1	43.2	45	1412.3539999999998
1416.548	0	708274	wait	20	3	0	3	0	6.0	0.0	6.0	0.0						1598.5119932000002	1603.6800376000006	1603.6800376000006	6.0	['6', 'return']	[2.8709931000003053, 3.4720502999998644]	5.16	5.11	2.0	20hz	low_pain	43.0			sub-pilot015	250	15	43	45.5	COM11	COM7	COM3	2023-11-07_10h01.32.116	001-EEG_SVR_Officel	2022.2.5	143.9806029326614		10.827999999999975	1_sub-pilot015_SVR_EEG_block3-4.protocol.csv	step47	6038	599.296	STIMULATE	42.9	42.9	42.9	43.1	43.2	47	1433.5259999999998
1421.704	0	710852	20hz	6	3	0	3	0	6.0	0.0	6.0	0.0						1598.5119932000002	1603.6800376000006	1603.6800376000006	6.0	['6', 'return']	[2.8709931000003053, 3.4720502999998644]	5.16	5.11	2.0	20hz	low_pain	43.0			sub-pilot015	250	15	43	45.5	COM11	COM7	COM3	2023-11-07_10h01.32.116	001-EEG_SVR_Officel	2022.2.5	143.9806029326614		5.155999999999949	1_sub-pilot015_SVR_EEG_block3-4.protocol.csv	step47	6038	599.296	STIMULATE	42.9	42.9	42.9	43.1	43.2	47	1433.5259999999998
1427.564	0	713782	20/Lo	5	3	0	3	0	6.0	0.0	6.0	0.0						1598.5119932000002	1603.6800376000006	1603.6800376000006	6.0	['6', 'return']	[2.8709931000003053, 3.4720502999998644]	5.16	5.11	2.0	20hz	low_pain	43.0			sub-pilot015	250	15	43	45.5	COM11	COM7	COM3	2023-11-07_10h01.32.116	001-EEG_SVR_Officel	2022.2.5	143.9806029326614		5.110000000000127	1_sub-pilot015_SVR_EEG_block3-4.protocol.csv	step47	6038	599.296	STIMULATE	42.9	42.9	42.9	43.1	43.2	47	1433.5259999999998
1438.204	0	719102	wait	20	3	0	3	0	7.0	0.0	7.0	0.0						1620.1683233999995	1626.1205288000006	1626.1205288000006	8.5	['8', 'a', '5', 'return']	[2.8467256000003545, 3.366051100000732, 3.5358030000006693, 4.319199000000481]	5.94	5.44	3.0	10hz	high_pain	45.5			sub-pilot015	250	15	43	45.5	COM11	COM7	COM3	2023-11-07_10h01.32.116	001-EEG_SVR_Officel	2022.2.5	143.9806029326614		11.389999999999873	1_sub-pilot015_SVR_EEG_block3-4.protocol.csv	step49	6268	622.027	STIMULATE	45.5	45.4	45.4	45.5	45.8	49	1456.257
1444.144	0	722072	10hz	3	3	0	3	0	7.0	0.0	7.0	0.0						1620.1683233999995	1626.1205288000006	1626.1205288000006	8.5	['8', 'a', '5', 'return']	[2.8467256000003545, 3.366051100000732, 3.5358030000006693, 4.319199000000481]	5.94	5.44	3.0	10hz	high_pain	45.5			sub-pilot015	250	15	43	45.5	COM11	COM7	COM3	2023-11-07_10h01.32.116	001-EEG_SVR_Officel	2022.2.5	143.9806029326614		5.940000000000055	1_sub-pilot015_SVR_EEG_block3-4.protocol.csv	step49	6268	622.027	STIMULATE	45.5	45.4	45.4	45.5	45.8	49	1456.257
1450.336	0	725168	10/Hi	1	3	0	3	0	7.0	0.0	7.0	0.0						1620.1683233999995	1626.1205288000006	1626.1205288000006	8.5	['8', 'a', '5', 'return']	[2.8467256000003545, 3.366051100000732, 3.5358030000006693, 4.319199000000481]	5.94	5.44	3.0	10hz	high_pain	45.5			sub-pilot015	250	15	43	45.5	COM11	COM7	COM3	2023-11-07_10h01.32.116	001-EEG_SVR_Officel	2022.2.5	143.9806029326614		5.442000000000007	1_sub-pilot015_SVR_EEG_block3-4.protocol.csv	step49	6268	622.027	STIMULATE	45.5	45.4	45.4	45.5	45.8	49	1456.257
1461.49	0	730745	wait	20	3	0	3	0	8.0	0.0	8.0	0.0						1643.4557123	1650.9219010000002	1650.9219010000002	7.0	['7', 'return']	[4.780216099999961, 5.460195399999975]	7.46	5.69	0.0	10hz	low_pain	43.0			sub-pilot015	250	15	43	45.5	COM11	COM7	COM3	2023-11-07_10h01.32.116	001-EEG_SVR_Officel	2022.2.5	143.9806029326614		11.903999999999996	1_sub-pilot015_SVR_EEG_block3-4.protocol.csv	step51	6521	647.116	STIMULATE	43.1	42.9	42.9	42.9	43.1	51	1481.346
1468.946	0	734473	10hz	3	3	0	3	0	8.0	0.0	8.0	0.0						1643.4557123	1650.9219010000002	1650.9219010000002	7.0	['7', 'return']	[4.780216099999961, 5.460195399999975]	7.46	5.69	0.0	10hz	low_pain	43.0			sub-pilot015	250	15	43	45.5	COM11	COM7	COM3	2023-11-07_10h01.32.116	001-EEG_SVR_Officel	2022.2.5	143.9806029326614		7.455999999999904	1_sub-pilot015_SVR_EEG_block3-4.protocol.csv	step51	6521	647.116	STIMULATE	43.1	42.9	42.9	42.9	43.1	51	1481.346
1475.388	0	737694	10/Lo	2	3	0	3	0	8.0	0.0	8.0	0.0						1643.4557123	1650.9219010000002	1650.9219010000002	7.0	['7', 'return']	[4.780216099999961, 5.460195399999975]	7.46	5.69	0.0	10hz	low_pain	43.0			sub-pilot015	250	15	43	45.5	COM11	COM7	COM3	2023-11-07_10h01.32.116	001-EEG_SVR_Officel	2022.2.5	143.9806029326614		5.692000000000007	1_sub-pilot015_SVR_EEG_block3-4.protocol.csv	step51	6521	647.116	STIMULATE	43.1	42.9	42.9	42.9	43.1	51	1481.346
1487.44	0	743720	wait	20	3	0	3	0	9.0	0.0	9.0	0.0						1669.4039753000002	1676.4253717000006	1676.4253717000006	8.5	['8', 'a', '5', 'return']	[2.9019436999997197, 3.4782350000004953, 3.733576399999947, 4.901789000000463]	7.01	5.31	1.0	controle	high_pain	45.5			sub-pilot015	250	15	43	45.5	COM11	COM7	COM3	2023-11-07_10h01.32.116	001-EEG_SVR_Officel	2022.2.5	143.9806029326614		12.802000000000135	1_sub-pilot015_SVR_EEG_block3-4.protocol.csv	step53	6774	672.222	STIMULATE	45.6	45.4	45.4	45.6	45.7	53	1506.4519999999998
1494.45	0	747225	CNhz	12	3	0	3	0	9.0	0.0	9.0	0.0						1669.4039753000002	1676.4253717000006	1676.4253717000006	8.5	['8', 'a', '5', 'return']	[2.9019436999997197, 3.4782350000004953, 3.733576399999947, 4.901789000000463]	7.01	5.31	1.0	controle	high_pain	45.5			sub-pilot015	250	15	43	45.5	COM11	COM7	COM3	2023-11-07_10h01.32.116	001-EEG_SVR_Officel	2022.2.5	143.9806029326614		7.009999999999991	1_sub-pilot015_SVR_EEG_block3-4.protocol.csv	step53	6774	672.222	STIMULATE	45.6	45.4	45.4	45.6	45.7	53	1506.4519999999998
1500.51	0	750255	CN/Hi	10	3	0	3	0	9.0	0.0	9.0	0.0						1669.4039753000002	1676.4253717000006	1676.4253717000006	8.5	['8', 'a', '5', 'return']	[2.9019436999997197, 3.4782350000004953, 3.733576399999947, 4.901789000000463]	7.01	5.31	1.0	controle	high_pain	45.5			sub-pilot015	250	15	43	45.5	COM11	COM7	COM3	2023-11-07_10h01.32.116	001-EEG_SVR_Officel	2022.2.5	143.9806029326614		5.309999999999945	1_sub-pilot015_SVR_EEG_block3-4.protocol.csv	step53	6774	672.222	STIMULATE	45.6	45.4	45.4	45.6	45.7	53	1506.4519999999998
1512.38	0	756190	wait	20	3	0	3	0	10.0	0.0	10.0	0.0						1694.3437795000004	1700.7751508000006	1700.7751508000006	7.0	['7', 'return']	[3.0169230999999854, 3.480188999999882]	6.42	6.35	2.0	controle	low_pain	43.0			sub-pilot015	250	15	43	45.5	COM11	COM7	COM3	2023-11-07_10h01.32.116	001-EEG_SVR_Officel	2022.2.5	143.9806029326614		12.620000000000118	1_sub-pilot015_SVR_EEG_block3-4.protocol.csv	step55	7029	697.552	STIMULATE	42.9	42.9	42.9	43.1	43.1	55	1531.782
1518.798	0	759399	CNhz	12	3	0	3	0	10.0	0.0	10.0	0.0						1694.3437795000004	1700.7751508000006	1700.7751508000006	7.0	['7', 'return']	[3.0169230999999854, 3.480188999999882]	6.42	6.35	2.0	controle	low_pain	43.0			sub-pilot015	250	15	43	45.5	COM11	COM7	COM3	2023-11-07_10h01.32.116	001-EEG_SVR_Officel	2022.2.5	143.9806029326614		6.417999999999893	1_sub-pilot015_SVR_EEG_block3-4.protocol.csv	step55	7029	697.552	STIMULATE	42.9	42.9	42.9	43.1	43.1	55	1531.782
1525.9	0	762950	CN/Lo	11	3	0	3	0	10.0	0.0	10.0	0.0						1694.3437795000004	1700.7751508000006	1700.7751508000006	7.0	['7', 'return']	[3.0169230999999854, 3.480188999999882]	6.42	6.35	2.0	controle	low_pain	43.0			sub-pilot015	250	15	43	45.5	COM11	COM7	COM3	2023-11-07_10h01.32.116	001-EEG_SVR_Officel	2022.2.5	143.9806029326614		6.352000000000089	1_sub-pilot015_SVR_EEG_block3-4.protocol.csv	step55	7029	697.552	STIMULATE	42.9	42.9	42.9	43.1	43.1	55	1531.782
1535.312	0	767656	wait	20	3	0	3	0	11.0	0.0	11.0	0.0						1717.2771147999997	1723.9792758999995	1723.9792758999995	8.0	['8', 'return']	[3.9000044999993406, 4.187686199999916]	6.69	5.49	3.0	controle	high_pain	45.5			sub-pilot015	250	15	43	45.5	COM11	COM7	COM3	2023-11-07_10h01.32.116	001-EEG_SVR_Officel	2022.2.5	143.9806029326614		10.161999999999807	1_sub-pilot015_SVR_EEG_block3-4.protocol.csv	step57	7254	719.889	STIMULATE	45.5	45.4	45.4	45.4	45.7	57	1554.119
1542.002	0	771001	CNhz	12	3	0	3	0	11.0	0.0	11.0	0.0						1717.2771147999997	1723.9792758999995	1723.9792758999995	8.0	['8', 'return']	[3.9000044999993406, 4.187686199999916]	6.69	5.49	3.0	controle	high_pain	45.5			sub-pilot015	250	15	43	45.5	COM11	COM7	COM3	2023-11-07_10h01.32.116	001-EEG_SVR_Officel	2022.2.5	143.9806029326614		6.690000000000055	1_sub-pilot015_SVR_EEG_block3-4.protocol.csv	step57	7254	719.889	STIMULATE	45.5	45.4	45.4	45.4	45.7	57	1554.119
1548.244	0	774122	CN/Hi	10	3	0	3	0	11.0	0.0	11.0	0.0						1717.2771147999997	1723.9792758999995	1723.9792758999995	8.0	['8', 'return']	[3.9000044999993406, 4.187686199999916]	6.69	5.49	3.0	controle	high_pain	45.5			sub-pilot015	250	15	43	45.5	COM11	COM7	COM3	2023-11-07_10h01.32.116	001-EEG_SVR_Officel	2022.2.5	143.9806029326614		5.491999999999962	1_sub-pilot015_SVR_EEG_block3-4.protocol.csv	step57	7254	719.889	STIMULATE	45.5	45.4	45.4	45.4	45.7	57	1554.119
1559.218	0	779609	wait	20	3	0	3	0	12.0	0.0	12.0	0.0						1741.1831283000006	1748.6211177	1748.6211177	6.0	['6', 'return']	[4.130357799999729, 4.994596300000012]	7.43	6.45	0.0	40hz	low_pain	43.0			sub-pilot015	250	15	43	45.5	COM11	COM7	COM3	2023-11-07_10h01.32.116	001-EEG_SVR_Officel	2022.2.5	143.9806029326614		11.72400000000016	1_sub-pilot015_SVR_EEG_block3-4.protocol.csv	step59	7511	745.498	STIMULATE	43.0	42.9	42.9	42.9	43.1	59	1579.728
1566.644	0	783322	40hz	9	3	0	3	0	12.0	0.0	12.0	0.0						1741.1831283000006	1748.6211177	1748.6211177	6.0	['6', 'return']	[4.130357799999729, 4.994596300000012]	7.43	6.45	0.0	40hz	low_pain	43.0			sub-pilot015	250	15	43	45.5	COM11	COM7	COM3	2023-11-07_10h01.32.116	001-EEG_SVR_Officel	2022.2.5	143.9806029326614		7.425999999999931	1_sub-pilot015_SVR_EEG_block3-4.protocol.csv	step59	7511	745.498	STIMULATE	43.0	42.9	42.9	42.9	43.1	59	1579.728
1573.844	0	786922	40/Lo	8	3	0	3	0	12.0	0.0	12.0	0.0						1741.1831283000006	1748.6211177	1748.6211177	6.0	['6', 'return']	[4.130357799999729, 4.994596300000012]	7.43	6.45	0.0	40hz	low_pain	43.0			sub-pilot015	250	15	43	45.5	COM11	COM7	COM3	2023-11-07_10h01.32.116	001-EEG_SVR_Officel	2022.2.5	143.9806029326614		6.4500000000000455	1_sub-pilot015_SVR_EEG_block3-4.protocol.csv	step59	7511	745.498	STIMULATE	43.0	42.9	42.9	42.9	43.1	59	1579.728
1584.664	0	792332	wait	20	3	0	3	0	13.0	0.0	13.0	0.0						1766.6298245000005	1772.8450898000006	1772.8450898000006	8.0	['8', 'return']	[3.706659400000717, 4.106036700000004]	6.21	5.44	1.0	20hz	low_pain	43.0			sub-pilot015	250	15	43	45.5	COM11	COM7	COM3	2023-11-07_10h01.32.116	001-EEG_SVR_Officel	2022.2.5	143.9806029326614		11.569999999999936	1_sub-pilot015_SVR_EEG_block3-4.protocol.csv	step61	7746	768.787	STIMULATE	42.9	42.9	42.9	42.9	43.1	61	1603.0169999999998
1590.876	0	795438	20hz	6	3	0	3	0	13.0	0.0	13.0	0.0						1766.6298245000005	1772.8450898000006	1772.8450898000006	8.0	['8', 'return']	[3.706659400000717, 4.106036700000004]	6.21	5.44	1.0	20hz	low_pain	43.0			sub-pilot015	250	15	43	45.5	COM11	COM7	COM3	2023-11-07_10h01.32.116	001-EEG_SVR_Officel	2022.2.5	143.9806029326614		6.211999999999989	1_sub-pilot015_SVR_EEG_block3-4.protocol.csv	step61	7746	768.787	STIMULATE	42.9	42.9	42.9	42.9	43.1	61	1603.0169999999998
1597.064	0	798532	20/Lo	5	3	0	3	0	13.0	0.0	13.0	0.0						1766.6298245000005	1772.8450898000006	1772.8450898000006	8.0	['8', 'return']	[3.706659400000717, 4.106036700000004]	6.21	5.44	1.0	20hz	low_pain	43.0			sub-pilot015	250	15	43	45.5	COM11	COM7	COM3	2023-11-07_10h01.32.116	001-EEG_SVR_Officel	2022.2.5	143.9806029326614		5.438000000000102	1_sub-pilot015_SVR_EEG_block3-4.protocol.csv	step61	7746	768.787	STIMULATE	42.9	42.9	42.9	42.9	43.1	61	1603.0169999999998
1608.008	0	804004	wait	20	3	0	3	0	14.0	0.0	14.0	0.0						1789.9737590999998	1795.8497977000002	1795.8497977000002	9.0	['9', 'return']	[2.5732970999997633, 2.7656258000006346]	5.87	5.98	2.0	40hz	high_pain	45.5			sub-pilot015	250	15	43	45.5	COM11	COM7	COM3	2023-11-07_10h01.32.116	001-EEG_SVR_Officel	2022.2.5	143.9806029326614		11.69399999999996	1_sub-pilot015_SVR_EEG_block3-4.protocol.csv	step63	7980	792.301	STIMULATE	45.5	45.4	45.4	45.6	45.6	63	1626.531
1613.872	0	806936	40hz	9	3	0	3	0	14.0	0.0	14.0	0.0						1789.9737590999998	1795.8497977000002	1795.8497977000002	9.0	['9', 'return']	[2.5732970999997633, 2.7656258000006346]	5.87	5.98	2.0	40hz	high_pain	45.5			sub-pilot015	250	15	43	45.5	COM11	COM7	COM3	2023-11-07_10h01.32.116	001-EEG_SVR_Officel	2022.2.5	143.9806029326614		5.864000000000033	1_sub-pilot015_SVR_EEG_block3-4.protocol.csv	step63	7980	792.301	STIMULATE	45.5	45.4	45.4	45.6	45.6	63	1626.531
1620.608	0	810304	40/Hi	7	3	0	3	0	14.0	0.0	14.0	0.0						1789.9737590999998	1795.8497977000002	1795.8497977000002	9.0	['9', 'return']	[2.5732970999997633, 2.7656258000006346]	5.87	5.98	2.0	40hz	high_pain	45.5			sub-pilot015	250	15	43	45.5	COM11	COM7	COM3	2023-11-07_10h01.32.116	001-EEG_SVR_Officel	2022.2.5	143.9806029326614		5.985999999999876	1_sub-pilot015_SVR_EEG_block3-4.protocol.csv	step63	7980	792.301	STIMULATE	45.5	45.4	45.4	45.6	45.6	63	1626.531
1629.664	0	814832	wait	20	3	0	3	0	15.0	0.0	15.0	0.0						1811.6286817000005	1819.4283468	1819.4283468	5.0	['5', 'return']	[3.922187799999847, 4.395736499999657]	7.79	6.47	3.0	20hz	low_pain	43.0			sub-pilot015	250	15	43	45.5	COM11	COM7	COM3	2023-11-07_10h01.32.116	001-EEG_SVR_Officel	2022.2.5	143.9806029326614		9.80600000000004	1_sub-pilot015_SVR_EEG_block3-4.protocol.csv	step65	8213	816.356	STIMULATE	42.9	42.9	42.9	42.9	43.2	65	1650.5859999999998
1637.45	0	818725	20hz	6	3	0	3	0	15.0	0.0	15.0	0.0						1811.6286817000005	1819.4283468	1819.4283468	5.0	['5', 'return']	[3.922187799999847, 4.395736499999657]	7.79	6.47	3.0	20hz	low_pain	43.0			sub-pilot015	250	15	43	45.5	COM11	COM7	COM3	2023-11-07_10h01.32.116	001-EEG_SVR_Officel	2022.2.5	143.9806029326614		7.786000000000058	1_sub-pilot015_SVR_EEG_block3-4.protocol.csv	step65	8213	816.356	STIMULATE	42.9	42.9	42.9	42.9	43.2	65	1650.5859999999998
1644.672	0	822336	20/Lo	5	3	0	3	0	15.0	0.0	15.0	0.0						1811.6286817000005	1819.4283468	1819.4283468	5.0	['5', 'return']	[3.922187799999847, 4.395736499999657]	7.79	6.47	3.0	20hz	low_pain	43.0			sub-pilot015	250	15	43	45.5	COM11	COM7	COM3	2023-11-07_10h01.32.116	001-EEG_SVR_Officel	2022.2.5	143.9806029326614		6.47199999999998	1_sub-pilot015_SVR_EEG_block3-4.protocol.csv	step65	8213	816.356	STIMULATE	42.9	42.9	42.9	42.9	43.2	65	1650.5859999999998
1693.684	0	846842	wait	20	4	0	4	0	0.0	0.0	0.0	0.0				p	0.3453396000004431	1875.6496458000008	1881.2483353	1881.2483353	5.0	['5', 'return']	[3.302860500000861, 3.815923300000577]	5.59	6.44	0.0	20hz	low_pain	43.0			sub-pilot015	250	15	43	45.5	COM11	COM7	COM3	2023-11-07_10h01.32.116	001-EEG_SVR_Officel	2022.2.5	143.9806029326614		49.761999999999944	2_sub-pilot015_SVR_EEG_block5-6.protocol.csv	step3	437	43.524	STIMULATE	43.1	42.9	42.9	42.9	43.1	3	1712.283
1699.27	0	849635	20hz	6	4	0	4	0	0.0	0.0	0.0	0.0				p	0.3453396000004431	1875.6496458000008	1881.2483353	1881.2483353	5.0	['5', 'return']	[3.302860500000861, 3.815923300000577]	5.59	6.44	0.0	20hz	low_pain	43.0			sub-pilot015	250	15	43	45.5	COM11	COM7	COM3	2023-11-07_10h01.32.116	001-EEG_SVR_Officel	2022.2.5	143.9806029326614		5.586000000000013	2_sub-pilot015_SVR_EEG_block5-6.protocol.csv	step3	437	43.524	STIMULATE	43.1	42.9	42.9	42.9	43.1	3	1712.283
1706.464	0	853232	20/Lo	5	4	0	4	0	0.0	0.0	0.0	0.0				p	0.3453396000004431	1875.6496458000008	1881.2483353	1881.2483353	5.0	['5', 'return']	[3.302860500000861, 3.815923300000577]	5.59	6.44	0.0	20hz	low_pain	43.0			sub-pilot015	250	15	43	45.5	COM11	COM7	COM3	2023-11-07_10h01.32.116	001-EEG_SVR_Officel	2022.2.5	143.9806029326614		6.44399999999996	2_sub-pilot015_SVR_EEG_block5-6.protocol.csv	step3	437	43.524	STIMULATE	43.1	42.9	42.9	42.9	43.1	3	1712.283
1716.118	0	858059	wait	20	4	0	4	0	1.0	0.0	1.0	0.0						1898.0842467	1905.5643111000004	1905.5643111000004	6.0	['6', 'return']	[3.5867621999996118, 4.211896400000114]	7.47	5.92	1.0	10hz	low_pain	43.0			sub-pilot015	250	15	43	45.5	COM11	COM7	COM3	2023-11-07_10h01.32.116	001-EEG_SVR_Officel	2022.2.5	143.9806029326614		10.403999999999996	2_sub-pilot015_SVR_EEG_block5-6.protocol.csv	step5	677	67.33	STIMULATE	42.9	42.8	42.9	42.9	43.1	5	1736.089
1723.586	0	861793	10hz	3	4	0	4	0	1.0	0.0	1.0	0.0						1898.0842467	1905.5643111000004	1905.5643111000004	6.0	['6', 'return']	[3.5867621999996118, 4.211896400000114]	7.47	5.92	1.0	10hz	low_pain	43.0			sub-pilot015	250	15	43	45.5	COM11	COM7	COM3	2023-11-07_10h01.32.116	001-EEG_SVR_Officel	2022.2.5	143.9806029326614		7.468000000000075	2_sub-pilot015_SVR_EEG_block5-6.protocol.csv	step5	677	67.33	STIMULATE	42.9	42.8	42.9	42.9	43.1	5	1736.089
1730.258	0	865129	10/Lo	2	4	0	4	0	1.0	0.0	1.0	0.0						1898.0842467	1905.5643111000004	1905.5643111000004	6.0	['6', 'return']	[3.5867621999996118, 4.211896400000114]	7.47	5.92	1.0	10hz	low_pain	43.0			sub-pilot015	250	15	43	45.5	COM11	COM7	COM3	2023-11-07_10h01.32.116	001-EEG_SVR_Officel	2022.2.5	143.9806029326614		5.9220000000000255	2_sub-pilot015_SVR_EEG_block5-6.protocol.csv	step5	677	67.33	STIMULATE	42.9	42.8	42.9	42.9	43.1	5	1736.089
1740.83	0	870415	wait	20	4	0	4	0	2.0	0.0	2.0	0.0						1922.7953435000004	1928.7053886	1928.7053886	8.0	['8', 'return']	[2.734189100000549, 3.0143551000001025]	5.9	5.03	2.0	10hz	high_pain	45.5			sub-pilot015	250	15	43	45.5	COM11	COM7	COM3	2023-11-07_10h01.32.116	001-EEG_SVR_Officel	2022.2.5	143.9806029326614		11.321999999999889	2_sub-pilot015_SVR_EEG_block5-6.protocol.csv	step7	902	89.647	STIMULATE	45.6	45.4	45.4	45.5	45.7	7	1758.406
1746.728	0	873364	10hz	3	4	0	4	0	2.0	0.0	2.0	0.0						1922.7953435000004	1928.7053886	1928.7053886	8.0	['8', 'return']	[2.734189100000549, 3.0143551000001025]	5.9	5.03	2.0	10hz	high_pain	45.5			sub-pilot015	250	15	43	45.5	COM11	COM7	COM3	2023-11-07_10h01.32.116	001-EEG_SVR_Officel	2022.2.5	143.9806029326614		5.898000000000138	2_sub-pilot015_SVR_EEG_block5-6.protocol.csv	step7	902	89.647	STIMULATE	45.6	45.4	45.4	45.5	45.7	7	1758.406
1752.51	0	876255	10/Hi	1	4	0	4	0	2.0	0.0	2.0	0.0						1922.7953435000004	1928.7053886	1928.7053886	8.0	['8', 'return']	[2.734189100000549, 3.0143551000001025]	5.9	5.03	2.0	10hz	high_pain	45.5			sub-pilot015	250	15	43	45.5	COM11	COM7	COM3	2023-11-07_10h01.32.116	001-EEG_SVR_Officel	2022.2.5	143.9806029326614		5.031999999999925	2_sub-pilot015_SVR_EEG_block5-6.protocol.csv	step7	902	89.647	STIMULATE	45.6	45.4	45.4	45.5	45.7	7	1758.406
1762.77	0	881385	wait	20	4	0	4	0	3.0	0.0	3.0	0.0						1944.7351156	1951.7150672	1951.7150672	7.0	['7', 'return']	[3.0281011999995826, 3.5161010000001625]	6.97	5.26	3.0	10hz	low_pain	43.0			sub-pilot015	250	15	43	45.5	COM11	COM7	COM3	2023-11-07_10h01.32.116	001-EEG_SVR_Officel	2022.2.5	143.9806029326614		11.009999999999991	2_sub-pilot015_SVR_EEG_block5-6.protocol.csv	step9	1136	112.809	STIMULATE	42.9	42.9	42.9	42.9	43.1	9	1781.568
1769.736	0	884868	10hz	3	4	0	4	0	3.0	0.0	3.0	0.0						1944.7351156	1951.7150672	1951.7150672	7.0	['7', 'return']	[3.0281011999995826, 3.5161010000001625]	6.97	5.26	3.0	10hz	low_pain	43.0			sub-pilot015	250	15	43	45.5	COM11	COM7	COM3	2023-11-07_10h01.32.116	001-EEG_SVR_Officel	2022.2.5	143.9806029326614		6.966000000000122	2_sub-pilot015_SVR_EEG_block5-6.protocol.csv	step9	1136	112.809	STIMULATE	42.9	42.9	42.9	42.9	43.1	9	1781.568
1775.748	0	887874	10/Lo	2	4	0	4	0	3.0	0.0	3.0	0.0						1944.7351156	1951.7150672	1951.7150672	7.0	['7', 'return']	[3.0281011999995826, 3.5161010000001625]	6.97	5.26	3.0	10hz	low_pain	43.0			sub-pilot015	250	15	43	45.5	COM11	COM7	COM3	2023-11-07_10h01.32.116	001-EEG_SVR_Officel	2022.2.5	143.9806029326614		5.261999999999944	2_sub-pilot015_SVR_EEG_block5-6.protocol.csv	step9	1136	112.809	STIMULATE	42.9	42.9	42.9	42.9	43.1	9	1781.568
1786.286	0	893143	wait	20	4	0	4	0	4.0	0.0	4.0	0.0						1968.2518709	1974.4539950000003	1974.4539950000003	9.0	['9', 'return']	[2.6245129999997516, 4.137408999999934]	6.19	6.36	0.0	controle	high_pain	45.5			sub-pilot015	250	15	43	45.5	COM11	COM7	COM3	2023-11-07_10h01.32.116	001-EEG_SVR_Officel	2022.2.5	143.9806029326614		11.288000000000011	2_sub-pilot015_SVR_EEG_block5-6.protocol.csv	step11	1377	136.724	STIMULATE	45.7	45.4	45.4	45.5	45.7	11	1805.483
1792.476	0	896238	CNhz	12	4	0	4	0	4.0	0.0	4.0	0.0						1968.2518709	1974.4539950000003	1974.4539950000003	9.0	['9', 'return']	[2.6245129999997516, 4.137408999999934]	6.19	6.36	0.0	controle	high_pain	45.5			sub-pilot015	250	15	43	45.5	COM11	COM7	COM3	2023-11-07_10h01.32.116	001-EEG_SVR_Officel	2022.2.5	143.9806029326614		6.190000000000055	2_sub-pilot015_SVR_EEG_block5-6.protocol.csv	step11	1377	136.724	STIMULATE	45.7	45.4	45.4	45.5	45.7	11	1805.483
1799.586	0	899793	CN/Hi	10	4	0	4	0	4.0	0.0	4.0	0.0						1968.2518709	1974.4539950000003	1974.4539950000003	9.0	['9', 'return']	[2.6245129999997516, 4.137408999999934]	6.19	6.36	0.0	controle	high_pain	45.5			sub-pilot015	250	15	43	45.5	COM11	COM7	COM3	2023-11-07_10h01.32.116	001-EEG_SVR_Officel	2022.2.5	143.9806029326614		6.3599999999999	2_sub-pilot015_SVR_EEG_block5-6.protocol.csv	step11	1377	136.724	STIMULATE	45.7	45.4	45.4	45.5	45.7	11	1805.483
1809.636	0	904818	wait	20	4	0	4	0	5.0	0.0	5.0	0.0						1991.6021973	1997.1581582000003	1997.1581582000003	7.0	['7', 'return']	[2.4564086000000316, 3.032591400000456]	5.55	5.7	1.0	40hz	low_pain	43.0			sub-pilot015	250	15	43	45.5	COM11	COM7	COM3	2023-11-07_10h01.32.116	001-EEG_SVR_Officel	2022.2.5	143.9806029326614		10.799999999999955	2_sub-pilot015_SVR_EEG_block5-6.protocol.csv	step13	1600	158.801	STIMULATE	43.0	42.9	42.9	42.9	43.2	13	1827.56
1815.18	0	907590	40hz	9	4	0	4	0	5.0	0.0	5.0	0.0						1991.6021973	1997.1581582000003	1997.1581582000003	7.0	['7', 'return']	[2.4564086000000316, 3.032591400000456]	5.55	5.7	1.0	40hz	low_pain	43.0			sub-pilot015	250	15	43	45.5	COM11	COM7	COM3	2023-11-07_10h01.32.116	001-EEG_SVR_Officel	2022.2.5	143.9806029326614		5.544000000000096	2_sub-pilot015_SVR_EEG_block5-6.protocol.csv	step13	1600	158.801	STIMULATE	43.0	42.9	42.9	42.9	43.2	13	1827.56
1821.63	0	910815	40/Lo	8	4	0	4	0	5.0	0.0	5.0	0.0						1991.6021973	1997.1581582000003	1997.1581582000003	7.0	['7', 'return']	[2.4564086000000316, 3.032591400000456]	5.55	5.7	1.0	40hz	low_pain	43.0			sub-pilot015	250	15	43	45.5	COM11	COM7	COM3	2023-11-07_10h01.32.116	001-EEG_SVR_Officel	2022.2.5	143.9806029326614		5.7000000000000455	2_sub-pilot015_SVR_EEG_block5-6.protocol.csv	step13	1600	158.801	STIMULATE	43.0	42.9	42.9	42.9	43.2	13	1827.56
1831.242	0	915621	wait	20	4	0	4	0	6.0	0.0	6.0	0.0						2013.2085926000004	2018.8693354	2018.8693354	7.0	['7', 'return']	[5.384953799999494, 6.051346100000046]	5.65	6.34	2.0	40hz	low_pain	43.0			sub-pilot015	250	15	43	45.5	COM11	COM7	COM3	2023-11-07_10h01.32.116	001-EEG_SVR_Officel	2022.2.5	143.9806029326614		10.361999999999853	2_sub-pilot015_SVR_EEG_block5-6.protocol.csv	step15	1824	181.051	STIMULATE	42.9	42.9	42.9	42.9	43.1	15	1849.81
1836.89	0	918445	40hz	9	4	0	4	0	6.0	0.0	6.0	0.0						2013.2085926000004	2018.8693354	2018.8693354	7.0	['7', 'return']	[5.384953799999494, 6.051346100000046]	5.65	6.34	2.0	40hz	low_pain	43.0			sub-pilot015	250	15	43	45.5	COM11	COM7	COM3	2023-11-07_10h01.32.116	001-EEG_SVR_Officel	2022.2.5	143.9806029326614		5.648000000000138	2_sub-pilot015_SVR_EEG_block5-6.protocol.csv	step15	1824	181.051	STIMULATE	42.9	42.9	42.9	42.9	43.1	15	1849.81
1843.98	0	921990	40/Lo	8	4	0	4	0	6.0	0.0	6.0	0.0						2013.2085926000004	2018.8693354	2018.8693354	7.0	['7', 'return']	[5.384953799999494, 6.051346100000046]	5.65	6.34	2.0	40hz	low_pain	43.0			sub-pilot015	250	15	43	45.5	COM11	COM7	COM3	2023-11-07_10h01.32.116	001-EEG_SVR_Officel	2022.2.5	143.9806029326614		6.339999999999918	2_sub-pilot015_SVR_EEG_block5-6.protocol.csv	step15	1824	181.051	STIMULATE	42.9	42.9	42.9	42.9	43.1	15	1849.81
1855.974	0	927987	wait	20	4	0	4	0	7.0	0.0	7.0	0.0						2037.9414755000005	2045.3312211	2045.3312211	9.0	['9', 'return']	[3.7723813000002338, 4.709044000000176]	7.38	6.14	3.0	controle	high_pain	45.5			sub-pilot015	250	15	43	45.5	COM11	COM7	COM3	2023-11-07_10h01.32.116	001-EEG_SVR_Officel	2022.2.5	143.9806029326614		12.743999999999915	2_sub-pilot015_SVR_EEG_block5-6.protocol.csv	step17	2089	207.371	STIMULATE	45.5	45.4	45.4	45.4	45.7	17	1876.1299999999999
1863.354	0	931677	CNhz	12	4	0	4	0	7.0	0.0	7.0	0.0						2037.9414755000005	2045.3312211	2045.3312211	9.0	['9', 'return']	[3.7723813000002338, 4.709044000000176]	7.38	6.14	3.0	controle	high_pain	45.5			sub-pilot015	250	15	43	45.5	COM11	COM7	COM3	2023-11-07_10h01.32.116	001-EEG_SVR_Officel	2022.2.5	143.9806029326614		7.380000000000109	2_sub-pilot015_SVR_EEG_block5-6.protocol.csv	step17	2089	207.371	STIMULATE	45.5	45.4	45.4	45.4	45.7	17	1876.1299999999999
1870.246	0	935123	CN/Hi	10	4	0	4	0	7.0	0.0	7.0	0.0						2037.9414755000005	2045.3312211	2045.3312211	9.0	['9', 'return']	[3.7723813000002338, 4.709044000000176]	7.38	6.14	3.0	controle	high_pain	45.5			sub-pilot015	250	15	43	45.5	COM11	COM7	COM3	2023-11-07_10h01.32.116	001-EEG_SVR_Officel	2022.2.5	143.9806029326614		6.142000000000053	2_sub-pilot015_SVR_EEG_block5-6.protocol.csv	step17	2089	207.371	STIMULATE	45.5	45.4	45.4	45.4	45.7	17	1876.1299999999999
