onset	duration	sample	trial_type	value	block.thisRepN	block.thisTrialN	block.thisN	block.thisIndex	reps.thisRepN	reps.thisTrialN	reps.thisN	reps.thisIndex	afrec_start	rec_start	key_resp.keys	key_resp.rt	wait_time_text.started	wait_time_text.stopped	therm_loca_text.started	subResponse	keyResp.keys	keyResp.rt	ITI_wait	wait_trigger	loca_thermode	Hz_condition	temp_condition	temp_valeur	therm_loca_text.stopped	text.started	text.stopped	participant	brightness	num_part	low	high	com_svr	com_thermode	com_eeg	date	expName	psychopyVersion	frameRate	Unnamed: 39	distance_from_previous	file	step	index	time	type	temp1	temp2	temp3	temp4	temp5	step_num	time_sync
24.477	0	24477	wait	10004	0	0	0	0	0.0	0.0	0.0	0.0	98.83470590005165	98.75248720002128	p	24.352166299999222	123.21880630002124	129.06880190002266	129.06880190002266	4.0	['4', 'return']	[4.310965600016061, 4.958598500001244]	5.85	6.46	0.0	controle	low_pain	48.4				sub-048	250	48	48.4	49.5	COM5	COM15	COM3	2024-11-05_15h02.31.124	001-EEG_SVR_Officel	2022.2.5	59.93576085079241		24.477	0_sub-pilot048_SVR_EEG_block1-2.protocol.csv	step3	1508	150.649	STIMULATE	48.6	48.3	48.3	48.4	48.5	3	43.41000000000001
30.311	0	30311	CNhz	10003	0	0	0	0	0.0	0.0	0.0	0.0	98.83470590005165	98.75248720002128	p	24.352166299999222	123.21880630002124	129.06880190002266	129.06880190002266	4.0	['4', 'return']	[4.310965600016061, 4.958598500001244]	5.85	6.46	0.0	controle	low_pain	48.4				sub-048	250	48	48.4	49.5	COM5	COM15	COM3	2024-11-05_15h02.31.124	001-EEG_SVR_Officel	2022.2.5	59.93576085079241		5.834	0_sub-pilot048_SVR_EEG_block1-2.protocol.csv	step3	1508	150.649	STIMULATE	48.6	48.3	48.3	48.4	48.5	3	43.41000000000001
37.527	0	37527	CN/Lo	10001	0	0	0	0	0.0	0.0	0.0	0.0	98.83470590005165	98.75248720002128	p	24.352166299999222	123.21880630002124	129.06880190002266	129.06880190002266	4.0	['4', 'return']	[4.310965600016061, 4.958598500001244]	5.85	6.46	0.0	controle	low_pain	48.4				sub-048	250	48	48.4	49.5	COM5	COM15	COM3	2024-11-05_15h02.31.124	001-EEG_SVR_Officel	2022.2.5	59.93576085079241		6.466000000000001	0_sub-pilot048_SVR_EEG_block1-2.protocol.csv	step3	1508	150.649	STIMULATE	48.6	48.3	48.3	48.4	48.5	3	43.41000000000001
48.325	0	48325	wait	10004	0	0	0	0	1.0	0.0	1.0	0.0					147.06591689999914	152.2000420000404	152.2000420000404	3.5	['3', 'a', '5', 'return']	[4.3627432999783196, 4.611261199985165, 5.123105900012888, 10.883085599984042]	5.13	6.29	1.0	40hz	high_pain	49.5	165.20007840002654			sub-048	250	48	48.4	49.5	COM5	COM15	COM3	2024-11-05_15h02.31.124	001-EEG_SVR_Officel	2022.2.5	59.93576085079241		11.548000000000002	0_sub-pilot048_SVR_EEG_block1-2.protocol.csv	step5	1740	173.647	STIMULATE	49.6	49.5	49.5	49.5	49.7	5	66.408
53.444	0	53444	40hz	10003	0	0	0	0	1.0	0.0	1.0	0.0					147.06591689999914	152.2000420000404	152.2000420000404	3.5	['3', 'a', '5', 'return']	[4.3627432999783196, 4.611261199985165, 5.123105900012888, 10.883085599984042]	5.13	6.29	1.0	40hz	high_pain	49.5	165.20007840002654			sub-048	250	48	48.4	49.5	COM5	COM15	COM3	2024-11-05_15h02.31.124	001-EEG_SVR_Officel	2022.2.5	59.93576085079241		5.119	0_sub-pilot048_SVR_EEG_block1-2.protocol.csv	step5	1740	173.647	STIMULATE	49.6	49.5	49.5	49.5	49.7	5	66.408
60.492	0	60492	40/Hi	10001	0	0	0	0	1.0	0.0	1.0	0.0					147.06591689999914	152.2000420000404	152.2000420000404	3.5	['3', 'a', '5', 'return']	[4.3627432999783196, 4.611261199985165, 5.123105900012888, 10.883085599984042]	5.13	6.29	1.0	40hz	high_pain	49.5	165.20007840002654			sub-048	250	48	48.4	49.5	COM5	COM15	COM3	2024-11-05_15h02.31.124	001-EEG_SVR_Officel	2022.2.5	59.93576085079241		6.297999999999995	0_sub-pilot048_SVR_EEG_block1-2.protocol.csv	step5	1740	173.647	STIMULATE	49.6	49.5	49.5	49.5	49.7	5	66.408
77.392	0	77392	wait	10004	0	0	0	0	2.0	0.0	2.0	0.0					176.1330821000156	183.46651350002503	183.46651350002503	4.0	['4', 'return']	[3.784674599999562, 4.609033300017472]	7.33	6.34	2.0	10hz	high_pain	49.5	196.4663715000497			sub-048	250	48	48.4	49.5	COM5	COM15	COM3	2024-11-05_15h02.31.124	001-EEG_SVR_Officel	2022.2.5	59.93576085079241		17.65	0_sub-pilot048_SVR_EEG_block1-2.protocol.csv	step7	2055	204.911	STIMULATE	49.5	49.5	49.5	49.5	49.6	7	97.67200000000001
84.709	0	84709	10hz	10003	0	0	0	0	2.0	0.0	2.0	0.0					176.1330821000156	183.46651350002503	183.46651350002503	4.0	['4', 'return']	[3.784674599999562, 4.609033300017472]	7.33	6.34	2.0	10hz	high_pain	49.5	196.4663715000497			sub-048	250	48	48.4	49.5	COM5	COM15	COM3	2024-11-05_15h02.31.124	001-EEG_SVR_Officel	2022.2.5	59.93576085079241		7.317000000000007	0_sub-pilot048_SVR_EEG_block1-2.protocol.csv	step7	2055	204.911	STIMULATE	49.5	49.5	49.5	49.5	49.6	7	97.67200000000001
91.824	0	91824	10/Hi	10001	0	0	0	0	2.0	0.0	2.0	0.0					176.1330821000156	183.46651350002503	183.46651350002503	4.0	['4', 'return']	[3.784674599999562, 4.609033300017472]	7.33	6.34	2.0	10hz	high_pain	49.5	196.4663715000497			sub-048	250	48	48.4	49.5	COM5	COM15	COM3	2024-11-05_15h02.31.124	001-EEG_SVR_Officel	2022.2.5	59.93576085079241		6.364999999999995	0_sub-pilot048_SVR_EEG_block1-2.protocol.csv	step7	2055	204.911	STIMULATE	49.5	49.5	49.5	49.5	49.6	7	97.67200000000001
102.372	0	102372	wait	10004	0	0	0	0	3.0	0.0	3.0	0.0					201.11361980001675	207.5332366000512	207.5332366000512	3.5	['3', 'a', '5', 'return']	[1.7508415000047535, 2.006663399981335, 2.3349564999807626, 3.7181696000043303]	6.42	5.15	3.0	40hz	low_pain	48.4	220.53285030002007			sub-048	250	48	48.4	49.5	COM5	COM15	COM3	2024-11-05_15h02.31.124	001-EEG_SVR_Officel	2022.2.5	59.93576085079241		11.298000000000002	0_sub-pilot048_SVR_EEG_block1-2.protocol.csv	step9	2285	227.719	STIMULATE	48.4	48.4	48.4	48.4	48.4	9	120.48
108.781	0	108781	40hz	10003	0	0	0	0	3.0	0.0	3.0	0.0					201.11361980001675	207.5332366000512	207.5332366000512	3.5	['3', 'a', '5', 'return']	[1.7508415000047535, 2.006663399981335, 2.3349564999807626, 3.7181696000043303]	6.42	5.15	3.0	40hz	low_pain	48.4	220.53285030002007			sub-048	250	48	48.4	49.5	COM5	COM15	COM3	2024-11-05_15h02.31.124	001-EEG_SVR_Officel	2022.2.5	59.93576085079241		6.409000000000006	0_sub-pilot048_SVR_EEG_block1-2.protocol.csv	step9	2285	227.719	STIMULATE	48.4	48.4	48.4	48.4	48.4	9	120.48
114.692	0	114692	40/Lo	10001	0	0	0	0	3.0	0.0	3.0	0.0					201.11361980001675	207.5332366000512	207.5332366000512	3.5	['3', 'a', '5', 'return']	[1.7508415000047535, 2.006663399981335, 2.3349564999807626, 3.7181696000043303]	6.42	5.15	3.0	40hz	low_pain	48.4	220.53285030002007			sub-048	250	48	48.4	49.5	COM5	COM15	COM3	2024-11-05_15h02.31.124	001-EEG_SVR_Officel	2022.2.5	59.93576085079241		5.160999999999987	0_sub-pilot048_SVR_EEG_block1-2.protocol.csv	step9	2285	227.719	STIMULATE	48.4	48.4	48.4	48.4	48.4	9	120.48
125.558	0	125558	wait	10004	0	0	0	0	4.0	0.0	4.0	0.0					224.2996364000137	230.09933940001065	230.09933940001065	4.5	['4', 'a', '5', 'return']	[2.1120890000020154, 2.6557413999689743, 2.86307639995357, 4.04772370000137]	5.8	5.11	0.0	controle	high_pain	49.5	243.0997314000269			sub-048	250	48	48.4	49.5	COM5	COM15	COM3	2024-11-05_15h02.31.124	001-EEG_SVR_Officel	2022.2.5	59.93576085079241		11.616000000000014	0_sub-pilot048_SVR_EEG_block1-2.protocol.csv	step11	2513	250.336	STIMULATE	49.6	49.4	49.5	49.5	49.8	11	143.09700000000004
131.342	0	131342	CNhz	10003	0	0	0	0	4.0	0.0	4.0	0.0					224.2996364000137	230.09933940001065	230.09933940001065	4.5	['4', 'a', '5', 'return']	[2.1120890000020154, 2.6557413999689743, 2.86307639995357, 4.04772370000137]	5.8	5.11	0.0	controle	high_pain	49.5	243.0997314000269			sub-048	250	48	48.4	49.5	COM5	COM15	COM3	2024-11-05_15h02.31.124	001-EEG_SVR_Officel	2022.2.5	59.93576085079241		5.784000000000006	0_sub-pilot048_SVR_EEG_block1-2.protocol.csv	step11	2513	250.336	STIMULATE	49.6	49.4	49.5	49.5	49.8	11	143.09700000000004
137.208	0	137208	CN/Hi	10001	0	0	0	0	4.0	0.0	4.0	0.0					224.2996364000137	230.09933940001065	230.09933940001065	4.5	['4', 'a', '5', 'return']	[2.1120890000020154, 2.6557413999689743, 2.86307639995357, 4.04772370000137]	5.8	5.11	0.0	controle	high_pain	49.5	243.0997314000269			sub-048	250	48	48.4	49.5	COM5	COM15	COM3	2024-11-05_15h02.31.124	001-EEG_SVR_Officel	2022.2.5	59.93576085079241		5.1159999999999854	0_sub-pilot048_SVR_EEG_block1-2.protocol.csv	step11	2513	250.336	STIMULATE	49.6	49.4	49.5	49.5	49.8	11	143.09700000000004
148.441	0	148441	wait	10004	0	0	0	0	5.0	0.0	5.0	0.0					247.18272370001068	254.43234320002372	254.43234320002372	4.0	['4', 'return']	[3.0117607999709435, 3.66737069998635]	7.25	5.79	1.0	controle	low_pain	48.4	267.4317110000411			sub-048	250	48	48.4	49.5	COM5	COM15	COM3	2024-11-05_15h02.31.124	001-EEG_SVR_Officel	2022.2.5	59.93576085079241		11.983000000000004	0_sub-pilot048_SVR_EEG_block1-2.protocol.csv	step13	2765	275.375	STIMULATE	48.4	48.4	48.4	48.4	48.5	13	168.13600000000002
155.675	0	155675	CNhz	10003	0	0	0	0	5.0	0.0	5.0	0.0					247.18272370001068	254.43234320002372	254.43234320002372	4.0	['4', 'return']	[3.0117607999709435, 3.66737069998635]	7.25	5.79	1.0	controle	low_pain	48.4	267.4317110000411			sub-048	250	48	48.4	49.5	COM5	COM15	COM3	2024-11-05_15h02.31.124	001-EEG_SVR_Officel	2022.2.5	59.93576085079241		7.234000000000009	0_sub-pilot048_SVR_EEG_block1-2.protocol.csv	step13	2765	275.375	STIMULATE	48.4	48.4	48.4	48.4	48.5	13	168.13600000000002
162.225	0	162225	CN/Lo	10001	0	0	0	0	5.0	0.0	5.0	0.0					247.18272370001068	254.43234320002372	254.43234320002372	4.0	['4', 'return']	[3.0117607999709435, 3.66737069998635]	7.25	5.79	1.0	controle	low_pain	48.4	267.4317110000411			sub-048	250	48	48.4	49.5	COM5	COM15	COM3	2024-11-05_15h02.31.124	001-EEG_SVR_Officel	2022.2.5	59.93576085079241		5.799999999999983	0_sub-pilot048_SVR_EEG_block1-2.protocol.csv	step13	2765	275.375	STIMULATE	48.4	48.4	48.4	48.4	48.5	13	168.13600000000002
172.391	0	172391	wait	10004	0	0	0	0	6.0	0.0	6.0	0.0					271.1322262000176	276.4988124000374	276.4988124000374	5.0	['5', 'return']	[1.9441510000033304, 2.640159600006882]	5.36	5.84	2.0	40hz	high_pain	49.5	289.49886330001755			sub-048	250	48	48.4	49.5	COM5	COM15	COM3	2024-11-05_15h02.31.124	001-EEG_SVR_Officel	2022.2.5	59.93576085079241		10.915999999999997	0_sub-pilot048_SVR_EEG_block1-2.protocol.csv	step15	2988	297.472	STIMULATE	49.5	49.5	49.5	49.5	49.7	15	190.233
177.741	0	177741	40hz	10003	0	0	0	0	6.0	0.0	6.0	0.0					271.1322262000176	276.4988124000374	276.4988124000374	5.0	['5', 'return']	[1.9441510000033304, 2.640159600006882]	5.36	5.84	2.0	40hz	high_pain	49.5	289.49886330001755			sub-048	250	48	48.4	49.5	COM5	COM15	COM3	2024-11-05_15h02.31.124	001-EEG_SVR_Officel	2022.2.5	59.93576085079241		5.350000000000023	0_sub-pilot048_SVR_EEG_block1-2.protocol.csv	step15	2988	297.472	STIMULATE	49.5	49.5	49.5	49.5	49.7	15	190.233
184.341	0	184341	40/Hi	10001	0	0	0	0	6.0	0.0	6.0	0.0					271.1322262000176	276.4988124000374	276.4988124000374	5.0	['5', 'return']	[1.9441510000033304, 2.640159600006882]	5.36	5.84	2.0	40hz	high_pain	49.5	289.49886330001755			sub-048	250	48	48.4	49.5	COM5	COM15	COM3	2024-11-05_15h02.31.124	001-EEG_SVR_Officel	2022.2.5	59.93576085079241		5.849999999999994	0_sub-pilot048_SVR_EEG_block1-2.protocol.csv	step15	2988	297.472	STIMULATE	49.5	49.5	49.5	49.5	49.7	15	190.233
193.44	0	193440	wait	10004	0	0	0	0	7.0	0.0	7.0	0.0					292.1820068000234	299.34896630002186	299.34896630002186	4.0	['4', 'return']	[1.806533999973908, 2.5266466999892145]	7.16	5.54	3.0	controle	low_pain	48.4	312.3490805000183			sub-048	250	48	48.4	49.5	COM5	COM15	COM3	2024-11-05_15h02.31.124	001-EEG_SVR_Officel	2022.2.5	59.93576085079241		9.84899999999999	0_sub-pilot048_SVR_EEG_block1-2.protocol.csv	step17	3216	320.059	STIMULATE	48.4	48.4	48.4	48.4	48.4	17	212.82000000000005
200.592	0	200592	CNhz	10003	0	0	0	0	7.0	0.0	7.0	0.0					292.1820068000234	299.34896630002186	299.34896630002186	4.0	['4', 'return']	[1.806533999973908, 2.5266466999892145]	7.16	5.54	3.0	controle	low_pain	48.4	312.3490805000183			sub-048	250	48	48.4	49.5	COM5	COM15	COM3	2024-11-05_15h02.31.124	001-EEG_SVR_Officel	2022.2.5	59.93576085079241		7.152000000000015	0_sub-pilot048_SVR_EEG_block1-2.protocol.csv	step17	3216	320.059	STIMULATE	48.4	48.4	48.4	48.4	48.4	17	212.82000000000005
206.891	0	206891	CN/Lo	10001	0	0	0	0	7.0	0.0	7.0	0.0					292.1820068000234	299.34896630002186	299.34896630002186	4.0	['4', 'return']	[1.806533999973908, 2.5266466999892145]	7.16	5.54	3.0	controle	low_pain	48.4	312.3490805000183			sub-048	250	48	48.4	49.5	COM5	COM15	COM3	2024-11-05_15h02.31.124	001-EEG_SVR_Officel	2022.2.5	59.93576085079241		5.548999999999978	0_sub-pilot048_SVR_EEG_block1-2.protocol.csv	step17	3216	320.059	STIMULATE	48.4	48.4	48.4	48.4	48.4	17	212.82000000000005
216.173	0	216173	wait	10004	0	0	0	0	8.0	0.0	8.0	0.0					314.9150545000448	322.6985287000425	322.6985287000425	4.5	['4', 'a', '5', 'return']	[1.5687527999980375, 2.0005002000252716, 2.4416302000172436, 3.6564824000233784]	7.77	6.01	0.0	40hz	high_pain	49.5	335.6987686000066			sub-048	250	48	48.4	49.5	COM5	COM15	COM3	2024-11-05_15h02.31.124	001-EEG_SVR_Officel	2022.2.5	59.93576085079241		10.03200000000001	0_sub-pilot048_SVR_EEG_block1-2.protocol.csv	step19	3456	343.861	STIMULATE	49.5	49.5	49.5	49.5	49.7	19	236.622
223.943	0	223943	40hz	10003	0	0	0	0	8.0	0.0	8.0	0.0					314.9150545000448	322.6985287000425	322.6985287000425	4.5	['4', 'a', '5', 'return']	[1.5687527999980375, 2.0005002000252716, 2.4416302000172436, 3.6564824000233784]	7.77	6.01	0.0	40hz	high_pain	49.5	335.6987686000066			sub-048	250	48	48.4	49.5	COM5	COM15	COM3	2024-11-05_15h02.31.124	001-EEG_SVR_Officel	2022.2.5	59.93576085079241		7.77000000000001	0_sub-pilot048_SVR_EEG_block1-2.protocol.csv	step19	3456	343.861	STIMULATE	49.5	49.5	49.5	49.5	49.7	19	236.622
230.707	0	230707	40/Hi	10001	0	0	0	0	8.0	0.0	8.0	0.0					314.9150545000448	322.6985287000425	322.6985287000425	4.5	['4', 'a', '5', 'return']	[1.5687527999980375, 2.0005002000252716, 2.4416302000172436, 3.6564824000233784]	7.77	6.01	0.0	40hz	high_pain	49.5	335.6987686000066			sub-048	250	48	48.4	49.5	COM5	COM15	COM3	2024-11-05_15h02.31.124	001-EEG_SVR_Officel	2022.2.5	59.93576085079241		6.013999999999982	0_sub-pilot048_SVR_EEG_block1-2.protocol.csv	step19	3456	343.861	STIMULATE	49.5	49.5	49.5	49.5	49.7	19	236.622
240.657	0	240657	wait	10004	0	0	0	0	9.0	0.0	9.0	0.0					339.39873780001653	346.7651771000237	346.7651771000237	2.5	['2', 'a', '5', 'return']	[2.278941399999894, 2.526068100007251, 2.853959499974735, 3.6302557999733835]	7.36	6.45	1.0	10hz	low_pain	48.4	359.76545180001995			sub-048	250	48	48.4	49.5	COM5	COM15	COM3	2024-11-05_15h02.31.124	001-EEG_SVR_Officel	2022.2.5	59.93576085079241		10.700000000000017	0_sub-pilot048_SVR_EEG_block1-2.protocol.csv	step21	3703	368.348	STIMULATE	48.4	48.4	48.4	48.4	48.7	21	261.10900000000004
248.008	0	248008	10hz	10003	0	0	0	0	9.0	0.0	9.0	0.0					339.39873780001653	346.7651771000237	346.7651771000237	2.5	['2', 'a', '5', 'return']	[2.278941399999894, 2.526068100007251, 2.853959499974735, 3.6302557999733835]	7.36	6.45	1.0	10hz	low_pain	48.4	359.76545180001995			sub-048	250	48	48.4	49.5	COM5	COM15	COM3	2024-11-05_15h02.31.124	001-EEG_SVR_Officel	2022.2.5	59.93576085079241		7.350999999999999	0_sub-pilot048_SVR_EEG_block1-2.protocol.csv	step21	3703	368.348	STIMULATE	48.4	48.4	48.4	48.4	48.7	21	261.10900000000004
255.224	0	255224	10/Lo	10001	0	0	0	0	9.0	0.0	9.0	0.0					339.39873780001653	346.7651771000237	346.7651771000237	2.5	['2', 'a', '5', 'return']	[2.278941399999894, 2.526068100007251, 2.853959499974735, 3.6302557999733835]	7.36	6.45	1.0	10hz	low_pain	48.4	359.76545180001995			sub-048	250	48	48.4	49.5	COM5	COM15	COM3	2024-11-05_15h02.31.124	001-EEG_SVR_Officel	2022.2.5	59.93576085079241		6.46599999999998	0_sub-pilot048_SVR_EEG_block1-2.protocol.csv	step21	3703	368.348	STIMULATE	48.4	48.4	48.4	48.4	48.7	21	261.10900000000004
264.69	0	264690	wait	10004	0	0	0	0	10.0	0.0	10.0	0.0					363.43167180003366	369.3984422000358	369.3984422000358	2.0	['2', 'return']	[1.80525029997807, 2.6528225999791175]	5.96	5.62	2.0	20hz	low_pain	48.4	382.39802830002736			sub-048	250	48	48.4	49.5	COM5	COM15	COM3	2024-11-05_15h02.31.124	001-EEG_SVR_Officel	2022.2.5	59.93576085079241		10.216000000000008	0_sub-pilot048_SVR_EEG_block1-2.protocol.csv	step23	3924	390.258	STIMULATE	48.4	48.4	48.4	48.4	48.5	23	283.019
270.641	0	270641	20hz	10003	0	0	0	0	10.0	0.0	10.0	0.0					363.43167180003366	369.3984422000358	369.3984422000358	2.0	['2', 'return']	[1.80525029997807, 2.6528225999791175]	5.96	5.62	2.0	20hz	low_pain	48.4	382.39802830002736			sub-048	250	48	48.4	49.5	COM5	COM15	COM3	2024-11-05_15h02.31.124	001-EEG_SVR_Officel	2022.2.5	59.93576085079241		5.951000000000022	0_sub-pilot048_SVR_EEG_block1-2.protocol.csv	step23	3924	390.258	STIMULATE	48.4	48.4	48.4	48.4	48.5	23	283.019
277.024	0	277024	20/Lo	10001	0	0	0	0	10.0	0.0	10.0	0.0					363.43167180003366	369.3984422000358	369.3984422000358	2.0	['2', 'return']	[1.80525029997807, 2.6528225999791175]	5.96	5.62	2.0	20hz	low_pain	48.4	382.39802830002736			sub-048	250	48	48.4	49.5	COM5	COM15	COM3	2024-11-05_15h02.31.124	001-EEG_SVR_Officel	2022.2.5	59.93576085079241		5.632999999999981	0_sub-pilot048_SVR_EEG_block1-2.protocol.csv	step23	3924	390.258	STIMULATE	48.4	48.4	48.4	48.4	48.5	23	283.019
286.346	0	286346	wait	10004	0	0	0	0	11.0	0.0	11.0	0.0					385.08747650001897	390.7979606000008	390.7979606000008	4.0	['4', 'return']	[1.7951419000164606, 2.635098900005687]	5.71	5.12	3.0	20hz	high_pain	49.5				sub-048	250	48	48.4	49.5	COM5	COM15	COM3	2024-11-05_15h02.31.124	001-EEG_SVR_Officel	2022.2.5	59.93576085079241		10.072000000000003	0_sub-pilot048_SVR_EEG_block1-2.protocol.csv	step25	4134	411.061	STIMULATE	49.5	49.5	49.5	49.5	49.5	25	303.82199999999995
292.04	0	292040	20hz	10003	0	0	0	0	11.0	0.0	11.0	0.0					385.08747650001897	390.7979606000008	390.7979606000008	4.0	['4', 'return']	[1.7951419000164606, 2.635098900005687]	5.71	5.12	3.0	20hz	high_pain	49.5				sub-048	250	48	48.4	49.5	COM5	COM15	COM3	2024-11-05_15h02.31.124	001-EEG_SVR_Officel	2022.2.5	59.93576085079241		5.694000000000017	0_sub-pilot048_SVR_EEG_block1-2.protocol.csv	step25	4134	411.061	STIMULATE	49.5	49.5	49.5	49.5	49.5	25	303.82199999999995
297.923	0	297923	20/Hi	10001	0	0	0	0	11.0	0.0	11.0	0.0					385.08747650001897	390.7979606000008	390.7979606000008	4.0	['4', 'return']	[1.7951419000164606, 2.635098900005687]	5.71	5.12	3.0	20hz	high_pain	49.5				sub-048	250	48	48.4	49.5	COM5	COM15	COM3	2024-11-05_15h02.31.124	001-EEG_SVR_Officel	2022.2.5	59.93576085079241		5.132999999999981	0_sub-pilot048_SVR_EEG_block1-2.protocol.csv	step25	4134	411.061	STIMULATE	49.5	49.5	49.5	49.5	49.5	25	303.82199999999995
307.739	0	307739	wait	10004	0	0	0	0	12.0	0.0	12.0	0.0					406.4812861000537	411.91461220005294	411.91461220005294	3.0	['3', 'return']	[1.5626638000248931, 2.387319400033448]	5.43	5.71	0.0	10hz	low_pain	48.4				sub-048	250	48	48.4	49.5	COM5	COM15	COM3	2024-11-05_15h02.31.124	001-EEG_SVR_Officel	2022.2.5	59.93576085079241		10.565999999999974	0_sub-pilot048_SVR_EEG_block1-2.protocol.csv	step27	4353	432.799	STIMULATE	48.4	48.3	48.4	48.4	48.4	27	325.56
313.157	0	313157	10hz	10003	0	0	0	0	12.0	0.0	12.0	0.0					406.4812861000537	411.91461220005294	411.91461220005294	3.0	['3', 'return']	[1.5626638000248931, 2.387319400033448]	5.43	5.71	0.0	10hz	low_pain	48.4				sub-048	250	48	48.4	49.5	COM5	COM15	COM3	2024-11-05_15h02.31.124	001-EEG_SVR_Officel	2022.2.5	59.93576085079241		5.418000000000006	0_sub-pilot048_SVR_EEG_block1-2.protocol.csv	step27	4353	432.799	STIMULATE	48.4	48.3	48.4	48.4	48.4	27	325.56
319.623	0	319623	10/Lo	10001	0	0	0	0	12.0	0.0	12.0	0.0					406.4812861000537	411.91461220005294	411.91461220005294	3.0	['3', 'return']	[1.5626638000248931, 2.387319400033448]	5.43	5.71	0.0	10hz	low_pain	48.4				sub-048	250	48	48.4	49.5	COM5	COM15	COM3	2024-11-05_15h02.31.124	001-EEG_SVR_Officel	2022.2.5	59.93576085079241		5.716000000000008	0_sub-pilot048_SVR_EEG_block1-2.protocol.csv	step27	4353	432.799	STIMULATE	48.4	48.3	48.4	48.4	48.4	27	325.56
328.608	0	328608	wait	10004	0	0	0	0	13.0	0.0	13.0	0.0					427.3497353999992	433.2978685999988	433.2978685999988	1.0	['1', 'return']	[2.3621530999662355, 3.6015031000133604]	5.94	5.61	1.0	40hz	low_pain	48.4	446.2978822000441			sub-048	250	48	48.4	49.5	COM5	COM15	COM3	2024-11-05_15h02.31.124	001-EEG_SVR_Officel	2022.2.5	59.93576085079241		9.735000000000014	0_sub-pilot048_SVR_EEG_block1-2.protocol.csv	step29	4567	454.007	STIMULATE	48.4	48.4	48.4	48.4	48.6	29	346.768
334.54	0	334540	40hz	10003	0	0	0	0	13.0	0.0	13.0	0.0					427.3497353999992	433.2978685999988	433.2978685999988	1.0	['1', 'return']	[2.3621530999662355, 3.6015031000133604]	5.94	5.61	1.0	40hz	low_pain	48.4	446.2978822000441			sub-048	250	48	48.4	49.5	COM5	COM15	COM3	2024-11-05_15h02.31.124	001-EEG_SVR_Officel	2022.2.5	59.93576085079241		5.932000000000016	0_sub-pilot048_SVR_EEG_block1-2.protocol.csv	step29	4567	454.007	STIMULATE	48.4	48.4	48.4	48.4	48.6	29	346.768
340.912	0	340912	40/Lo	10001	0	0	0	0	13.0	0.0	13.0	0.0					427.3497353999992	433.2978685999988	433.2978685999988	1.0	['1', 'return']	[2.3621530999662355, 3.6015031000133604]	5.94	5.61	1.0	40hz	low_pain	48.4	446.2978822000441			sub-048	250	48	48.4	49.5	COM5	COM15	COM3	2024-11-05_15h02.31.124	001-EEG_SVR_Officel	2022.2.5	59.93576085079241		5.621999999999957	0_sub-pilot048_SVR_EEG_block1-2.protocol.csv	step29	4567	454.007	STIMULATE	48.4	48.4	48.4	48.4	48.6	29	346.768
351.206	0	351206	wait	10004	0	0	0	0	14.0	0.0	14.0	0.0					449.947647300025	455.3309102000203	455.3309102000203	4.0	['4', 'return']	[2.0729632999864407, 3.2410523999715224]	5.37	6.1	2.0	20hz	high_pain	49.5	468.3309966000379			sub-048	250	48	48.4	49.5	COM5	COM15	COM3	2024-11-05_15h02.31.124	001-EEG_SVR_Officel	2022.2.5	59.93576085079241		11.04400000000004	0_sub-pilot048_SVR_EEG_block1-2.protocol.csv	step31	4796	476.646	STIMULATE	49.7	49.5	49.5	49.5	49.5	31	369.407
356.573	0	356573	20hz	10003	0	0	0	0	14.0	0.0	14.0	0.0					449.947647300025	455.3309102000203	455.3309102000203	4.0	['4', 'return']	[2.0729632999864407, 3.2410523999715224]	5.37	6.1	2.0	20hz	high_pain	49.5	468.3309966000379			sub-048	250	48	48.4	49.5	COM5	COM15	COM3	2024-11-05_15h02.31.124	001-EEG_SVR_Officel	2022.2.5	59.93576085079241		5.366999999999962	0_sub-pilot048_SVR_EEG_block1-2.protocol.csv	step31	4796	476.646	STIMULATE	49.7	49.5	49.5	49.5	49.5	31	369.407
363.439	0	363439	20/Hi	10001	0	0	0	0	14.0	0.0	14.0	0.0					449.947647300025	455.3309102000203	455.3309102000203	4.0	['4', 'return']	[2.0729632999864407, 3.2410523999715224]	5.37	6.1	2.0	20hz	high_pain	49.5	468.3309966000379			sub-048	250	48	48.4	49.5	COM5	COM15	COM3	2024-11-05_15h02.31.124	001-EEG_SVR_Officel	2022.2.5	59.93576085079241		6.116000000000042	0_sub-pilot048_SVR_EEG_block1-2.protocol.csv	step31	4796	476.646	STIMULATE	49.7	49.5	49.5	49.5	49.5	31	369.407
372.872	0	372872	wait	10004	0	0	0	0	15.0	0.0	15.0	0.0					471.61430490005296	476.8711395999999	476.8711395999999	1.0	['1', 'return']	[1.9382046000100672, 3.9701597000239417]	5.25	5.37	3.0	10hz	low_pain	48.4				sub-048	250	48	48.4	49.5	COM5	COM15	COM3	2024-11-05_15h02.31.124	001-EEG_SVR_Officel	2022.2.5	59.93576085079241		10.182999999999993	0_sub-pilot048_SVR_EEG_block1-2.protocol.csv	step33	5005	497.396	STIMULATE	48.4	48.4	48.4	48.4	48.4	33	390.157
378.107	0	378107	10hz	10003	0	0	0	0	15.0	0.0	15.0	0.0					471.61430490005296	476.8711395999999	476.8711395999999	1.0	['1', 'return']	[1.9382046000100672, 3.9701597000239417]	5.25	5.37	3.0	10hz	low_pain	48.4				sub-048	250	48	48.4	49.5	COM5	COM15	COM3	2024-11-05_15h02.31.124	001-EEG_SVR_Officel	2022.2.5	59.93576085079241		5.235000000000014	0_sub-pilot048_SVR_EEG_block1-2.protocol.csv	step33	5005	497.396	STIMULATE	48.4	48.4	48.4	48.4	48.4	33	390.157
384.24	0	384240	10/Lo	10001	0	0	0	0	15.0	0.0	15.0	0.0					471.61430490005296	476.8711395999999	476.8711395999999	1.0	['1', 'return']	[1.9382046000100672, 3.9701597000239417]	5.25	5.37	3.0	10hz	low_pain	48.4				sub-048	250	48	48.4	49.5	COM5	COM15	COM3	2024-11-05_15h02.31.124	001-EEG_SVR_Officel	2022.2.5	59.93576085079241		5.382999999999981	0_sub-pilot048_SVR_EEG_block1-2.protocol.csv	step33	5005	497.396	STIMULATE	48.4	48.4	48.4	48.4	48.4	33	390.157
459.705	0	459705	wait	10004	1	0	1	0	0.0	0.0	0.0	0.0			p	0.7694314999971539	558.4465841000201	564.7968251000275	564.7968251000275	2.5	['2', 'a', '5', 'return']	[2.5453729000291787, 3.3207871000049636, 3.577224600012414, 4.360974800016265]	6.34	6.15	0.0	10hz	high_pain	49.5				sub-048	250	48	48.4	49.5	COM5	COM15	COM3	2024-11-05_15h02.31.124	001-EEG_SVR_Officel	2022.2.5	59.93576085079241		76.21499999999997	0_sub-pilot048_SVR_EEG_block1-2.protocol.csv	step35	5895	586.198	STIMULATE	49.8	49.5	49.5	49.5	49.7	35	478.88999999999993
466.039	0	466039	10hz	10003	1	0	1	0	0.0	0.0	0.0	0.0			p	0.7694314999971539	558.4465841000201	564.7968251000275	564.7968251000275	2.5	['2', 'a', '5', 'return']	[2.5453729000291787, 3.3207871000049636, 3.577224600012414, 4.360974800016265]	6.34	6.15	0.0	10hz	high_pain	49.5				sub-048	250	48	48.4	49.5	COM5	COM15	COM3	2024-11-05_15h02.31.124	001-EEG_SVR_Officel	2022.2.5	59.93576085079241		6.334000000000003	0_sub-pilot048_SVR_EEG_block1-2.protocol.csv	step35	5895	586.198	STIMULATE	49.8	49.5	49.5	49.5	49.7	35	478.88999999999993
472.955	0	472955	10/Hi	10001	1	0	1	0	0.0	0.0	0.0	0.0			p	0.7694314999971539	558.4465841000201	564.7968251000275	564.7968251000275	2.5	['2', 'a', '5', 'return']	[2.5453729000291787, 3.3207871000049636, 3.577224600012414, 4.360974800016265]	6.34	6.15	0.0	10hz	high_pain	49.5				sub-048	250	48	48.4	49.5	COM5	COM15	COM3	2024-11-05_15h02.31.124	001-EEG_SVR_Officel	2022.2.5	59.93576085079241		6.165999999999997	0_sub-pilot048_SVR_EEG_block1-2.protocol.csv	step35	5895	586.198	STIMULATE	49.8	49.5	49.5	49.5	49.7	35	478.88999999999993
483.455	0	483455	wait	10004	1	0	1	0	1.0	0.0	1.0	0.0					582.1967353000073	588.7300987000344	588.7300987000344	3.0	['3', 'return']	[1.915702100028284, 2.8036703999969177]	6.53	5.58	1.0	20hz	high_pain	49.5				sub-048	250	48	48.4	49.5	COM5	COM15	COM3	2024-11-05_15h02.31.124	001-EEG_SVR_Officel	2022.2.5	59.93576085079241		11.25	0_sub-pilot048_SVR_EEG_block1-2.protocol.csv	step37	6130	609.416	STIMULATE	49.7	49.5	49.5	49.5	49.7	37	502.108
489.972	0	489972	20hz	10003	1	0	1	0	1.0	0.0	1.0	0.0					582.1967353000073	588.7300987000344	588.7300987000344	3.0	['3', 'return']	[1.915702100028284, 2.8036703999969177]	6.53	5.58	1.0	20hz	high_pain	49.5				sub-048	250	48	48.4	49.5	COM5	COM15	COM3	2024-11-05_15h02.31.124	001-EEG_SVR_Officel	2022.2.5	59.93576085079241		6.516999999999996	0_sub-pilot048_SVR_EEG_block1-2.protocol.csv	step37	6130	609.416	STIMULATE	49.7	49.5	49.5	49.5	49.7	37	502.108
496.305	0	496305	20/Hi	10001	1	0	1	0	1.0	0.0	1.0	0.0					582.1967353000073	588.7300987000344	588.7300987000344	3.0	['3', 'return']	[1.915702100028284, 2.8036703999969177]	6.53	5.58	1.0	20hz	high_pain	49.5				sub-048	250	48	48.4	49.5	COM5	COM15	COM3	2024-11-05_15h02.31.124	001-EEG_SVR_Officel	2022.2.5	59.93576085079241		5.583000000000027	0_sub-pilot048_SVR_EEG_block1-2.protocol.csv	step37	6130	609.416	STIMULATE	49.7	49.5	49.5	49.5	49.7	37	502.108
505.838	0	505838	wait	10004	1	0	1	0	2.0	0.0	2.0	0.0					604.5798268000362	611.2798872000421	611.2798872000421	2.5	['2', 'a', '5', 'return']	[2.1797811000142246, 2.6440168999833986, 2.955276800028514, 3.8521206000004895]	6.7	5.24	2.0	40hz	low_pain	48.4	624.2799463000265			sub-048	250	48	48.4	49.5	COM5	COM15	COM3	2024-11-05_15h02.31.124	001-EEG_SVR_Officel	2022.2.5	59.93576085079241		10.283000000000015	0_sub-pilot048_SVR_EEG_block1-2.protocol.csv	step39	6354	631.621	STIMULATE	48.6	48.4	48.4	48.4	48.4	39	524.3129999999999
512.522	0	512522	40hz	10003	1	0	1	0	2.0	0.0	2.0	0.0					604.5798268000362	611.2798872000421	611.2798872000421	2.5	['2', 'a', '5', 'return']	[2.1797811000142246, 2.6440168999833986, 2.955276800028514, 3.8521206000004895]	6.7	5.24	2.0	40hz	low_pain	48.4	624.2799463000265			sub-048	250	48	48.4	49.5	COM5	COM15	COM3	2024-11-05_15h02.31.124	001-EEG_SVR_Officel	2022.2.5	59.93576085079241		6.684000000000026	0_sub-pilot048_SVR_EEG_block1-2.protocol.csv	step39	6354	631.621	STIMULATE	48.6	48.4	48.4	48.4	48.4	39	524.3129999999999
518.522	0	518522	40/Lo	10001	1	0	1	0	2.0	0.0	2.0	0.0					604.5798268000362	611.2798872000421	611.2798872000421	2.5	['2', 'a', '5', 'return']	[2.1797811000142246, 2.6440168999833986, 2.955276800028514, 3.8521206000004895]	6.7	5.24	2.0	40hz	low_pain	48.4	624.2799463000265			sub-048	250	48	48.4	49.5	COM5	COM15	COM3	2024-11-05_15h02.31.124	001-EEG_SVR_Officel	2022.2.5	59.93576085079241		5.25	0_sub-pilot048_SVR_EEG_block1-2.protocol.csv	step39	6354	631.621	STIMULATE	48.6	48.4	48.4	48.4	48.4	39	524.3129999999999
529.437	0	529437	wait	10004	1	0	1	0	3.0	0.0	3.0	0.0					628.1794491000473	634.4461952000274	634.4461952000274	4.0	['4', 'return']	[1.820788100012578, 2.6372657000320032]	6.26	5.24	3.0	controle	high_pain	49.5	647.446331300016			sub-048	250	48	48.4	49.5	COM5	COM15	COM3	2024-11-05_15h02.31.124	001-EEG_SVR_Officel	2022.2.5	59.93576085079241		11.664999999999964	0_sub-pilot048_SVR_EEG_block1-2.protocol.csv	step41	6588	654.871	STIMULATE	49.6	49.5	49.5	49.5	49.5	41	547.5629999999999
535.688	0	535688	CNhz	10003	1	0	1	0	3.0	0.0	3.0	0.0					628.1794491000473	634.4461952000274	634.4461952000274	4.0	['4', 'return']	[1.820788100012578, 2.6372657000320032]	6.26	5.24	3.0	controle	high_pain	49.5	647.446331300016			sub-048	250	48	48.4	49.5	COM5	COM15	COM3	2024-11-05_15h02.31.124	001-EEG_SVR_Officel	2022.2.5	59.93576085079241		6.250999999999976	0_sub-pilot048_SVR_EEG_block1-2.protocol.csv	step41	6588	654.871	STIMULATE	49.6	49.5	49.5	49.5	49.5	41	547.5629999999999
541.688	0	541688	CN/Hi	10001	1	0	1	0	3.0	0.0	3.0	0.0					628.1794491000473	634.4461952000274	634.4461952000274	4.0	['4', 'return']	[1.820788100012578, 2.6372657000320032]	6.26	5.24	3.0	controle	high_pain	49.5	647.446331300016			sub-048	250	48	48.4	49.5	COM5	COM15	COM3	2024-11-05_15h02.31.124	001-EEG_SVR_Officel	2022.2.5	59.93576085079241		5.25	0_sub-pilot048_SVR_EEG_block1-2.protocol.csv	step41	6588	654.871	STIMULATE	49.6	49.5	49.5	49.5	49.5	41	547.5629999999999
551.387	0	551387	wait	10004	1	0	1	0	4.0	0.0	4.0	0.0					650.1292773000314	656.4796828000108	656.4796828000108	5.0	['5', 'return']	[1.7403472000150941, 2.4842436999897473]	6.35	5.35	0.0	20hz	high_pain	49.5	669.4796536000213			sub-048	250	48	48.4	49.5	COM5	COM15	COM3	2024-11-05_15h02.31.124	001-EEG_SVR_Officel	2022.2.5	59.93576085079241		10.448999999999955	0_sub-pilot048_SVR_EEG_block1-2.protocol.csv	step43	6811	676.983	STIMULATE	49.7	49.5	49.5	49.5	49.7	43	569.675
557.721	0	557721	20hz	10003	1	0	1	0	4.0	0.0	4.0	0.0					650.1292773000314	656.4796828000108	656.4796828000108	5.0	['5', 'return']	[1.7403472000150941, 2.4842436999897473]	6.35	5.35	0.0	20hz	high_pain	49.5	669.4796536000213			sub-048	250	48	48.4	49.5	COM5	COM15	COM3	2024-11-05_15h02.31.124	001-EEG_SVR_Officel	2022.2.5	59.93576085079241		6.33400000000006	0_sub-pilot048_SVR_EEG_block1-2.protocol.csv	step43	6811	676.983	STIMULATE	49.7	49.5	49.5	49.5	49.7	43	569.675
563.823	0	563823	20/Hi	10001	1	0	1	0	4.0	0.0	4.0	0.0					650.1292773000314	656.4796828000108	656.4796828000108	5.0	['5', 'return']	[1.7403472000150941, 2.4842436999897473]	6.35	5.35	0.0	20hz	high_pain	49.5	669.4796536000213			sub-048	250	48	48.4	49.5	COM5	COM15	COM3	2024-11-05_15h02.31.124	001-EEG_SVR_Officel	2022.2.5	59.93576085079241		5.351999999999975	0_sub-pilot048_SVR_EEG_block1-2.protocol.csv	step43	6811	676.983	STIMULATE	49.7	49.5	49.5	49.5	49.7	43	569.675
573.261	0	573261	wait	10004	1	0	1	0	5.0	0.0	5.0	0.0					672.0024965000339	678.5458128000028	678.5458128000028	3.0	['3', 'return']	[1.8659439000184648, 2.64285010000458]	6.54	5.44	1.0	20hz	low_pain	48.4	691.5460579000064			sub-048	250	48	48.4	49.5	COM5	COM15	COM3	2024-11-05_15h02.31.124	001-EEG_SVR_Officel	2022.2.5	59.93576085079241		10.187999999999988	0_sub-pilot048_SVR_EEG_block1-2.protocol.csv	step45	7036	699.23	STIMULATE	48.6	48.4	48.4	48.4	48.6	45	591.922
579.788	0	579788	20hz	10003	1	0	1	0	5.0	0.0	5.0	0.0					672.0024965000339	678.5458128000028	678.5458128000028	3.0	['3', 'return']	[1.8659439000184648, 2.64285010000458]	6.54	5.44	1.0	20hz	low_pain	48.4	691.5460579000064			sub-048	250	48	48.4	49.5	COM5	COM15	COM3	2024-11-05_15h02.31.124	001-EEG_SVR_Officel	2022.2.5	59.93576085079241		6.527000000000044	0_sub-pilot048_SVR_EEG_block1-2.protocol.csv	step45	7036	699.23	STIMULATE	48.6	48.4	48.4	48.4	48.6	45	591.922
585.993	0	585993	20/Lo	10001	1	0	1	0	5.0	0.0	5.0	0.0					672.0024965000339	678.5458128000028	678.5458128000028	3.0	['3', 'return']	[1.8659439000184648, 2.64285010000458]	6.54	5.44	1.0	20hz	low_pain	48.4	691.5460579000064			sub-048	250	48	48.4	49.5	COM5	COM15	COM3	2024-11-05_15h02.31.124	001-EEG_SVR_Officel	2022.2.5	59.93576085079241		5.455000000000041	0_sub-pilot048_SVR_EEG_block1-2.protocol.csv	step45	7036	699.23	STIMULATE	48.6	48.4	48.4	48.4	48.6	45	591.922
595.489	0	595489	wait	10004	1	0	1	0	6.0	0.0	6.0	0.0					694.2311049000127	700.0516779000172	700.0516779000172	3.5	['3', 'a', '5', 'return']	[1.9813372999778949, 3.1014407000038773, 3.413101900019683, 4.293137800006662]	5.82	5.5	2.0	controle	low_pain	48.4				sub-048	250	48	48.4	49.5	COM5	COM15	COM3	2024-11-05_15h02.31.124	001-EEG_SVR_Officel	2022.2.5	59.93576085079241		10.245999999999981	0_sub-pilot048_SVR_EEG_block1-2.protocol.csv	step47	7252	720.69	STIMULATE	48.7	48.4	48.4	48.4	48.4	47	613.3820000000001
601.293	0	601293	CNhz	10003	1	0	1	0	6.0	0.0	6.0	0.0					694.2311049000127	700.0516779000172	700.0516779000172	3.5	['3', 'a', '5', 'return']	[1.9813372999778949, 3.1014407000038773, 3.413101900019683, 4.293137800006662]	5.82	5.5	2.0	controle	low_pain	48.4				sub-048	250	48	48.4	49.5	COM5	COM15	COM3	2024-11-05_15h02.31.124	001-EEG_SVR_Officel	2022.2.5	59.93576085079241		5.803999999999974	0_sub-pilot048_SVR_EEG_block1-2.protocol.csv	step47	7252	720.69	STIMULATE	48.7	48.4	48.4	48.4	48.4	47	613.3820000000001
607.554	0	607554	CN/Lo	10001	1	0	1	0	6.0	0.0	6.0	0.0					694.2311049000127	700.0516779000172	700.0516779000172	3.5	['3', 'a', '5', 'return']	[1.9813372999778949, 3.1014407000038773, 3.413101900019683, 4.293137800006662]	5.82	5.5	2.0	controle	low_pain	48.4				sub-048	250	48	48.4	49.5	COM5	COM15	COM3	2024-11-05_15h02.31.124	001-EEG_SVR_Officel	2022.2.5	59.93576085079241		5.510999999999967	0_sub-pilot048_SVR_EEG_block1-2.protocol.csv	step47	7252	720.69	STIMULATE	48.7	48.4	48.4	48.4	48.4	47	613.3820000000001
618.654	0	618654	wait	10004	1	0	1	0	7.0	0.0	7.0	0.0					717.3957740000333	722.8623584000161	722.8623584000161	4.5	['4', 'a', '5', 'return']	[1.69321159995161, 2.0053106999839656, 2.8054750000010245, 3.9008704999578185]	5.46	6.35	3.0	40hz	high_pain	49.5	735.8625539000495			sub-048	250	48	48.4	49.5	COM5	COM15	COM3	2024-11-05_15h02.31.124	001-EEG_SVR_Officel	2022.2.5	59.93576085079241		11.850000000000023	0_sub-pilot048_SVR_EEG_block1-2.protocol.csv	step49	7491	744.425	STIMULATE	49.7	49.5	49.5	49.5	49.5	49	637.117
624.104	0	624104	40hz	10003	1	0	1	0	7.0	0.0	7.0	0.0					717.3957740000333	722.8623584000161	722.8623584000161	4.5	['4', 'a', '5', 'return']	[1.69321159995161, 2.0053106999839656, 2.8054750000010245, 3.9008704999578185]	5.46	6.35	3.0	40hz	high_pain	49.5	735.8625539000495			sub-048	250	48	48.4	49.5	COM5	COM15	COM3	2024-11-05_15h02.31.124	001-EEG_SVR_Officel	2022.2.5	59.93576085079241		5.4500000000000455	0_sub-pilot048_SVR_EEG_block1-2.protocol.csv	step49	7491	744.425	STIMULATE	49.7	49.5	49.5	49.5	49.5	49	637.117
631.22	0	631220	40/Hi	10001	1	0	1	0	7.0	0.0	7.0	0.0					717.3957740000333	722.8623584000161	722.8623584000161	4.5	['4', 'a', '5', 'return']	[1.69321159995161, 2.0053106999839656, 2.8054750000010245, 3.9008704999578185]	5.46	6.35	3.0	40hz	high_pain	49.5	735.8625539000495			sub-048	250	48	48.4	49.5	COM5	COM15	COM3	2024-11-05_15h02.31.124	001-EEG_SVR_Officel	2022.2.5	59.93576085079241		6.3659999999999854	0_sub-pilot048_SVR_EEG_block1-2.protocol.csv	step49	7491	744.425	STIMULATE	49.7	49.5	49.5	49.5	49.5	49	637.117
641.07	0	641070	wait	10004	1	0	1	0	8.0	0.0	8.0	0.0					739.8123418000177	746.7972324000439	746.7972324000439	4.0	['4', 'return']	[1.6791013999609277, 2.51087679999182]	6.98	5.21	0.0	20hz	low_pain	48.4				sub-048	250	48	48.4	49.5	COM5	COM15	COM3	2024-11-05_15h02.31.124	001-EEG_SVR_Officel	2022.2.5	59.93576085079241		10.600000000000023	0_sub-pilot048_SVR_EEG_block1-2.protocol.csv	step51	7720	767.147	STIMULATE	48.6	48.4	48.4	48.4	48.5	51	659.8389999999999
648.039	0	648039	20hz	10003	1	0	1	0	8.0	0.0	8.0	0.0					739.8123418000177	746.7972324000439	746.7972324000439	4.0	['4', 'return']	[1.6791013999609277, 2.51087679999182]	6.98	5.21	0.0	20hz	low_pain	48.4				sub-048	250	48	48.4	49.5	COM5	COM15	COM3	2024-11-05_15h02.31.124	001-EEG_SVR_Officel	2022.2.5	59.93576085079241		6.968999999999937	0_sub-pilot048_SVR_EEG_block1-2.protocol.csv	step51	7720	767.147	STIMULATE	48.6	48.4	48.4	48.4	48.5	51	659.8389999999999
654.004	0	654004	20/Lo	10001	1	0	1	0	8.0	0.0	8.0	0.0					739.8123418000177	746.7972324000439	746.7972324000439	4.0	['4', 'return']	[1.6791013999609277, 2.51087679999182]	6.98	5.21	0.0	20hz	low_pain	48.4				sub-048	250	48	48.4	49.5	COM5	COM15	COM3	2024-11-05_15h02.31.124	001-EEG_SVR_Officel	2022.2.5	59.93576085079241		5.215000000000032	0_sub-pilot048_SVR_EEG_block1-2.protocol.csv	step51	7720	767.147	STIMULATE	48.6	48.4	48.4	48.4	48.5	51	659.8389999999999
663.626	0	663626	wait	10004	1	0	1	0	9.0	0.0	9.0	0.0					762.3680925000226	769.3123841000488	769.3123841000488	4.0	['4', 'return']	[1.9155121999792755, 3.5070758999790996]	6.93	5.47	1.0	10hz	high_pain	49.5	782.3127684000065			sub-048	250	48	48.4	49.5	COM5	COM15	COM3	2024-11-05_15h02.31.124	001-EEG_SVR_Officel	2022.2.5	59.93576085079241		10.371999999999957	0_sub-pilot048_SVR_EEG_block1-2.protocol.csv	step53	7947	789.997	STIMULATE	49.7	49.5	49.5	49.5	49.6	53	682.6889999999999
670.554	0	670554	10hz	10003	1	0	1	0	9.0	0.0	9.0	0.0					762.3680925000226	769.3123841000488	769.3123841000488	4.0	['4', 'return']	[1.9155121999792755, 3.5070758999790996]	6.93	5.47	1.0	10hz	high_pain	49.5	782.3127684000065			sub-048	250	48	48.4	49.5	COM5	COM15	COM3	2024-11-05_15h02.31.124	001-EEG_SVR_Officel	2022.2.5	59.93576085079241		6.927999999999997	0_sub-pilot048_SVR_EEG_block1-2.protocol.csv	step53	7947	789.997	STIMULATE	49.7	49.5	49.5	49.5	49.6	53	682.6889999999999
676.787	0	676787	10/Hi	10001	1	0	1	0	9.0	0.0	9.0	0.0					762.3680925000226	769.3123841000488	769.3123841000488	4.0	['4', 'return']	[1.9155121999792755, 3.5070758999790996]	6.93	5.47	1.0	10hz	high_pain	49.5	782.3127684000065			sub-048	250	48	48.4	49.5	COM5	COM15	COM3	2024-11-05_15h02.31.124	001-EEG_SVR_Officel	2022.2.5	59.93576085079241		5.483000000000061	0_sub-pilot048_SVR_EEG_block1-2.protocol.csv	step53	7947	789.997	STIMULATE	49.7	49.5	49.5	49.5	49.6	53	682.6889999999999
687.119	0	687119	wait	10004	1	0	1	0	10.0	0.0	10.0	0.0					785.8617248000228	791.0948616000242	791.0948616000242	4.5	['4', 'a', '5', 'return']	[2.3156738000107, 2.6276352999848314, 3.1879409999819472, 3.9957183999940753]	5.23	5.11	2.0	controle	high_pain	49.5	804.0959509000531			sub-048	250	48	48.4	49.5	COM5	COM15	COM3	2024-11-05_15h02.31.124	001-EEG_SVR_Officel	2022.2.5	59.93576085079241		11.081999999999994	0_sub-pilot048_SVR_EEG_block1-2.protocol.csv	step55	8155	811.364	STIMULATE	49.5	49.5	49.5	49.5	49.6	55	704.056
692.337	0	692337	CNhz	10003	1	0	1	0	10.0	0.0	10.0	0.0					785.8617248000228	791.0948616000242	791.0948616000242	4.5	['4', 'a', '5', 'return']	[2.3156738000107, 2.6276352999848314, 3.1879409999819472, 3.9957183999940753]	5.23	5.11	2.0	controle	high_pain	49.5	804.0959509000531			sub-048	250	48	48.4	49.5	COM5	COM15	COM3	2024-11-05_15h02.31.124	001-EEG_SVR_Officel	2022.2.5	59.93576085079241		5.217999999999961	0_sub-pilot048_SVR_EEG_block1-2.protocol.csv	step55	8155	811.364	STIMULATE	49.5	49.5	49.5	49.5	49.6	55	704.056
698.203	0	698203	CN/Hi	10001	1	0	1	0	10.0	0.0	10.0	0.0					785.8617248000228	791.0948616000242	791.0948616000242	4.5	['4', 'a', '5', 'return']	[2.3156738000107, 2.6276352999848314, 3.1879409999819472, 3.9957183999940753]	5.23	5.11	2.0	controle	high_pain	49.5	804.0959509000531			sub-048	250	48	48.4	49.5	COM5	COM15	COM3	2024-11-05_15h02.31.124	001-EEG_SVR_Officel	2022.2.5	59.93576085079241		5.1159999999999854	0_sub-pilot048_SVR_EEG_block1-2.protocol.csv	step55	8155	811.364	STIMULATE	49.5	49.5	49.5	49.5	49.6	55	704.056
709.386	0	709386	wait	10004	1	0	1	0	11.0	0.0	11.0	0.0					808.1281768000335	815.3115319000208	815.3115319000208	2.0	['2', 'return']	[1.8599146999767981, 2.549043899984099]	7.18	5.39	3.0	20hz	low_pain	48.4	828.31172290002			sub-048	250	48	48.4	49.5	COM5	COM15	COM3	2024-11-05_15h02.31.124	001-EEG_SVR_Officel	2022.2.5	59.93576085079241		11.932999999999993	0_sub-pilot048_SVR_EEG_block1-2.protocol.csv	step57	8393	835.958	STIMULATE	48.4	48.4	48.4	48.4	48.4	57	728.6499999999999
716.553	0	716553	20hz	10003	1	0	1	0	11.0	0.0	11.0	0.0					808.1281768000335	815.3115319000208	815.3115319000208	2.0	['2', 'return']	[1.8599146999767981, 2.549043899984099]	7.18	5.39	3.0	20hz	low_pain	48.4	828.31172290002			sub-048	250	48	48.4	49.5	COM5	COM15	COM3	2024-11-05_15h02.31.124	001-EEG_SVR_Officel	2022.2.5	59.93576085079241		7.16700000000003	0_sub-pilot048_SVR_EEG_block1-2.protocol.csv	step57	8393	835.958	STIMULATE	48.4	48.4	48.4	48.4	48.4	57	728.6499999999999
722.703	0	722703	20/Lo	10001	1	0	1	0	11.0	0.0	11.0	0.0					808.1281768000335	815.3115319000208	815.3115319000208	2.0	['2', 'return']	[1.8599146999767981, 2.549043899984099]	7.18	5.39	3.0	20hz	low_pain	48.4	828.31172290002			sub-048	250	48	48.4	49.5	COM5	COM15	COM3	2024-11-05_15h02.31.124	001-EEG_SVR_Officel	2022.2.5	59.93576085079241		5.399999999999977	0_sub-pilot048_SVR_EEG_block1-2.protocol.csv	step57	8393	835.958	STIMULATE	48.4	48.4	48.4	48.4	48.4	57	728.6499999999999
732.158	0	732158	wait	10004	1	0	1	0	12.0	0.0	12.0	0.0					830.9008521000505	838.6282711000531	838.6282711000531	3.0	['3', 'return']	[2.1434475999558344, 2.975345399987418]	7.72	5.75	0.0	40hz	low_pain	48.4	851.6285476000048			sub-048	250	48	48.4	49.5	COM5	COM15	COM3	2024-11-05_15h02.31.124	001-EEG_SVR_Officel	2022.2.5	59.93576085079241		10.205000000000041	0_sub-pilot048_SVR_EEG_block1-2.protocol.csv	step59	8619	859.596	STIMULATE	48.4	48.4	48.4	48.4	48.6	59	752.288
739.87	0	739870	40hz	10003	1	0	1	0	12.0	0.0	12.0	0.0					830.9008521000505	838.6282711000531	838.6282711000531	3.0	['3', 'return']	[2.1434475999558344, 2.975345399987418]	7.72	5.75	0.0	40hz	low_pain	48.4	851.6285476000048			sub-048	250	48	48.4	49.5	COM5	COM15	COM3	2024-11-05_15h02.31.124	001-EEG_SVR_Officel	2022.2.5	59.93576085079241		7.711999999999989	0_sub-pilot048_SVR_EEG_block1-2.protocol.csv	step59	8619	859.596	STIMULATE	48.4	48.4	48.4	48.4	48.6	59	752.288
746.386	0	746386	40/Lo	10001	1	0	1	0	12.0	0.0	12.0	0.0					830.9008521000505	838.6282711000531	838.6282711000531	3.0	['3', 'return']	[2.1434475999558344, 2.975345399987418]	7.72	5.75	0.0	40hz	low_pain	48.4	851.6285476000048			sub-048	250	48	48.4	49.5	COM5	COM15	COM3	2024-11-05_15h02.31.124	001-EEG_SVR_Officel	2022.2.5	59.93576085079241		5.765999999999963	0_sub-pilot048_SVR_EEG_block1-2.protocol.csv	step59	8619	859.596	STIMULATE	48.4	48.4	48.4	48.4	48.6	59	752.288
755.902	0	755902	wait	10004	1	0	1	0	13.0	0.0	13.0	0.0					854.6447153000045	862.2777969000163	862.2777969000163	4.0	['4', 'return']	[2.424220899993088, 3.479795399995055]	7.62	5.05	1.0	controle	high_pain	49.5				sub-048	250	48	48.4	49.5	COM5	COM15	COM3	2024-11-05_15h02.31.124	001-EEG_SVR_Officel	2022.2.5	59.93576085079241		10.266000000000076	0_sub-pilot048_SVR_EEG_block1-2.protocol.csv	step61	8836	882.492	STIMULATE	49.6	49.5	49.5	49.5	49.6	61	775.184
763.52	0	763520	CNhz	10003	1	0	1	0	13.0	0.0	13.0	0.0					854.6447153000045	862.2777969000163	862.2777969000163	4.0	['4', 'return']	[2.424220899993088, 3.479795399995055]	7.62	5.05	1.0	controle	high_pain	49.5				sub-048	250	48	48.4	49.5	COM5	COM15	COM3	2024-11-05_15h02.31.124	001-EEG_SVR_Officel	2022.2.5	59.93576085079241		7.617999999999938	0_sub-pilot048_SVR_EEG_block1-2.protocol.csv	step61	8836	882.492	STIMULATE	49.6	49.5	49.5	49.5	49.6	61	775.184
769.325	0	769325	CN/Hi	10001	1	0	1	0	13.0	0.0	13.0	0.0					854.6447153000045	862.2777969000163	862.2777969000163	4.0	['4', 'return']	[2.424220899993088, 3.479795399995055]	7.62	5.05	1.0	controle	high_pain	49.5				sub-048	250	48	48.4	49.5	COM5	COM15	COM3	2024-11-05_15h02.31.124	001-EEG_SVR_Officel	2022.2.5	59.93576085079241		5.055000000000064	0_sub-pilot048_SVR_EEG_block1-2.protocol.csv	step61	8836	882.492	STIMULATE	49.6	49.5	49.5	49.5	49.6	61	775.184
780.068	0	780068	wait	10004	1	0	1	0	14.0	0.0	14.0	0.0					878.810855000047	885.4611413000384	885.4611413000384	1.0	['1', 'return']	[2.0306455999962054, 2.87875009997515]	6.65	6.5	2.0	10hz	low_pain	48.4	898.4611045000493			sub-048	250	48	48.4	49.5	COM5	COM15	COM3	2024-11-05_15h02.31.124	001-EEG_SVR_Officel	2022.2.5	59.93576085079241		11.492999999999938	0_sub-pilot048_SVR_EEG_block1-2.protocol.csv	step63	9068	907.168	STIMULATE	48.4	48.4	48.4	48.4	48.4	63	799.8599999999999
786.702	0	786702	10hz	10003	1	0	1	0	14.0	0.0	14.0	0.0					878.810855000047	885.4611413000384	885.4611413000384	1.0	['1', 'return']	[2.0306455999962054, 2.87875009997515]	6.65	6.5	2.0	10hz	low_pain	48.4	898.4611045000493			sub-048	250	48	48.4	49.5	COM5	COM15	COM3	2024-11-05_15h02.31.124	001-EEG_SVR_Officel	2022.2.5	59.93576085079241		6.6340000000000146	0_sub-pilot048_SVR_EEG_block1-2.protocol.csv	step63	9068	907.168	STIMULATE	48.4	48.4	48.4	48.4	48.4	63	799.8599999999999
793.969	0	793969	10/Lo	10001	1	0	1	0	14.0	0.0	14.0	0.0					878.810855000047	885.4611413000384	885.4611413000384	1.0	['1', 'return']	[2.0306455999962054, 2.87875009997515]	6.65	6.5	2.0	10hz	low_pain	48.4	898.4611045000493			sub-048	250	48	48.4	49.5	COM5	COM15	COM3	2024-11-05_15h02.31.124	001-EEG_SVR_Officel	2022.2.5	59.93576085079241		6.517000000000053	0_sub-pilot048_SVR_EEG_block1-2.protocol.csv	step63	9068	907.168	STIMULATE	48.4	48.4	48.4	48.4	48.4	63	799.8599999999999
802.635	0	802635	wait	10004	1	0	1	0	15.0	0.0	15.0	0.0					901.3772775000544	906.910927500052	906.910927500052	4.0	['4', 'return']	[2.0454882999765687, 2.956641700002365]	5.53	5.35	3.0	10hz	high_pain	49.5	919.9110245000338			sub-048	250	48	48.4	49.5	COM5	COM15	COM3	2024-11-05_15h02.31.124	001-EEG_SVR_Officel	2022.2.5	59.93576085079241		9.41599999999994	0_sub-pilot048_SVR_EEG_block1-2.protocol.csv	step65	9257	927.475	STIMULATE	49.5	49.5	49.5	49.5	49.5	65	820.1669999999999
808.152	0	808152	10hz	10003	1	0	1	0	15.0	0.0	15.0	0.0					901.3772775000544	906.910927500052	906.910927500052	4.0	['4', 'return']	[2.0454882999765687, 2.956641700002365]	5.53	5.35	3.0	10hz	high_pain	49.5	919.9110245000338			sub-048	250	48	48.4	49.5	COM5	COM15	COM3	2024-11-05_15h02.31.124	001-EEG_SVR_Officel	2022.2.5	59.93576085079241		5.517000000000053	0_sub-pilot048_SVR_EEG_block1-2.protocol.csv	step65	9257	927.475	STIMULATE	49.5	49.5	49.5	49.5	49.5	65	820.1669999999999
814.268	0	814268	10/Hi	10001	1	0	1	0	15.0	0.0	15.0	0.0					901.3772775000544	906.910927500052	906.910927500052	4.0	['4', 'return']	[2.0454882999765687, 2.956641700002365]	5.53	5.35	3.0	10hz	high_pain	49.5	919.9110245000338			sub-048	250	48	48.4	49.5	COM5	COM15	COM3	2024-11-05_15h02.31.124	001-EEG_SVR_Officel	2022.2.5	59.93576085079241		5.3659999999999854	0_sub-pilot048_SVR_EEG_block1-2.protocol.csv	step65	9257	927.475	STIMULATE	49.5	49.5	49.5	49.5	49.5	65	820.1669999999999
879.449	0	879449	wait	10004	2	0	2	0	0.0	0.0	0.0	0.0			p	1.6513682999648154	1004.0436482000514	1009.243314100022	1009.243314100022	2.0	['2', 'return']	[2.4165331999538466, 3.2568944999948144]	5.19	6.44	0.0	10hz	low_pain	48.4	1022.2434916000348			sub-048	250	48	48.4	49.5	COM5	COM15	COM3	2024-11-05_15h02.31.124	001-EEG_SVR_Officel	2022.2.5	59.93576085079241		65.93099999999993	1_sub-pilot048_SVR_EEG_block3-4.protocol.csv	step3	817	81.569	STIMULATE	48.6	48.4	48.4	48.4	48.5	3	897.709
884.633	0	884633	10hz	10003	2	0	2	0	0.0	0.0	0.0	0.0			p	1.6513682999648154	1004.0436482000514	1009.243314100022	1009.243314100022	2.0	['2', 'return']	[2.4165331999538466, 3.2568944999948144]	5.19	6.44	0.0	10hz	low_pain	48.4	1022.2434916000348			sub-048	250	48	48.4	49.5	COM5	COM15	COM3	2024-11-05_15h02.31.124	001-EEG_SVR_Officel	2022.2.5	59.93576085079241		5.184000000000083	1_sub-pilot048_SVR_EEG_block3-4.protocol.csv	step3	817	81.569	STIMULATE	48.6	48.4	48.4	48.4	48.5	3	897.709
891.833	0	891833	10/Lo	10001	2	0	2	0	0.0	0.0	0.0	0.0			p	1.6513682999648154	1004.0436482000514	1009.243314100022	1009.243314100022	2.0	['2', 'return']	[2.4165331999538466, 3.2568944999948144]	5.19	6.44	0.0	10hz	low_pain	48.4	1022.2434916000348			sub-048	250	48	48.4	49.5	COM5	COM15	COM3	2024-11-05_15h02.31.124	001-EEG_SVR_Officel	2022.2.5	59.93576085079241		6.449999999999932	1_sub-pilot048_SVR_EEG_block3-4.protocol.csv	step3	817	81.569	STIMULATE	48.6	48.4	48.4	48.4	48.5	3	897.709
900.949	0	900949	wait	10004	2	0	2	0	1.0	0.0	1.0	0.0					1025.5431301000062	1031.309800300049	1031.309800300049	3.0	['3', 'return']	[1.294324200018309, 2.286508099990897]	5.76	6.46	1.0	10hz	high_pain	49.5				sub-048	250	48	48.4	49.5	COM5	COM15	COM3	2024-11-05_15h02.31.124	001-EEG_SVR_Officel	2022.2.5	59.93576085079241		9.865999999999985	1_sub-pilot048_SVR_EEG_block3-4.protocol.csv	step5	1040	103.613	STIMULATE	49.8	49.5	49.5	49.5	49.5	5	919.7529999999999
906.699	0	906699	10hz	10003	2	0	2	0	1.0	0.0	1.0	0.0					1025.5431301000062	1031.309800300049	1031.309800300049	3.0	['3', 'return']	[1.294324200018309, 2.286508099990897]	5.76	6.46	1.0	10hz	high_pain	49.5				sub-048	250	48	48.4	49.5	COM5	COM15	COM3	2024-11-05_15h02.31.124	001-EEG_SVR_Officel	2022.2.5	59.93576085079241		5.75	1_sub-pilot048_SVR_EEG_block3-4.protocol.csv	step5	1040	103.613	STIMULATE	49.8	49.5	49.5	49.5	49.5	5	919.7529999999999
913.916	0	913916	10/Hi	10001	2	0	2	0	1.0	0.0	1.0	0.0					1025.5431301000062	1031.309800300049	1031.309800300049	3.0	['3', 'return']	[1.294324200018309, 2.286508099990897]	5.76	6.46	1.0	10hz	high_pain	49.5				sub-048	250	48	48.4	49.5	COM5	COM15	COM3	2024-11-05_15h02.31.124	001-EEG_SVR_Officel	2022.2.5	59.93576085079241		6.467000000000098	1_sub-pilot048_SVR_EEG_block3-4.protocol.csv	step5	1040	103.613	STIMULATE	49.8	49.5	49.5	49.5	49.5	5	919.7529999999999
922.038	0	922038	wait	10004	2	0	2	0	2.0	0.0	2.0	0.0					1046.632842799998	1053.7264315000502	1053.7264315000502	4.5	['4', 'a', '5', 'return']	[2.461983599991072, 3.0621692999848165, 3.3417157999938354, 4.5179229999776]	7.08	6.45	2.0	10hz	high_pain	49.5	1066.7262191000043			sub-048	250	48	48.4	49.5	COM5	COM15	COM3	2024-11-05_15h02.31.124	001-EEG_SVR_Officel	2022.2.5	59.93576085079241		8.871999999999957	1_sub-pilot048_SVR_EEG_block3-4.protocol.csv	step7	1266	126.04	STIMULATE	49.6	49.5	49.5	49.5	49.7	7	942.18
929.116	0	929116	10hz	10003	2	0	2	0	2.0	0.0	2.0	0.0					1046.632842799998	1053.7264315000502	1053.7264315000502	4.5	['4', 'a', '5', 'return']	[2.461983599991072, 3.0621692999848165, 3.3417157999938354, 4.5179229999776]	7.08	6.45	2.0	10hz	high_pain	49.5	1066.7262191000043			sub-048	250	48	48.4	49.5	COM5	COM15	COM3	2024-11-05_15h02.31.124	001-EEG_SVR_Officel	2022.2.5	59.93576085079241		7.0779999999999745	1_sub-pilot048_SVR_EEG_block3-4.protocol.csv	step7	1266	126.04	STIMULATE	49.6	49.5	49.5	49.5	49.7	7	942.18
936.316	0	936316	10/Hi	10001	2	0	2	0	2.0	0.0	2.0	0.0					1046.632842799998	1053.7264315000502	1053.7264315000502	4.5	['4', 'a', '5', 'return']	[2.461983599991072, 3.0621692999848165, 3.3417157999938354, 4.5179229999776]	7.08	6.45	2.0	10hz	high_pain	49.5	1066.7262191000043			sub-048	250	48	48.4	49.5	COM5	COM15	COM3	2024-11-05_15h02.31.124	001-EEG_SVR_Officel	2022.2.5	59.93576085079241		6.4500000000000455	1_sub-pilot048_SVR_EEG_block3-4.protocol.csv	step7	1266	126.04	STIMULATE	49.6	49.5	49.5	49.5	49.7	7	942.18
946.698	0	946698	wait	10004	2	0	2	0	3.0	0.0	3.0	0.0					1071.2929778000107	1077.5430728000356	1077.5430728000356	1.0	['1', 'return']	[2.077135299972724, 3.652953799988609]	6.25	5.72	3.0	40hz	low_pain	48.4	1090.5432967000525			sub-048	250	48	48.4	49.5	COM5	COM15	COM3	2024-11-05_15h02.31.124	001-EEG_SVR_Officel	2022.2.5	59.93576085079241		11.131999999999948	1_sub-pilot048_SVR_EEG_block3-4.protocol.csv	step9	1499	149.159	STIMULATE	48.4	48.4	48.3	48.4	48.4	9	965.299
952.933	0	952933	40hz	10003	2	0	2	0	3.0	0.0	3.0	0.0					1071.2929778000107	1077.5430728000356	1077.5430728000356	1.0	['1', 'return']	[2.077135299972724, 3.652953799988609]	6.25	5.72	3.0	40hz	low_pain	48.4	1090.5432967000525			sub-048	250	48	48.4	49.5	COM5	COM15	COM3	2024-11-05_15h02.31.124	001-EEG_SVR_Officel	2022.2.5	59.93576085079241		6.235000000000014	1_sub-pilot048_SVR_EEG_block3-4.protocol.csv	step9	1499	149.159	STIMULATE	48.4	48.4	48.3	48.4	48.4	9	965.299
959.416	0	959416	40/Lo	10001	2	0	2	0	3.0	0.0	3.0	0.0					1071.2929778000107	1077.5430728000356	1077.5430728000356	1.0	['1', 'return']	[2.077135299972724, 3.652953799988609]	6.25	5.72	3.0	40hz	low_pain	48.4	1090.5432967000525			sub-048	250	48	48.4	49.5	COM5	COM15	COM3	2024-11-05_15h02.31.124	001-EEG_SVR_Officel	2022.2.5	59.93576085079241		5.733000000000061	1_sub-pilot048_SVR_EEG_block3-4.protocol.csv	step9	1499	149.159	STIMULATE	48.4	48.4	48.3	48.4	48.4	9	965.299
969.648	0	969648	wait	10004	2	0	2	0	4.0	0.0	4.0	0.0					1094.2429878000405	1101.8261996000074	1101.8261996000074	5.0	['5', 'return']	[1.9617105000070296, 3.257023799989838]	7.58	6.45	0.0	10hz	high_pain	49.5	1114.8265540000284			sub-048	250	48	48.4	49.5	COM5	COM15	COM3	2024-11-05_15h02.31.124	001-EEG_SVR_Officel	2022.2.5	59.93576085079241		10.981999999999971	1_sub-pilot048_SVR_EEG_block3-4.protocol.csv	step11	1751	174.112	STIMULATE	49.7	49.5	49.5	49.5	49.8	11	990.252
977.216	0	977216	10hz	10003	2	0	2	0	4.0	0.0	4.0	0.0					1094.2429878000405	1101.8261996000074	1101.8261996000074	5.0	['5', 'return']	[1.9617105000070296, 3.257023799989838]	7.58	6.45	0.0	10hz	high_pain	49.5	1114.8265540000284			sub-048	250	48	48.4	49.5	COM5	COM15	COM3	2024-11-05_15h02.31.124	001-EEG_SVR_Officel	2022.2.5	59.93576085079241		7.567999999999984	1_sub-pilot048_SVR_EEG_block3-4.protocol.csv	step11	1751	174.112	STIMULATE	49.7	49.5	49.5	49.5	49.8	11	990.252
984.432	0	984432	10/Hi	10001	2	0	2	0	4.0	0.0	4.0	0.0					1094.2429878000405	1101.8261996000074	1101.8261996000074	5.0	['5', 'return']	[1.9617105000070296, 3.257023799989838]	7.58	6.45	0.0	10hz	high_pain	49.5	1114.8265540000284			sub-048	250	48	48.4	49.5	COM5	COM15	COM3	2024-11-05_15h02.31.124	001-EEG_SVR_Officel	2022.2.5	59.93576085079241		6.466000000000008	1_sub-pilot048_SVR_EEG_block3-4.protocol.csv	step11	1751	174.112	STIMULATE	49.7	49.5	49.5	49.5	49.8	11	990.252
993.531	0	993531	wait	10004	2	0	2	0	5.0	0.0	5.0	0.0					1118.1257864000509	1125.2590065000113	1125.2590065000113	3.0	['3', 'return']	[1.937443999981042, 2.7289485999499448]	7.12	5.98	1.0	20hz	high_pain	49.5	1138.2593407000531			sub-048	250	48	48.4	49.5	COM5	COM15	COM3	2024-11-05_15h02.31.124	001-EEG_SVR_Officel	2022.2.5	59.93576085079241		9.848999999999933	1_sub-pilot048_SVR_EEG_block3-4.protocol.csv	step13	1983	197.11	STIMULATE	49.6	49.5	49.5	49.5	49.7	13	1013.25
1000.649	0	1000649	20hz	10003	2	0	2	0	5.0	0.0	5.0	0.0					1118.1257864000509	1125.2590065000113	1125.2590065000113	3.0	['3', 'return']	[1.937443999981042, 2.7289485999499448]	7.12	5.98	1.0	20hz	high_pain	49.5	1138.2593407000531			sub-048	250	48	48.4	49.5	COM5	COM15	COM3	2024-11-05_15h02.31.124	001-EEG_SVR_Officel	2022.2.5	59.93576085079241		7.118000000000052	1_sub-pilot048_SVR_EEG_block3-4.protocol.csv	step13	1983	197.11	STIMULATE	49.6	49.5	49.5	49.5	49.7	13	1013.25
1007.387	0	1007387	20/Hi	10001	2	0	2	0	5.0	0.0	5.0	0.0					1118.1257864000509	1125.2590065000113	1125.2590065000113	3.0	['3', 'return']	[1.937443999981042, 2.7289485999499448]	7.12	5.98	1.0	20hz	high_pain	49.5	1138.2593407000531			sub-048	250	48	48.4	49.5	COM5	COM15	COM3	2024-11-05_15h02.31.124	001-EEG_SVR_Officel	2022.2.5	59.93576085079241		5.987999999999943	1_sub-pilot048_SVR_EEG_block3-4.protocol.csv	step13	1983	197.11	STIMULATE	49.6	49.5	49.5	49.5	49.7	13	1013.25
1016.431	0	1016431	wait	10004	2	0	2	0	6.0	0.0	6.0	0.0					1141.0256233999971	1148.6590785000008	1148.6590785000008	2.0	['2', 'return']	[1.6571657999884337, 2.440623999980744]	7.63	5.71	2.0	20hz	low_pain	48.4	1161.6593002000009			sub-048	250	48	48.4	49.5	COM5	COM15	COM3	2024-11-05_15h02.31.124	001-EEG_SVR_Officel	2022.2.5	59.93576085079241		9.794000000000096	1_sub-pilot048_SVR_EEG_block3-4.protocol.csv	step15	2216	220.219	STIMULATE	48.4	48.4	48.4	48.4	48.7	15	1036.359
1024.049	0	1024049	20hz	10003	2	0	2	0	6.0	0.0	6.0	0.0					1141.0256233999971	1148.6590785000008	1148.6590785000008	2.0	['2', 'return']	[1.6571657999884337, 2.440623999980744]	7.63	5.71	2.0	20hz	low_pain	48.4	1161.6593002000009			sub-048	250	48	48.4	49.5	COM5	COM15	COM3	2024-11-05_15h02.31.124	001-EEG_SVR_Officel	2022.2.5	59.93576085079241		7.617999999999938	1_sub-pilot048_SVR_EEG_block3-4.protocol.csv	step15	2216	220.219	STIMULATE	48.4	48.4	48.4	48.4	48.7	15	1036.359
1030.515	0	1030515	20/Lo	10001	2	0	2	0	6.0	0.0	6.0	0.0					1141.0256233999971	1148.6590785000008	1148.6590785000008	2.0	['2', 'return']	[1.6571657999884337, 2.440623999980744]	7.63	5.71	2.0	20hz	low_pain	48.4	1161.6593002000009			sub-048	250	48	48.4	49.5	COM5	COM15	COM3	2024-11-05_15h02.31.124	001-EEG_SVR_Officel	2022.2.5	59.93576085079241		5.716000000000122	1_sub-pilot048_SVR_EEG_block3-4.protocol.csv	step15	2216	220.219	STIMULATE	48.4	48.4	48.4	48.4	48.7	15	1036.359
1039.548	0	1039548	wait	10004	2	0	2	0	7.0	0.0	7.0	0.0					1164.1422391000087	1169.9254826000542	1169.9254826000542	4.5	['4', 'a', '5', 'return']	[1.4147110999911092, 1.7822005999623798, 2.294283800001722, 3.2383130000089295]	5.77	6.34	3.0	10hz	high_pain	49.5	1182.9259049000102			sub-048	250	48	48.4	49.5	COM5	COM15	COM3	2024-11-05_15h02.31.124	001-EEG_SVR_Officel	2022.2.5	59.93576085079241		9.782999999999902	1_sub-pilot048_SVR_EEG_block3-4.protocol.csv	step17	2437	242.128	STIMULATE	49.5	49.5	49.5	49.5	49.5	17	1058.268
1045.315	0	1045315	10hz	10003	2	0	2	0	7.0	0.0	7.0	0.0					1164.1422391000087	1169.9254826000542	1169.9254826000542	4.5	['4', 'a', '5', 'return']	[1.4147110999911092, 1.7822005999623798, 2.294283800001722, 3.2383130000089295]	5.77	6.34	3.0	10hz	high_pain	49.5	1182.9259049000102			sub-048	250	48	48.4	49.5	COM5	COM15	COM3	2024-11-05_15h02.31.124	001-EEG_SVR_Officel	2022.2.5	59.93576085079241		5.767000000000053	1_sub-pilot048_SVR_EEG_block3-4.protocol.csv	step17	2437	242.128	STIMULATE	49.5	49.5	49.5	49.5	49.5	17	1058.268
1052.415	0	1052415	10/Hi	10001	2	0	2	0	7.0	0.0	7.0	0.0					1164.1422391000087	1169.9254826000542	1169.9254826000542	4.5	['4', 'a', '5', 'return']	[1.4147110999911092, 1.7822005999623798, 2.294283800001722, 3.2383130000089295]	5.77	6.34	3.0	10hz	high_pain	49.5	1182.9259049000102			sub-048	250	48	48.4	49.5	COM5	COM15	COM3	2024-11-05_15h02.31.124	001-EEG_SVR_Officel	2022.2.5	59.93576085079241		6.349999999999909	1_sub-pilot048_SVR_EEG_block3-4.protocol.csv	step17	2437	242.128	STIMULATE	49.5	49.5	49.5	49.5	49.5	17	1058.268
1061.614	0	1061614	wait	10004	2	0	2	0	8.0	0.0	8.0	0.0					1186.2091538000386	1192.8088521000464	1192.8088521000464	4.0	['4', 'return']	[1.734025500016287, 2.3897140999906696]	6.6	5.44	0.0	controle	high_pain	49.5				sub-048	250	48	48.4	49.5	COM5	COM15	COM3	2024-11-05_15h02.31.124	001-EEG_SVR_Officel	2022.2.5	59.93576085079241		9.94900000000007	1_sub-pilot048_SVR_EEG_block3-4.protocol.csv	step19	2658	264.013	STIMULATE	49.7	49.5	49.5	49.5	49.8	19	1080.153
1068.198	0	1068198	CNhz	10003	2	0	2	0	8.0	0.0	8.0	0.0					1186.2091538000386	1192.8088521000464	1192.8088521000464	4.0	['4', 'return']	[1.734025500016287, 2.3897140999906696]	6.6	5.44	0.0	controle	high_pain	49.5				sub-048	250	48	48.4	49.5	COM5	COM15	COM3	2024-11-05_15h02.31.124	001-EEG_SVR_Officel	2022.2.5	59.93576085079241		6.58400000000006	1_sub-pilot048_SVR_EEG_block3-4.protocol.csv	step19	2658	264.013	STIMULATE	49.7	49.5	49.5	49.5	49.8	19	1080.153
1074.398	0	1074398	CN/Hi	10001	2	0	2	0	8.0	0.0	8.0	0.0					1186.2091538000386	1192.8088521000464	1192.8088521000464	4.0	['4', 'return']	[1.734025500016287, 2.3897140999906696]	6.6	5.44	0.0	controle	high_pain	49.5				sub-048	250	48	48.4	49.5	COM5	COM15	COM3	2024-11-05_15h02.31.124	001-EEG_SVR_Officel	2022.2.5	59.93576085079241		5.449999999999818	1_sub-pilot048_SVR_EEG_block3-4.protocol.csv	step19	2658	264.013	STIMULATE	49.7	49.5	49.5	49.5	49.8	19	1080.153
1083.647	0	1083647	wait	10004	2	0	2	0	9.0	0.0	9.0	0.0					1208.2421961000073	1215.1255329000414	1215.1255329000414	4.0	['4', 'return']	[2.2953991999966092, 3.1266360000008717]	6.87	5.27	1.0	40hz	high_pain	49.5	1228.125239200017			sub-048	250	48	48.4	49.5	COM5	COM15	COM3	2024-11-05_15h02.31.124	001-EEG_SVR_Officel	2022.2.5	59.93576085079241		9.999000000000024	1_sub-pilot048_SVR_EEG_block3-4.protocol.csv	step21	2883	286.346	STIMULATE	49.5	49.5	49.5	49.5	49.8	21	1102.4859999999999
1090.515	0	1090515	40hz	10003	2	0	2	0	9.0	0.0	9.0	0.0					1208.2421961000073	1215.1255329000414	1215.1255329000414	4.0	['4', 'return']	[2.2953991999966092, 3.1266360000008717]	6.87	5.27	1.0	40hz	high_pain	49.5	1228.125239200017			sub-048	250	48	48.4	49.5	COM5	COM15	COM3	2024-11-05_15h02.31.124	001-EEG_SVR_Officel	2022.2.5	59.93576085079241		6.8680000000001655	1_sub-pilot048_SVR_EEG_block3-4.protocol.csv	step21	2883	286.346	STIMULATE	49.5	49.5	49.5	49.5	49.8	21	1102.4859999999999
1096.547	0	1096547	40/Hi	10001	2	0	2	0	9.0	0.0	9.0	0.0					1208.2421961000073	1215.1255329000414	1215.1255329000414	4.0	['4', 'return']	[2.2953991999966092, 3.1266360000008717]	6.87	5.27	1.0	40hz	high_pain	49.5	1228.125239200017			sub-048	250	48	48.4	49.5	COM5	COM15	COM3	2024-11-05_15h02.31.124	001-EEG_SVR_Officel	2022.2.5	59.93576085079241		5.281999999999925	1_sub-pilot048_SVR_EEG_block3-4.protocol.csv	step21	2883	286.346	STIMULATE	49.5	49.5	49.5	49.5	49.8	21	1102.4859999999999
1106.697	0	1106697	wait	10004	2	0	2	0	10.0	0.0	10.0	0.0					1231.2916763999965	1237.2749271000505	1237.2749271000505	3.0	['3', 'return']	[1.928866000031121, 2.657060800003819]	5.97	5.12	2.0	40hz	low_pain	48.4				sub-048	250	48	48.4	49.5	COM5	COM15	COM3	2024-11-05_15h02.31.124	001-EEG_SVR_Officel	2022.2.5	59.93576085079241		10.899999999999864	1_sub-pilot048_SVR_EEG_block3-4.protocol.csv	step23	3104	308.216	STIMULATE	48.6	48.4	48.4	48.4	48.4	23	1124.356
1112.664	0	1112664	40hz	10003	2	0	2	0	10.0	0.0	10.0	0.0					1231.2916763999965	1237.2749271000505	1237.2749271000505	3.0	['3', 'return']	[1.928866000031121, 2.657060800003819]	5.97	5.12	2.0	40hz	low_pain	48.4				sub-048	250	48	48.4	49.5	COM5	COM15	COM3	2024-11-05_15h02.31.124	001-EEG_SVR_Officel	2022.2.5	59.93576085079241		5.967000000000098	1_sub-pilot048_SVR_EEG_block3-4.protocol.csv	step23	3104	308.216	STIMULATE	48.6	48.4	48.4	48.4	48.4	23	1124.356
1118.547	0	1118547	40/Lo	10001	2	0	2	0	10.0	0.0	10.0	0.0					1231.2916763999965	1237.2749271000505	1237.2749271000505	3.0	['3', 'return']	[1.928866000031121, 2.657060800003819]	5.97	5.12	2.0	40hz	low_pain	48.4				sub-048	250	48	48.4	49.5	COM5	COM15	COM3	2024-11-05_15h02.31.124	001-EEG_SVR_Officel	2022.2.5	59.93576085079241		5.133000000000038	1_sub-pilot048_SVR_EEG_block3-4.protocol.csv	step23	3104	308.216	STIMULATE	48.6	48.4	48.4	48.4	48.4	23	1124.356
1128.38	0	1128380	wait	10004	2	0	2	0	11.0	0.0	11.0	0.0					1252.974798900017	1259.746935800009	1259.746935800009	3.0	['3', 'return']	[1.9983160000410862, 3.142236399988178]	6.77	5.14	3.0	40hz	high_pain	49.5				sub-048	250	48	48.4	49.5	COM5	COM15	COM3	2024-11-05_15h02.31.124	001-EEG_SVR_Officel	2022.2.5	59.93576085079241		10.583000000000084	1_sub-pilot048_SVR_EEG_block3-4.protocol.csv	step25	3331	330.765	STIMULATE	49.5	49.5	49.5	49.5	49.5	25	1146.905
1135.136	0	1135136	40hz	10003	2	0	2	0	11.0	0.0	11.0	0.0					1252.974798900017	1259.746935800009	1259.746935800009	3.0	['3', 'return']	[1.9983160000410862, 3.142236399988178]	6.77	5.14	3.0	40hz	high_pain	49.5				sub-048	250	48	48.4	49.5	COM5	COM15	COM3	2024-11-05_15h02.31.124	001-EEG_SVR_Officel	2022.2.5	59.93576085079241		6.755999999999858	1_sub-pilot048_SVR_EEG_block3-4.protocol.csv	step25	3331	330.765	STIMULATE	49.5	49.5	49.5	49.5	49.5	25	1146.905
1141.03	0	1141030	40/Hi	10001	2	0	2	0	11.0	0.0	11.0	0.0					1252.974798900017	1259.746935800009	1259.746935800009	3.0	['3', 'return']	[1.9983160000410862, 3.142236399988178]	6.77	5.14	3.0	40hz	high_pain	49.5				sub-048	250	48	48.4	49.5	COM5	COM15	COM3	2024-11-05_15h02.31.124	001-EEG_SVR_Officel	2022.2.5	59.93576085079241		5.1440000000000055	1_sub-pilot048_SVR_EEG_block3-4.protocol.csv	step25	3331	330.765	STIMULATE	49.5	49.5	49.5	49.5	49.5	25	1146.905
1151.346	0	1151346	wait	10004	2	0	2	0	12.0	0.0	12.0	0.0					1275.941450600047	1281.631108600006	1281.631108600006	4.0	['4', 'return']	[1.7065097999875434, 2.8344948000158183]	5.69	5.62	0.0	20hz	high_pain	49.5				sub-048	250	48	48.4	49.5	COM5	COM15	COM3	2024-11-05_15h02.31.124	001-EEG_SVR_Officel	2022.2.5	59.93576085079241		11.066000000000031	1_sub-pilot048_SVR_EEG_block3-4.protocol.csv	step27	3556	353.082	STIMULATE	49.7	49.5	49.5	49.5	49.8	27	1169.222
1157.02	0	1157020	20hz	10003	2	0	2	0	12.0	0.0	12.0	0.0					1275.941450600047	1281.631108600006	1281.631108600006	4.0	['4', 'return']	[1.7065097999875434, 2.8344948000158183]	5.69	5.62	0.0	20hz	high_pain	49.5				sub-048	250	48	48.4	49.5	COM5	COM15	COM3	2024-11-05_15h02.31.124	001-EEG_SVR_Officel	2022.2.5	59.93576085079241		5.673999999999978	1_sub-pilot048_SVR_EEG_block3-4.protocol.csv	step27	3556	353.082	STIMULATE	49.7	49.5	49.5	49.5	49.8	27	1169.222
1163.397	0	1163397	20/Hi	10001	2	0	2	0	12.0	0.0	12.0	0.0					1275.941450600047	1281.631108600006	1281.631108600006	4.0	['4', 'return']	[1.7065097999875434, 2.8344948000158183]	5.69	5.62	0.0	20hz	high_pain	49.5				sub-048	250	48	48.4	49.5	COM5	COM15	COM3	2024-11-05_15h02.31.124	001-EEG_SVR_Officel	2022.2.5	59.93576085079241		5.626999999999953	1_sub-pilot048_SVR_EEG_block3-4.protocol.csv	step27	3556	353.082	STIMULATE	49.7	49.5	49.5	49.5	49.8	27	1169.222
1172.93	0	1172930	wait	10004	2	0	2	0	13.0	0.0	13.0	0.0					1297.524907700019	1304.274790800002	1304.274790800002	2.0	['2', 'return']	[2.002004300011322, 3.18597500002943]	6.75	5.73	1.0	20hz	low_pain	48.4	1317.2743111000163			sub-048	250	48	48.4	49.5	COM5	COM15	COM3	2024-11-05_15h02.31.124	001-EEG_SVR_Officel	2022.2.5	59.93576085079241		10.28300000000013	1_sub-pilot048_SVR_EEG_block3-4.protocol.csv	step29	3787	375.959	STIMULATE	48.6	48.4	48.4	48.4	48.6	29	1192.099
1179.664	0	1179664	20hz	10003	2	0	2	0	13.0	0.0	13.0	0.0					1297.524907700019	1304.274790800002	1304.274790800002	2.0	['2', 'return']	[2.002004300011322, 3.18597500002943]	6.75	5.73	1.0	20hz	low_pain	48.4	1317.2743111000163			sub-048	250	48	48.4	49.5	COM5	COM15	COM3	2024-11-05_15h02.31.124	001-EEG_SVR_Officel	2022.2.5	59.93576085079241		6.733999999999924	1_sub-pilot048_SVR_EEG_block3-4.protocol.csv	step29	3787	375.959	STIMULATE	48.6	48.4	48.4	48.4	48.6	29	1192.099
1186.151	0	1186151	20/Lo	10001	2	0	2	0	13.0	0.0	13.0	0.0					1297.524907700019	1304.274790800002	1304.274790800002	2.0	['2', 'return']	[2.002004300011322, 3.18597500002943]	6.75	5.73	1.0	20hz	low_pain	48.4	1317.2743111000163			sub-048	250	48	48.4	49.5	COM5	COM15	COM3	2024-11-05_15h02.31.124	001-EEG_SVR_Officel	2022.2.5	59.93576085079241		5.73700000000008	1_sub-pilot048_SVR_EEG_block3-4.protocol.csv	step29	3787	375.959	STIMULATE	48.6	48.4	48.4	48.4	48.6	29	1192.099
1195.913	0	1195913	wait	10004	2	0	2	0	14.0	0.0	14.0	0.0					1320.507960900024	1327.741623400012	1327.741623400012	2.5	['2', 'a', '5', 'return']	[1.8622323999879882, 2.103456399985589, 2.678389699955005, 3.4067546000005677]	7.23	5.21	2.0	10hz	low_pain	48.4	1340.7416133000515			sub-048	250	48	48.4	49.5	COM5	COM15	COM3	2024-11-05_15h02.31.124	001-EEG_SVR_Officel	2022.2.5	59.93576085079241		10.511999999999944	1_sub-pilot048_SVR_EEG_block3-4.protocol.csv	step31	4018	398.855	STIMULATE	48.4	48.4	48.4	48.4	48.6	31	1214.995
1203.13	0	1203130	10hz	10003	2	0	2	0	14.0	0.0	14.0	0.0					1320.507960900024	1327.741623400012	1327.741623400012	2.5	['2', 'a', '5', 'return']	[1.8622323999879882, 2.103456399985589, 2.678389699955005, 3.4067546000005677]	7.23	5.21	2.0	10hz	low_pain	48.4	1340.7416133000515			sub-048	250	48	48.4	49.5	COM5	COM15	COM3	2024-11-05_15h02.31.124	001-EEG_SVR_Officel	2022.2.5	59.93576085079241		7.217000000000098	1_sub-pilot048_SVR_EEG_block3-4.protocol.csv	step31	4018	398.855	STIMULATE	48.4	48.4	48.4	48.4	48.6	31	1214.995
1209.096	0	1209096	10/Lo	10001	2	0	2	0	14.0	0.0	14.0	0.0					1320.507960900024	1327.741623400012	1327.741623400012	2.5	['2', 'a', '5', 'return']	[1.8622323999879882, 2.103456399985589, 2.678389699955005, 3.4067546000005677]	7.23	5.21	2.0	10hz	low_pain	48.4	1340.7416133000515			sub-048	250	48	48.4	49.5	COM5	COM15	COM3	2024-11-05_15h02.31.124	001-EEG_SVR_Officel	2022.2.5	59.93576085079241		5.2159999999998945	1_sub-pilot048_SVR_EEG_block3-4.protocol.csv	step31	4018	398.855	STIMULATE	48.4	48.4	48.4	48.4	48.6	31	1214.995
1219.598	0	1219598	wait	10004	2	0	2	0	15.0	0.0	15.0	0.0					1344.193185500044	1351.7908272000495	1351.7908272000495	4.5	['4', 'a', '5', 'return']	[2.077098800044041, 2.5650453999987803, 2.821088000026066, 3.973541999992449]	7.59	5.07	3.0	controle	high_pain	49.5	1364.7910741000087			sub-048	250	48	48.4	49.5	COM5	COM15	COM3	2024-11-05_15h02.31.124	001-EEG_SVR_Officel	2022.2.5	59.93576085079241		11.251999999999953	1_sub-pilot048_SVR_EEG_block3-4.protocol.csv	step33	4259	422.786	STIMULATE	49.5	49.5	49.5	49.5	49.5	33	1238.926
1227.182	0	1227182	CNhz	10003	2	0	2	0	15.0	0.0	15.0	0.0					1344.193185500044	1351.7908272000495	1351.7908272000495	4.5	['4', 'a', '5', 'return']	[2.077098800044041, 2.5650453999987803, 2.821088000026066, 3.973541999992449]	7.59	5.07	3.0	controle	high_pain	49.5	1364.7910741000087			sub-048	250	48	48.4	49.5	COM5	COM15	COM3	2024-11-05_15h02.31.124	001-EEG_SVR_Officel	2022.2.5	59.93576085079241		7.58400000000006	1_sub-pilot048_SVR_EEG_block3-4.protocol.csv	step33	4259	422.786	STIMULATE	49.5	49.5	49.5	49.5	49.5	33	1238.926
1233.013	0	1233013	CN/Hi	10001	2	0	2	0	15.0	0.0	15.0	0.0					1344.193185500044	1351.7908272000495	1351.7908272000495	4.5	['4', 'a', '5', 'return']	[2.077098800044041, 2.5650453999987803, 2.821088000026066, 3.973541999992449]	7.59	5.07	3.0	controle	high_pain	49.5	1364.7910741000087			sub-048	250	48	48.4	49.5	COM5	COM15	COM3	2024-11-05_15h02.31.124	001-EEG_SVR_Officel	2022.2.5	59.93576085079241		5.080999999999904	1_sub-pilot048_SVR_EEG_block3-4.protocol.csv	step33	4259	422.786	STIMULATE	49.5	49.5	49.5	49.5	49.5	33	1238.926
1304.228	0	1304228	wait	10004	3	0	3	0	0.0	0.0	0.0	0.0			p	2.447094700008165	1428.8235082000028	1435.52379810001	1435.52379810001	0.0	['0', 'return']	[4.9360430999659, 5.920480199973099]	6.7	5.81	0.0	40hz	low_pain	48.4	1448.5240521000233			sub-048	250	48	48.4	49.5	COM5	COM15	COM3	2024-11-05_15h02.31.124	001-EEG_SVR_Officel	2022.2.5	59.93576085079241		71.96500000000015	1_sub-pilot048_SVR_EEG_block3-4.protocol.csv	step35	5106	507.299	STIMULATE	48.7	48.4	48.4	48.4	48.4	35	1323.397
1310.913	0	1310913	40hz	10003	3	0	3	0	0.0	0.0	0.0	0.0			p	2.447094700008165	1428.8235082000028	1435.52379810001	1435.52379810001	0.0	['0', 'return']	[4.9360430999659, 5.920480199973099]	6.7	5.81	0.0	40hz	low_pain	48.4	1448.5240521000233			sub-048	250	48	48.4	49.5	COM5	COM15	COM3	2024-11-05_15h02.31.124	001-EEG_SVR_Officel	2022.2.5	59.93576085079241		6.684999999999945	1_sub-pilot048_SVR_EEG_block3-4.protocol.csv	step35	5106	507.299	STIMULATE	48.7	48.4	48.4	48.4	48.4	35	1323.397
1317.479	0	1317479	40/Lo	10001	3	0	3	0	0.0	0.0	0.0	0.0			p	2.447094700008165	1428.8235082000028	1435.52379810001	1435.52379810001	0.0	['0', 'return']	[4.9360430999659, 5.920480199973099]	6.7	5.81	0.0	40hz	low_pain	48.4	1448.5240521000233			sub-048	250	48	48.4	49.5	COM5	COM15	COM3	2024-11-05_15h02.31.124	001-EEG_SVR_Officel	2022.2.5	59.93576085079241		5.816000000000031	1_sub-pilot048_SVR_EEG_block3-4.protocol.csv	step35	5106	507.299	STIMULATE	48.7	48.4	48.4	48.4	48.4	35	1323.397
1329.895	0	1329895	wait	10004	3	0	3	0	1.0	0.0	1.0	0.0					1454.4903230000054	1460.090310700005	1460.090310700005	3.0	['3', 'return']	[1.8105911999591626, 3.04369909997331]	5.59	6.21	1.0	controle	high_pain	49.5	1473.0901481000474			sub-048	250	48	48.4	49.5	COM5	COM15	COM3	2024-11-05_15h02.31.124	001-EEG_SVR_Officel	2022.2.5	59.93576085079241		13.16599999999994	1_sub-pilot048_SVR_EEG_block3-4.protocol.csv	step37	5358	532.231	STIMULATE	49.7	49.5	49.5	49.5	49.8	37	1348.3290000000002
1335.479	0	1335479	CNhz	10003	3	0	3	0	1.0	0.0	1.0	0.0					1454.4903230000054	1460.090310700005	1460.090310700005	3.0	['3', 'return']	[1.8105911999591626, 3.04369909997331]	5.59	6.21	1.0	controle	high_pain	49.5	1473.0901481000474			sub-048	250	48	48.4	49.5	COM5	COM15	COM3	2024-11-05_15h02.31.124	001-EEG_SVR_Officel	2022.2.5	59.93576085079241		5.58400000000006	1_sub-pilot048_SVR_EEG_block3-4.protocol.csv	step37	5358	532.231	STIMULATE	49.7	49.5	49.5	49.5	49.8	37	1348.3290000000002
1342.445	0	1342445	CN/Hi	10001	3	0	3	0	1.0	0.0	1.0	0.0					1454.4903230000054	1460.090310700005	1460.090310700005	3.0	['3', 'return']	[1.8105911999591626, 3.04369909997331]	5.59	6.21	1.0	controle	high_pain	49.5	1473.0901481000474			sub-048	250	48	48.4	49.5	COM5	COM15	COM3	2024-11-05_15h02.31.124	001-EEG_SVR_Officel	2022.2.5	59.93576085079241		6.2159999999998945	1_sub-pilot048_SVR_EEG_block3-4.protocol.csv	step37	5358	532.231	STIMULATE	49.7	49.5	49.5	49.5	49.8	37	1348.3290000000002
1351.578	0	1351578	wait	10004	3	0	3	0	2.0	0.0	2.0	0.0					1476.1731368000037	1483.223481699999	1483.223481699999	4.5	['4', 'a', '5', 'return']	[1.4448031000210904, 2.156672900018748, 2.637051599973347, 3.9009268999798223]	7.05	5.66	2.0	40hz	high_pain	49.5	1496.2234492000423			sub-048	250	48	48.4	49.5	COM5	COM15	COM3	2024-11-05_15h02.31.124	001-EEG_SVR_Officel	2022.2.5	59.93576085079241		9.883000000000038	1_sub-pilot048_SVR_EEG_block3-4.protocol.csv	step39	5585	554.749	STIMULATE	49.8	49.5	49.5	49.5	49.5	39	1370.8470000000002
1358.612	0	1358612	40hz	10003	3	0	3	0	2.0	0.0	2.0	0.0					1476.1731368000037	1483.223481699999	1483.223481699999	4.5	['4', 'a', '5', 'return']	[1.4448031000210904, 2.156672900018748, 2.637051599973347, 3.9009268999798223]	7.05	5.66	2.0	40hz	high_pain	49.5	1496.2234492000423			sub-048	250	48	48.4	49.5	COM5	COM15	COM3	2024-11-05_15h02.31.124	001-EEG_SVR_Officel	2022.2.5	59.93576085079241		7.0340000000001055	1_sub-pilot048_SVR_EEG_block3-4.protocol.csv	step39	5585	554.749	STIMULATE	49.8	49.5	49.5	49.5	49.5	39	1370.8470000000002
1365.028	0	1365028	40/Hi	10001	3	0	3	0	2.0	0.0	2.0	0.0					1476.1731368000037	1483.223481699999	1483.223481699999	4.5	['4', 'a', '5', 'return']	[1.4448031000210904, 2.156672900018748, 2.637051599973347, 3.9009268999798223]	7.05	5.66	2.0	40hz	high_pain	49.5	1496.2234492000423			sub-048	250	48	48.4	49.5	COM5	COM15	COM3	2024-11-05_15h02.31.124	001-EEG_SVR_Officel	2022.2.5	59.93576085079241		5.66599999999994	1_sub-pilot048_SVR_EEG_block3-4.protocol.csv	step39	5585	554.749	STIMULATE	49.8	49.5	49.5	49.5	49.5	39	1370.8470000000002
1375.578	0	1375578	wait	10004	3	0	3	0	3.0	0.0	3.0	0.0					1500.1729815000435	1505.4422944000107	1505.4422944000107	4.0	['4', 'return']	[1.8386877999873832, 2.830966499983333]	5.26	5.17	3.0	20hz	low_pain	48.4				sub-048	250	48	48.4	49.5	COM5	COM15	COM3	2024-11-05_15h02.31.124	001-EEG_SVR_Officel	2022.2.5	59.93576085079241		11.299999999999955	1_sub-pilot048_SVR_EEG_block3-4.protocol.csv	step41	5805	576.59	STIMULATE	48.4	48.4	48.4	48.4	48.4	41	1392.688
1380.829	0	1380829	20hz	10003	3	0	3	0	3.0	0.0	3.0	0.0					1500.1729815000435	1505.4422944000107	1505.4422944000107	4.0	['4', 'return']	[1.8386877999873832, 2.830966499983333]	5.26	5.17	3.0	20hz	low_pain	48.4				sub-048	250	48	48.4	49.5	COM5	COM15	COM3	2024-11-05_15h02.31.124	001-EEG_SVR_Officel	2022.2.5	59.93576085079241		5.250999999999976	1_sub-pilot048_SVR_EEG_block3-4.protocol.csv	step41	5805	576.59	STIMULATE	48.4	48.4	48.4	48.4	48.4	41	1392.688
1386.764	0	1386764	20/Lo	10001	3	0	3	0	3.0	0.0	3.0	0.0					1500.1729815000435	1505.4422944000107	1505.4422944000107	4.0	['4', 'return']	[1.8386877999873832, 2.830966499983333]	5.26	5.17	3.0	20hz	low_pain	48.4				sub-048	250	48	48.4	49.5	COM5	COM15	COM3	2024-11-05_15h02.31.124	001-EEG_SVR_Officel	2022.2.5	59.93576085079241		5.184999999999945	1_sub-pilot048_SVR_EEG_block3-4.protocol.csv	step41	5805	576.59	STIMULATE	48.4	48.4	48.4	48.4	48.4	41	1392.688
1396.727	0	1396727	wait	10004	3	0	3	0	4.0	0.0	4.0	0.0					1521.3228675000137	1527.458892100025	1527.458892100025	3.0	['3', 'return']	[1.7742048999643885, 2.686429599998519]	6.12	6.25	0.0	20hz	low_pain	48.4				sub-048	250	48	48.4	49.5	COM5	COM15	COM3	2024-11-05_15h02.31.124	001-EEG_SVR_Officel	2022.2.5	59.93576085079241		10.713000000000193	1_sub-pilot048_SVR_EEG_block3-4.protocol.csv	step43	6038	599.669	STIMULATE	48.7	48.4	48.4	48.3	48.4	43	1415.767
1402.845	0	1402845	20hz	10003	3	0	3	0	4.0	0.0	4.0	0.0					1521.3228675000137	1527.458892100025	1527.458892100025	3.0	['3', 'return']	[1.7742048999643885, 2.686429599998519]	6.12	6.25	0.0	20hz	low_pain	48.4				sub-048	250	48	48.4	49.5	COM5	COM15	COM3	2024-11-05_15h02.31.124	001-EEG_SVR_Officel	2022.2.5	59.93576085079241		6.117999999999938	1_sub-pilot048_SVR_EEG_block3-4.protocol.csv	step43	6038	599.669	STIMULATE	48.7	48.4	48.4	48.3	48.4	43	1415.767
1409.861	0	1409861	20/Lo	10001	3	0	3	0	4.0	0.0	4.0	0.0					1521.3228675000137	1527.458892100025	1527.458892100025	3.0	['3', 'return']	[1.7742048999643885, 2.686429599998519]	6.12	6.25	0.0	20hz	low_pain	48.4				sub-048	250	48	48.4	49.5	COM5	COM15	COM3	2024-11-05_15h02.31.124	001-EEG_SVR_Officel	2022.2.5	59.93576085079241		6.266000000000076	1_sub-pilot048_SVR_EEG_block3-4.protocol.csv	step43	6038	599.669	STIMULATE	48.7	48.4	48.4	48.3	48.4	43	1415.767
1418.594	0	1418594	wait	10004	3	0	3	0	5.0	0.0	5.0	0.0					1543.1894080000347	1548.9393069000216	1548.9393069000216	2.5	['2', 'a', '5', 'return']	[2.3285679999971762, 2.5527408000198193, 3.3686405000044033, 4.200741300010122]	5.75	5.2	1.0	40hz	low_pain	48.4				sub-048	250	48	48.4	49.5	COM5	COM15	COM3	2024-11-05_15h02.31.124	001-EEG_SVR_Officel	2022.2.5	59.93576085079241		9.482999999999947	1_sub-pilot048_SVR_EEG_block3-4.protocol.csv	step45	6244	620.067	STIMULATE	48.4	48.4	48.4	48.4	48.6	45	1436.165
1424.328	0	1424328	40hz	10003	3	0	3	0	5.0	0.0	5.0	0.0					1543.1894080000347	1548.9393069000216	1548.9393069000216	2.5	['2', 'a', '5', 'return']	[2.3285679999971762, 2.5527408000198193, 3.3686405000044033, 4.200741300010122]	5.75	5.2	1.0	40hz	low_pain	48.4				sub-048	250	48	48.4	49.5	COM5	COM15	COM3	2024-11-05_15h02.31.124	001-EEG_SVR_Officel	2022.2.5	59.93576085079241		5.733999999999924	1_sub-pilot048_SVR_EEG_block3-4.protocol.csv	step45	6244	620.067	STIMULATE	48.4	48.4	48.4	48.4	48.6	45	1436.165
1430.278	0	1430278	40/Lo	10001	3	0	3	0	5.0	0.0	5.0	0.0					1543.1894080000347	1548.9393069000216	1548.9393069000216	2.5	['2', 'a', '5', 'return']	[2.3285679999971762, 2.5527408000198193, 3.3686405000044033, 4.200741300010122]	5.75	5.2	1.0	40hz	low_pain	48.4				sub-048	250	48	48.4	49.5	COM5	COM15	COM3	2024-11-05_15h02.31.124	001-EEG_SVR_Officel	2022.2.5	59.93576085079241		5.2000000000000455	1_sub-pilot048_SVR_EEG_block3-4.protocol.csv	step45	6244	620.067	STIMULATE	48.4	48.4	48.4	48.4	48.6	45	1436.165
1441.594	0	1441594	wait	10004	3	0	3	0	6.0	0.0	6.0	0.0					1566.1896082000458	1573.356301300053	1573.356301300053	4.5	['4', 'a', '5', 'return']	[1.7367245000205003, 4.072283899993636, 4.216809300007299, 5.52029960002983]	7.16	6.42	2.0	controle	high_pain	49.5	1586.3560913000256			sub-048	250	48	48.4	49.5	COM5	COM15	COM3	2024-11-05_15h02.31.124	001-EEG_SVR_Officel	2022.2.5	59.93576085079241		12.066000000000031	1_sub-pilot048_SVR_EEG_block3-4.protocol.csv	step47	6502	645.655	STIMULATE	49.5	49.5	49.5	49.5	49.7	47	1461.7530000000002
1448.745	0	1448745	CNhz	10003	3	0	3	0	6.0	0.0	6.0	0.0					1566.1896082000458	1573.356301300053	1573.356301300053	4.5	['4', 'a', '5', 'return']	[1.7367245000205003, 4.072283899993636, 4.216809300007299, 5.52029960002983]	7.16	6.42	2.0	controle	high_pain	49.5	1586.3560913000256			sub-048	250	48	48.4	49.5	COM5	COM15	COM3	2024-11-05_15h02.31.124	001-EEG_SVR_Officel	2022.2.5	59.93576085079241		7.15099999999984	1_sub-pilot048_SVR_EEG_block3-4.protocol.csv	step47	6502	645.655	STIMULATE	49.5	49.5	49.5	49.5	49.7	47	1461.7530000000002
1455.928	0	1455928	CN/Hi	10001	3	0	3	0	6.0	0.0	6.0	0.0					1566.1896082000458	1573.356301300053	1573.356301300053	4.5	['4', 'a', '5', 'return']	[1.7367245000205003, 4.072283899993636, 4.216809300007299, 5.52029960002983]	7.16	6.42	2.0	controle	high_pain	49.5	1586.3560913000256			sub-048	250	48	48.4	49.5	COM5	COM15	COM3	2024-11-05_15h02.31.124	001-EEG_SVR_Officel	2022.2.5	59.93576085079241		6.43300000000022	1_sub-pilot048_SVR_EEG_block3-4.protocol.csv	step47	6502	645.655	STIMULATE	49.5	49.5	49.5	49.5	49.7	47	1461.7530000000002
1467.327	0	1467327	wait	10004	3	0	3	0	7.0	0.0	7.0	0.0					1591.9226694000536	1597.5388855000492	1597.5388855000492	1.0	['1', 'return']	[1.8891188999987207, 2.753338899987284]	5.61	6.39	3.0	controle	low_pain	48.4	1610.539334500034			sub-048	250	48	48.4	49.5	COM5	COM15	COM3	2024-11-05_15h02.31.124	001-EEG_SVR_Officel	2022.2.5	59.93576085079241		12.148999999999887	1_sub-pilot048_SVR_EEG_block3-4.protocol.csv	step49	6746	669.902	STIMULATE	48.4	48.4	48.4	48.4	48.4	49	1486.0
1472.928	0	1472928	CNhz	10003	3	0	3	0	7.0	0.0	7.0	0.0					1591.9226694000536	1597.5388855000492	1597.5388855000492	1.0	['1', 'return']	[1.8891188999987207, 2.753338899987284]	5.61	6.39	3.0	controle	low_pain	48.4	1610.539334500034			sub-048	250	48	48.4	49.5	COM5	COM15	COM3	2024-11-05_15h02.31.124	001-EEG_SVR_Officel	2022.2.5	59.93576085079241		5.601000000000113	1_sub-pilot048_SVR_EEG_block3-4.protocol.csv	step49	6746	669.902	STIMULATE	48.4	48.4	48.4	48.4	48.4	49	1486.0
1480.077	0	1480077	CN/Lo	10001	3	0	3	0	7.0	0.0	7.0	0.0					1591.9226694000536	1597.5388855000492	1597.5388855000492	1.0	['1', 'return']	[1.8891188999987207, 2.753338899987284]	5.61	6.39	3.0	controle	low_pain	48.4	1610.539334500034			sub-048	250	48	48.4	49.5	COM5	COM15	COM3	2024-11-05_15h02.31.124	001-EEG_SVR_Officel	2022.2.5	59.93576085079241		6.398999999999887	1_sub-pilot048_SVR_EEG_block3-4.protocol.csv	step49	6746	669.902	STIMULATE	48.4	48.4	48.4	48.4	48.4	49	1486.0
1488.743	0	1488743	wait	10004	3	0	3	0	8.0	0.0	8.0	0.0					1613.3389995000323	1618.788787700003	1618.788787700003	4.5	['4', 'a', '5', 'return']	[2.558185299974866, 2.7978401000145823, 3.213618099980522, 4.447111400018912]	5.44	6.41	0.0	40hz	high_pain	49.5	1631.790801300027			sub-048	250	48	48.4	49.5	COM5	COM15	COM3	2024-11-05_15h02.31.124	001-EEG_SVR_Officel	2022.2.5	59.93576085079241		9.41599999999994	1_sub-pilot048_SVR_EEG_block3-4.protocol.csv	step51	6961	691.183	STIMULATE	49.5	49.5	49.5	49.5	49.8	51	1507.281
1494.177	0	1494177	40hz	10003	3	0	3	0	8.0	0.0	8.0	0.0					1613.3389995000323	1618.788787700003	1618.788787700003	4.5	['4', 'a', '5', 'return']	[2.558185299974866, 2.7978401000145823, 3.213618099980522, 4.447111400018912]	5.44	6.41	0.0	40hz	high_pain	49.5	1631.790801300027			sub-048	250	48	48.4	49.5	COM5	COM15	COM3	2024-11-05_15h02.31.124	001-EEG_SVR_Officel	2022.2.5	59.93576085079241		5.433999999999969	1_sub-pilot048_SVR_EEG_block3-4.protocol.csv	step51	6961	691.183	STIMULATE	49.5	49.5	49.5	49.5	49.8	51	1507.281
1501.349	0	1501349	40/Hi	10001	3	0	3	0	8.0	0.0	8.0	0.0					1613.3389995000323	1618.788787700003	1618.788787700003	4.5	['4', 'a', '5', 'return']	[2.558185299974866, 2.7978401000145823, 3.213618099980522, 4.447111400018912]	5.44	6.41	0.0	40hz	high_pain	49.5	1631.790801300027			sub-048	250	48	48.4	49.5	COM5	COM15	COM3	2024-11-05_15h02.31.124	001-EEG_SVR_Officel	2022.2.5	59.93576085079241		6.4220000000000255	1_sub-pilot048_SVR_EEG_block3-4.protocol.csv	step51	6961	691.183	STIMULATE	49.5	49.5	49.5	49.5	49.8	51	1507.281
1511.676	0	1511676	wait	10004	3	0	3	0	9.0	0.0	9.0	0.0					1636.272017100011	1642.2722624000162	1642.2722624000162	1.0	['1', 'return']	[2.365937699971255, 3.4058513999916613]	6.0	5.14	1.0	controle	low_pain	48.4	1655.278558000049			sub-048	250	48	48.4	49.5	COM5	COM15	COM3	2024-11-05_15h02.31.124	001-EEG_SVR_Officel	2022.2.5	59.93576085079241		11.076999999999998	1_sub-pilot048_SVR_EEG_block3-4.protocol.csv	step53	7185	713.356	STIMULATE	48.4	48.4	48.4	48.4	48.7	53	1529.4540000000002
1517.66	0	1517660	CNhz	10003	3	0	3	0	9.0	0.0	9.0	0.0					1636.272017100011	1642.2722624000162	1642.2722624000162	1.0	['1', 'return']	[2.365937699971255, 3.4058513999916613]	6.0	5.14	1.0	controle	low_pain	48.4	1655.278558000049			sub-048	250	48	48.4	49.5	COM5	COM15	COM3	2024-11-05_15h02.31.124	001-EEG_SVR_Officel	2022.2.5	59.93576085079241		5.984000000000151	1_sub-pilot048_SVR_EEG_block3-4.protocol.csv	step53	7185	713.356	STIMULATE	48.4	48.4	48.4	48.4	48.7	53	1529.4540000000002
1523.565	0	1523565	CN/Lo	10001	3	0	3	0	9.0	0.0	9.0	0.0					1636.272017100011	1642.2722624000162	1642.2722624000162	1.0	['1', 'return']	[2.365937699971255, 3.4058513999916613]	6.0	5.14	1.0	controle	low_pain	48.4	1655.278558000049			sub-048	250	48	48.4	49.5	COM5	COM15	COM3	2024-11-05_15h02.31.124	001-EEG_SVR_Officel	2022.2.5	59.93576085079241		5.154999999999973	1_sub-pilot048_SVR_EEG_block3-4.protocol.csv	step53	7185	713.356	STIMULATE	48.4	48.4	48.4	48.4	48.7	53	1529.4540000000002
1534.126	0	1534126	wait	10004	3	0	3	0	10.0	0.0	10.0	0.0					1658.7219706000178	1664.905174900021	1664.905174900021	2.5	['2', 'a', '5', 'return']	[2.3712965000304393, 2.6030211000470445, 3.123765500029549, 3.9632712000166066]	6.18	5.39	2.0	controle	low_pain	48.4	1677.9053231000437			sub-048	250	48	48.4	49.5	COM5	COM15	COM3	2024-11-05_15h02.31.124	001-EEG_SVR_Officel	2022.2.5	59.93576085079241		11.310999999999922	1_sub-pilot048_SVR_EEG_block3-4.protocol.csv	step55	7416	736.265	STIMULATE	48.4	48.4	48.4	48.4	48.5	55	1552.363
1540.294	0	1540294	CNhz	10003	3	0	3	0	10.0	0.0	10.0	0.0					1658.7219706000178	1664.905174900021	1664.905174900021	2.5	['2', 'a', '5', 'return']	[2.3712965000304393, 2.6030211000470445, 3.123765500029549, 3.9632712000166066]	6.18	5.39	2.0	controle	low_pain	48.4	1677.9053231000437			sub-048	250	48	48.4	49.5	COM5	COM15	COM3	2024-11-05_15h02.31.124	001-EEG_SVR_Officel	2022.2.5	59.93576085079241		6.16800000000012	1_sub-pilot048_SVR_EEG_block3-4.protocol.csv	step55	7416	736.265	STIMULATE	48.4	48.4	48.4	48.4	48.5	55	1552.363
1546.443	0	1546443	CN/Lo	10001	3	0	3	0	10.0	0.0	10.0	0.0					1658.7219706000178	1664.905174900021	1664.905174900021	2.5	['2', 'a', '5', 'return']	[2.3712965000304393, 2.6030211000470445, 3.123765500029549, 3.9632712000166066]	6.18	5.39	2.0	controle	low_pain	48.4	1677.9053231000437			sub-048	250	48	48.4	49.5	COM5	COM15	COM3	2024-11-05_15h02.31.124	001-EEG_SVR_Officel	2022.2.5	59.93576085079241		5.398999999999887	1_sub-pilot048_SVR_EEG_block3-4.protocol.csv	step55	7416	736.265	STIMULATE	48.4	48.4	48.4	48.4	48.5	55	1552.363
1557.31	0	1557310	wait	10004	3	0	3	0	11.0	0.0	11.0	0.0					1681.9053964000195	1689.1055181000263	1689.1055181000263	3.5	['3', 'a', '5', 'return']	[2.123602400009986, 3.2194512999849394, 4.22753279999597, 5.2119869000162]	7.2	6.21	3.0	20hz	high_pain	49.5				sub-048	250	48	48.4	49.5	COM5	COM15	COM3	2024-11-05_15h02.31.124	001-EEG_SVR_Officel	2022.2.5	59.93576085079241		11.616999999999962	1_sub-pilot048_SVR_EEG_block3-4.protocol.csv	step57	7667	761.308	STIMULATE	49.5	49.5	49.5	49.5	49.5	57	1577.406
1564.493	0	1564493	20hz	10003	3	0	3	0	11.0	0.0	11.0	0.0					1681.9053964000195	1689.1055181000263	1689.1055181000263	3.5	['3', 'a', '5', 'return']	[2.123602400009986, 3.2194512999849394, 4.22753279999597, 5.2119869000162]	7.2	6.21	3.0	20hz	high_pain	49.5				sub-048	250	48	48.4	49.5	COM5	COM15	COM3	2024-11-05_15h02.31.124	001-EEG_SVR_Officel	2022.2.5	59.93576085079241		7.182999999999993	1_sub-pilot048_SVR_EEG_block3-4.protocol.csv	step57	7667	761.308	STIMULATE	49.5	49.5	49.5	49.5	49.5	57	1577.406
1571.46	0	1571460	20/Hi	10001	3	0	3	0	11.0	0.0	11.0	0.0					1681.9053964000195	1689.1055181000263	1689.1055181000263	3.5	['3', 'a', '5', 'return']	[2.123602400009986, 3.2194512999849394, 4.22753279999597, 5.2119869000162]	7.2	6.21	3.0	20hz	high_pain	49.5				sub-048	250	48	48.4	49.5	COM5	COM15	COM3	2024-11-05_15h02.31.124	001-EEG_SVR_Officel	2022.2.5	59.93576085079241		6.217000000000098	1_sub-pilot048_SVR_EEG_block3-4.protocol.csv	step57	7667	761.308	STIMULATE	49.5	49.5	49.5	49.5	49.5	57	1577.406
1582.759	0	1582759	wait	10004	3	0	3	0	12.0	0.0	12.0	0.0					1707.3549309000373	1714.454913200054	1714.454913200054	3.0	['3', 'return']	[2.0055977000156417, 2.820964200014714]	7.09	6.31	0.0	controle	low_pain	48.4	1727.4552927000332			sub-048	250	48	48.4	49.5	COM5	COM15	COM3	2024-11-05_15h02.31.124	001-EEG_SVR_Officel	2022.2.5	59.93576085079241		12.048999999999978	1_sub-pilot048_SVR_EEG_block3-4.protocol.csv	step59	7916	786.72	STIMULATE	48.4	48.3	48.4	48.4	48.6	59	1602.8180000000002
1589.843	0	1589843	CNhz	10003	3	0	3	0	12.0	0.0	12.0	0.0					1707.3549309000373	1714.454913200054	1714.454913200054	3.0	['3', 'return']	[2.0055977000156417, 2.820964200014714]	7.09	6.31	0.0	controle	low_pain	48.4	1727.4552927000332			sub-048	250	48	48.4	49.5	COM5	COM15	COM3	2024-11-05_15h02.31.124	001-EEG_SVR_Officel	2022.2.5	59.93576085079241		7.08400000000006	1_sub-pilot048_SVR_EEG_block3-4.protocol.csv	step59	7916	786.72	STIMULATE	48.4	48.3	48.4	48.4	48.6	59	1602.8180000000002
1596.909	0	1596909	CN/Lo	10001	3	0	3	0	12.0	0.0	12.0	0.0					1707.3549309000373	1714.454913200054	1714.454913200054	3.0	['3', 'return']	[2.0055977000156417, 2.820964200014714]	7.09	6.31	0.0	controle	low_pain	48.4	1727.4552927000332			sub-048	250	48	48.4	49.5	COM5	COM15	COM3	2024-11-05_15h02.31.124	001-EEG_SVR_Officel	2022.2.5	59.93576085079241		6.316000000000031	1_sub-pilot048_SVR_EEG_block3-4.protocol.csv	step59	7916	786.72	STIMULATE	48.4	48.3	48.4	48.4	48.6	59	1602.8180000000002
1605.726	0	1605726	wait	10004	3	0	3	0	13.0	0.0	13.0	0.0					1730.3215765000205	1736.8213269000407	1736.8213269000407	2.5	['2', 'a', '5', 'return']	[2.3512431999552064, 2.551521599991247, 3.110979999997653, 3.8793628999846987]	6.49	6.43	1.0	10hz	low_pain	48.4	1749.821546900028			sub-048	250	48	48.4	49.5	COM5	COM15	COM3	2024-11-05_15h02.31.124	001-EEG_SVR_Officel	2022.2.5	59.93576085079241		9.567000000000007	1_sub-pilot048_SVR_EEG_block3-4.protocol.csv	step61	8133	809.202	STIMULATE	48.4	48.4	48.4	48.4	48.6	61	1625.3000000000002
1612.21	0	1612210	10hz	10003	3	0	3	0	13.0	0.0	13.0	0.0					1730.3215765000205	1736.8213269000407	1736.8213269000407	2.5	['2', 'a', '5', 'return']	[2.3512431999552064, 2.551521599991247, 3.110979999997653, 3.8793628999846987]	6.49	6.43	1.0	10hz	low_pain	48.4	1749.821546900028			sub-048	250	48	48.4	49.5	COM5	COM15	COM3	2024-11-05_15h02.31.124	001-EEG_SVR_Officel	2022.2.5	59.93576085079241		6.483999999999924	1_sub-pilot048_SVR_EEG_block3-4.protocol.csv	step61	8133	809.202	STIMULATE	48.4	48.4	48.4	48.4	48.6	61	1625.3000000000002
1619.393	0	1619393	10/Lo	10001	3	0	3	0	13.0	0.0	13.0	0.0					1730.3215765000205	1736.8213269000407	1736.8213269000407	2.5	['2', 'a', '5', 'return']	[2.3512431999552064, 2.551521599991247, 3.110979999997653, 3.8793628999846987]	6.49	6.43	1.0	10hz	low_pain	48.4	1749.821546900028			sub-048	250	48	48.4	49.5	COM5	COM15	COM3	2024-11-05_15h02.31.124	001-EEG_SVR_Officel	2022.2.5	59.93576085079241		6.432999999999993	1_sub-pilot048_SVR_EEG_block3-4.protocol.csv	step61	8133	809.202	STIMULATE	48.4	48.4	48.4	48.4	48.6	61	1625.3000000000002
1629.142	0	1629142	wait	10004	3	0	3	0	14.0	0.0	14.0	0.0					1753.7378394000116	1761.1048297000234	1761.1048297000234	4.5	['4', 'a', '5', 'return']	[1.693961200013291, 2.038107800006401, 2.5901972000137903, 3.478393299970776]	7.37	5.56	2.0	20hz	high_pain	49.5				sub-048	250	48	48.4	49.5	COM5	COM15	COM3	2024-11-05_15h02.31.124	001-EEG_SVR_Officel	2022.2.5	59.93576085079241		10.499000000000024	1_sub-pilot048_SVR_EEG_block3-4.protocol.csv	step63	8358	832.675	STIMULATE	49.5	49.5	49.5	49.5	49.6	63	1648.7730000000001
1636.495	0	1636495	20hz	10003	3	0	3	0	14.0	0.0	14.0	0.0					1753.7378394000116	1761.1048297000234	1761.1048297000234	4.5	['4', 'a', '5', 'return']	[1.693961200013291, 2.038107800006401, 2.5901972000137903, 3.478393299970776]	7.37	5.56	2.0	20hz	high_pain	49.5				sub-048	250	48	48.4	49.5	COM5	COM15	COM3	2024-11-05_15h02.31.124	001-EEG_SVR_Officel	2022.2.5	59.93576085079241		7.352999999999838	1_sub-pilot048_SVR_EEG_block3-4.protocol.csv	step63	8358	832.675	STIMULATE	49.5	49.5	49.5	49.5	49.6	63	1648.7730000000001
1642.809	0	1642809	20/Hi	10001	3	0	3	0	14.0	0.0	14.0	0.0					1753.7378394000116	1761.1048297000234	1761.1048297000234	4.5	['4', 'a', '5', 'return']	[1.693961200013291, 2.038107800006401, 2.5901972000137903, 3.478393299970776]	7.37	5.56	2.0	20hz	high_pain	49.5				sub-048	250	48	48.4	49.5	COM5	COM15	COM3	2024-11-05_15h02.31.124	001-EEG_SVR_Officel	2022.2.5	59.93576085079241		5.564000000000078	1_sub-pilot048_SVR_EEG_block3-4.protocol.csv	step63	8358	832.675	STIMULATE	49.5	49.5	49.5	49.5	49.6	63	1648.7730000000001
1653.043	0	1653043	wait	10004	3	0	3	0	15.0	0.0	15.0	0.0					1777.6385691000032	1785.271303400048	1785.271303400048	2.0	['2', 'return']	[2.012696899997536, 2.9806789999711327]	7.62	5.8	3.0	10hz	low_pain	48.4				sub-048	250	48	48.4	49.5	COM5	COM15	COM3	2024-11-05_15h02.31.124	001-EEG_SVR_Officel	2022.2.5	59.93576085079241		10.983999999999924	1_sub-pilot048_SVR_EEG_block3-4.protocol.csv	step65	8589	857.013	STIMULATE	48.4	48.4	48.4	48.4	48.4	65	1673.111
1660.659	0	1660659	10hz	10003	3	0	3	0	15.0	0.0	15.0	0.0					1777.6385691000032	1785.271303400048	1785.271303400048	2.0	['2', 'return']	[2.012696899997536, 2.9806789999711327]	7.62	5.8	3.0	10hz	low_pain	48.4				sub-048	250	48	48.4	49.5	COM5	COM15	COM3	2024-11-05_15h02.31.124	001-EEG_SVR_Officel	2022.2.5	59.93576085079241		7.616000000000213	1_sub-pilot048_SVR_EEG_block3-4.protocol.csv	step65	8589	857.013	STIMULATE	48.4	48.4	48.4	48.4	48.4	65	1673.111
1667.225	0	1667225	10/Lo	10001	3	0	3	0	15.0	0.0	15.0	0.0					1777.6385691000032	1785.271303400048	1785.271303400048	2.0	['2', 'return']	[2.012696899997536, 2.9806789999711327]	7.62	5.8	3.0	10hz	low_pain	48.4				sub-048	250	48	48.4	49.5	COM5	COM15	COM3	2024-11-05_15h02.31.124	001-EEG_SVR_Officel	2022.2.5	59.93576085079241		5.8159999999998035	1_sub-pilot048_SVR_EEG_block3-4.protocol.csv	step65	8589	857.013	STIMULATE	48.4	48.4	48.4	48.4	48.4	65	1673.111
1745.708	0	1745708	wait	10004	4	0	4	0	0.0	0.0	0.0	0.0			p	1.4309463999816217	1870.3039275000335	1877.2761848000227	1877.2761848000227	4.0	['4', 'return']	[2.5575866000144742, 3.726015300024301]	6.96	6.0	0.0	20hz	high_pain	49.5				sub-048	250	48	48.4	49.5	COM5	COM15	COM3	2024-11-05_15h02.31.124	001-EEG_SVR_Officel	2022.2.5	59.93576085079241		79.23300000000017	2_sub-pilot048_SVR_EEG_block5-6.protocol.csv	step3	711	70.93	STIMULATE	49.8	49.5	49.5	49.5	49.6	3	1765.268
1752.664	0	1752664	20hz	10003	4	0	4	0	0.0	0.0	0.0	0.0			p	1.4309463999816217	1870.3039275000335	1877.2761848000227	1877.2761848000227	4.0	['4', 'return']	[2.5575866000144742, 3.726015300024301]	6.96	6.0	0.0	20hz	high_pain	49.5				sub-048	250	48	48.4	49.5	COM5	COM15	COM3	2024-11-05_15h02.31.124	001-EEG_SVR_Officel	2022.2.5	59.93576085079241		6.955999999999904	2_sub-pilot048_SVR_EEG_block5-6.protocol.csv	step3	711	70.93	STIMULATE	49.8	49.5	49.5	49.5	49.6	3	1765.268
1759.432	0	1759432	20/Hi	10001	4	0	4	0	0.0	0.0	0.0	0.0			p	1.4309463999816217	1870.3039275000335	1877.2761848000227	1877.2761848000227	4.0	['4', 'return']	[2.5575866000144742, 3.726015300024301]	6.96	6.0	0.0	20hz	high_pain	49.5				sub-048	250	48	48.4	49.5	COM5	COM15	COM3	2024-11-05_15h02.31.124	001-EEG_SVR_Officel	2022.2.5	59.93576085079241		6.018000000000029	2_sub-pilot048_SVR_EEG_block5-6.protocol.csv	step3	711	70.93	STIMULATE	49.8	49.5	49.5	49.5	49.6	3	1765.268
1769.458	0	1769458	wait	10004	4	0	4	0	1.0	0.0	1.0	0.0					1894.0540133000468	1900.8703664000493	1900.8703664000493	2.0	['2', 'return']	[1.910431000054814, 3.0143589000217617]	6.81	6.18	1.0	10hz	low_pain	48.4	1913.8707296000207			sub-048	250	48	48.4	49.5	COM5	COM15	COM3	2024-11-05_15h02.31.124	001-EEG_SVR_Officel	2022.2.5	59.93576085079241		10.776000000000067	2_sub-pilot048_SVR_EEG_block5-6.protocol.csv	step5	950	94.62	STIMULATE	48.6	48.4	48.4	48.4	48.6	5	1788.958
1776.258	0	1776258	10hz	10003	4	0	4	0	1.0	0.0	1.0	0.0					1894.0540133000468	1900.8703664000493	1900.8703664000493	2.0	['2', 'return']	[1.910431000054814, 3.0143589000217617]	6.81	6.18	1.0	10hz	low_pain	48.4	1913.8707296000207			sub-048	250	48	48.4	49.5	COM5	COM15	COM3	2024-11-05_15h02.31.124	001-EEG_SVR_Officel	2022.2.5	59.93576085079241		6.7999999999999545	2_sub-pilot048_SVR_EEG_block5-6.protocol.csv	step5	950	94.62	STIMULATE	48.6	48.4	48.4	48.4	48.6	5	1788.958
1783.191	0	1783191	10/Lo	10001	4	0	4	0	1.0	0.0	1.0	0.0					1894.0540133000468	1900.8703664000493	1900.8703664000493	2.0	['2', 'return']	[1.910431000054814, 3.0143589000217617]	6.81	6.18	1.0	10hz	low_pain	48.4	1913.8707296000207			sub-048	250	48	48.4	49.5	COM5	COM15	COM3	2024-11-05_15h02.31.124	001-EEG_SVR_Officel	2022.2.5	59.93576085079241		6.182999999999993	2_sub-pilot048_SVR_EEG_block5-6.protocol.csv	step5	950	94.62	STIMULATE	48.6	48.4	48.4	48.4	48.6	5	1788.958
1792.324	0	1792324	wait	10004	4	0	4	0	2.0	0.0	2.0	0.0					1916.9203341000248	1924.8703671999972	1924.8703671999972	4.0	['4', 'return']	[1.151976699999068, 1.9923745000269264]	7.94	5.87	2.0	40hz	high_pain	49.5				sub-048	250	48	48.4	49.5	COM5	COM15	COM3	2024-11-05_15h02.31.124	001-EEG_SVR_Officel	2022.2.5	59.93576085079241		9.883000000000038	2_sub-pilot048_SVR_EEG_block5-6.protocol.csv	step7	1189	118.367	STIMULATE	49.6	49.5	49.5	49.5	49.5	7	1812.705
1800.258	0	1800258	40hz	10003	4	0	4	0	2.0	0.0	2.0	0.0					1916.9203341000248	1924.8703671999972	1924.8703671999972	4.0	['4', 'return']	[1.151976699999068, 1.9923745000269264]	7.94	5.87	2.0	40hz	high_pain	49.5				sub-048	250	48	48.4	49.5	COM5	COM15	COM3	2024-11-05_15h02.31.124	001-EEG_SVR_Officel	2022.2.5	59.93576085079241		7.933999999999969	2_sub-pilot048_SVR_EEG_block5-6.protocol.csv	step7	1189	118.367	STIMULATE	49.6	49.5	49.5	49.5	49.5	7	1812.705
1806.891	0	1806891	40/Hi	10001	4	0	4	0	2.0	0.0	2.0	0.0					1916.9203341000248	1924.8703671999972	1924.8703671999972	4.0	['4', 'return']	[1.151976699999068, 1.9923745000269264]	7.94	5.87	2.0	40hz	high_pain	49.5				sub-048	250	48	48.4	49.5	COM5	COM15	COM3	2024-11-05_15h02.31.124	001-EEG_SVR_Officel	2022.2.5	59.93576085079241		5.883000000000038	2_sub-pilot048_SVR_EEG_block5-6.protocol.csv	step7	1189	118.367	STIMULATE	49.6	49.5	49.5	49.5	49.5	7	1812.705
1815.308	0	1815308	wait	10004	4	0	4	0	3.0	0.0	3.0	0.0					1939.904199400044	1945.3864240000255	1945.3864240000255	2.0	['2', 'return']	[1.962088699976448, 2.641933400009293]	5.47	6.11	3.0	40hz	high_pain	49.5	1958.3865766000235			sub-048	250	48	48.4	49.5	COM5	COM15	COM3	2024-11-05_15h02.31.124	001-EEG_SVR_Officel	2022.2.5	59.93576085079241		9.166999999999916	2_sub-pilot048_SVR_EEG_block5-6.protocol.csv	step9	1399	139.117	STIMULATE	49.5	49.5	49.5	49.5	49.6	9	1833.455
1820.774	0	1820774	40hz	10003	4	0	4	0	3.0	0.0	3.0	0.0					1939.904199400044	1945.3864240000255	1945.3864240000255	2.0	['2', 'return']	[1.962088699976448, 2.641933400009293]	5.47	6.11	3.0	40hz	high_pain	49.5	1958.3865766000235			sub-048	250	48	48.4	49.5	COM5	COM15	COM3	2024-11-05_15h02.31.124	001-EEG_SVR_Officel	2022.2.5	59.93576085079241		5.4659999999998945	2_sub-pilot048_SVR_EEG_block5-6.protocol.csv	step9	1399	139.117	STIMULATE	49.5	49.5	49.5	49.5	49.6	9	1833.455
1827.641	0	1827641	40/Hi	10001	4	0	4	0	3.0	0.0	3.0	0.0					1939.904199400044	1945.3864240000255	1945.3864240000255	2.0	['2', 'return']	[1.962088699976448, 2.641933400009293]	5.47	6.11	3.0	40hz	high_pain	49.5	1958.3865766000235			sub-048	250	48	48.4	49.5	COM5	COM15	COM3	2024-11-05_15h02.31.124	001-EEG_SVR_Officel	2022.2.5	59.93576085079241		6.117000000000189	2_sub-pilot048_SVR_EEG_block5-6.protocol.csv	step9	1399	139.117	STIMULATE	49.5	49.5	49.5	49.5	49.6	9	1833.455
