onset	duration	sample	trial_type	value	block.thisRepN	block.thisTrialN	block.thisN	block.thisIndex	reps.thisRepN	reps.thisTrialN	reps.thisN	reps.thisIndex	afrec_start	rec_start	rec_start_egi	key_resp.keys	key_resp.rt	wait_time_text.started	wait_time_text.stopped	therm_loca_text.started	subResponse	keyResp.keys	keyResp.rt	ITI_wait	wait_trigger	loca_thermode	Hz_condition	temp_condition	temp_valeur	text.started	text.stopped	participant	brightness	num_part	low	high	com_svr	com_thermode	com_eeg	date	expName	psychopyVersion	frameRate	Unnamed: 39	distance_from_previous	file	step	index	time	type	temp1	temp2	temp3	temp4	temp5	step_num	time_sync
91.962	0	45981	wait	20	0	0	0	0	0.0	0.0	0.0	0.0	30.12355019999086	29.917769799998496	1718203148.2565932	p	91.7067107999901	121.87333869999566	127.17219109999132	127.17219109999132	4.5	['4', 'a', '5', 'return']	[3.2132589999964694, 3.485268400007044, 3.668289499997627, 4.8930243000068]	5.29	5.75	0.0	20hz	low_pain	46.9			sub-040	250	40	46.9	48.6	COM11	COM15	COM3	2024-06-12_10h38.58.818	001-EEG_SVR_Officel	2022.2.5	143.44485691588653		91.962	0_sub-pilot040_SVR_EEG_block1-2.protocol.csv	step3	1122	112.053	STIMULATE	47.0	46.9	46.9	46.9	47.0	3	109.563
97.248	0	48624	20hz	6	0	0	0	0	0.0	0.0	0.0	0.0	30.12355019999086	29.917769799998496	1718203148.2565932	p	91.7067107999901	121.87333869999566	127.17219109999132	127.17219109999132	4.5	['4', 'a', '5', 'return']	[3.2132589999964694, 3.485268400007044, 3.668289499997627, 4.8930243000068]	5.29	5.75	0.0	20hz	low_pain	46.9			sub-040	250	40	46.9	48.6	COM11	COM15	COM3	2024-06-12_10h38.58.818	001-EEG_SVR_Officel	2022.2.5	143.44485691588653		5.286000000000001	0_sub-pilot040_SVR_EEG_block1-2.protocol.csv	step3	1122	112.053	STIMULATE	47.0	46.9	46.9	46.9	47.0	3	109.563
103.748	0	51874	20/Lo	5	0	0	0	0	0.0	0.0	0.0	0.0	30.12355019999086	29.917769799998496	1718203148.2565932	p	91.7067107999901	121.87333869999566	127.17219109999132	127.17219109999132	4.5	['4', 'a', '5', 'return']	[3.2132589999964694, 3.485268400007044, 3.668289499997627, 4.8930243000068]	5.29	5.75	0.0	20hz	low_pain	46.9			sub-040	250	40	46.9	48.6	COM11	COM15	COM3	2024-06-12_10h38.58.818	001-EEG_SVR_Officel	2022.2.5	143.44485691588653		5.75	0_sub-pilot040_SVR_EEG_block1-2.protocol.csv	step3	1122	112.053	STIMULATE	47.0	46.9	46.9	46.9	47.0	3	109.563
115.172	0	57586	wait	20	0	0	0	0	1.0	0.0	1.0	0.0						145.0841223000025	151.285944999996	151.285944999996	6.5	['6', 'a', '5', 'return']	[2.9328258000023197, 3.2607579000032274, 3.501041299998178, 4.229076000003261]	6.19	6.45	1.0	controle	high_pain	48.6			sub-040	250	40	46.9	48.6	COM11	COM15	COM3	2024-06-12_10h38.58.818	001-EEG_SVR_Officel	2022.2.5	143.44485691588653		12.173999999999992	0_sub-pilot040_SVR_EEG_block1-2.protocol.csv	step5	1373	136.954	STIMULATE	48.6	48.6	48.6	48.6	48.9	5	134.464
121.362	0	60681	CNhz	12	0	0	0	0	1.0	0.0	1.0	0.0						145.0841223000025	151.285944999996	151.285944999996	6.5	['6', 'a', '5', 'return']	[2.9328258000023197, 3.2607579000032274, 3.501041299998178, 4.229076000003261]	6.19	6.45	1.0	controle	high_pain	48.6			sub-040	250	40	46.9	48.6	COM11	COM15	COM3	2024-06-12_10h38.58.818	001-EEG_SVR_Officel	2022.2.5	143.44485691588653		6.189999999999998	0_sub-pilot040_SVR_EEG_block1-2.protocol.csv	step5	1373	136.954	STIMULATE	48.6	48.6	48.6	48.6	48.9	5	134.464
128.562	0	64281	CN/Hi	10	0	0	0	0	1.0	0.0	1.0	0.0						145.0841223000025	151.285944999996	151.285944999996	6.5	['6', 'a', '5', 'return']	[2.9328258000023197, 3.2607579000032274, 3.501041299998178, 4.229076000003261]	6.19	6.45	1.0	controle	high_pain	48.6			sub-040	250	40	46.9	48.6	COM11	COM15	COM3	2024-06-12_10h38.58.818	001-EEG_SVR_Officel	2022.2.5	143.44485691588653		6.450000000000003	0_sub-pilot040_SVR_EEG_block1-2.protocol.csv	step5	1373	136.954	STIMULATE	48.6	48.6	48.6	48.6	48.9	5	134.464
138.618	0	69309	wait	20	0	0	0	0	2.0	0.0	2.0	0.0						168.53097130000242	175.94861069999752	175.94861069999752	7.0	['7', 'return']	[2.94916839999496, 3.4768637999950442]	7.41	5.96	2.0	20hz	high_pain	48.6			sub-040	250	40	46.9	48.6	COM11	COM15	COM3	2024-06-12_10h38.58.818	001-EEG_SVR_Officel	2022.2.5	143.44485691588653		10.805999999999997	0_sub-pilot040_SVR_EEG_block1-2.protocol.csv	step7	1617	161.113	STIMULATE	48.6	48.6	48.6	48.6	48.7	7	158.623
146.028	0	73014	20hz	6	0	0	0	0	2.0	0.0	2.0	0.0						168.53097130000242	175.94861069999752	175.94861069999752	7.0	['7', 'return']	[2.94916839999496, 3.4768637999950442]	7.41	5.96	2.0	20hz	high_pain	48.6			sub-040	250	40	46.9	48.6	COM11	COM15	COM3	2024-06-12_10h38.58.818	001-EEG_SVR_Officel	2022.2.5	143.44485691588653		7.409999999999997	0_sub-pilot040_SVR_EEG_block1-2.protocol.csv	step7	1617	161.113	STIMULATE	48.6	48.6	48.6	48.6	48.7	7	158.623
152.738	0	76369	20/Hi	4	0	0	0	0	2.0	0.0	2.0	0.0						168.53097130000242	175.94861069999752	175.94861069999752	7.0	['7', 'return']	[2.94916839999496, 3.4768637999950442]	7.41	5.96	2.0	20hz	high_pain	48.6			sub-040	250	40	46.9	48.6	COM11	COM15	COM3	2024-06-12_10h38.58.818	001-EEG_SVR_Officel	2022.2.5	143.44485691588653		5.960000000000008	0_sub-pilot040_SVR_EEG_block1-2.protocol.csv	step7	1617	161.113	STIMULATE	48.6	48.6	48.6	48.6	48.7	7	158.623
162.532	0	81266	wait	20	0	0	0	0	3.0	0.0	3.0	0.0						192.4439464000025	199.4654761999991	199.4654761999991	7.5	['7', 'a', '5', 'return']	[3.3389397999999346, 3.7215324999997392, 3.9778997999965213, 4.529784499987727]	7.01	6.26	3.0	controle	high_pain	48.6			sub-040	250	40	46.9	48.6	COM11	COM15	COM3	2024-06-12_10h38.58.818	001-EEG_SVR_Officel	2022.2.5	143.44485691588653		10.544000000000011	0_sub-pilot040_SVR_EEG_block1-2.protocol.csv	step9	1857	184.905	STIMULATE	48.6	48.6	48.6	48.6	48.6	9	182.41500000000002
169.54	0	84770	CNhz	12	0	0	0	0	3.0	0.0	3.0	0.0						192.4439464000025	199.4654761999991	199.4654761999991	7.5	['7', 'a', '5', 'return']	[3.3389397999999346, 3.7215324999997392, 3.9778997999965213, 4.529784499987727]	7.01	6.26	3.0	controle	high_pain	48.6			sub-040	250	40	46.9	48.6	COM11	COM15	COM3	2024-06-12_10h38.58.818	001-EEG_SVR_Officel	2022.2.5	143.44485691588653		7.007999999999981	0_sub-pilot040_SVR_EEG_block1-2.protocol.csv	step9	1857	184.905	STIMULATE	48.6	48.6	48.6	48.6	48.6	9	182.41500000000002
176.554	0	88277	CN/Hi	10	0	0	0	0	3.0	0.0	3.0	0.0						192.4439464000025	199.4654761999991	199.4654761999991	7.5	['7', 'a', '5', 'return']	[3.3389397999999346, 3.7215324999997392, 3.9778997999965213, 4.529784499987727]	7.01	6.26	3.0	controle	high_pain	48.6			sub-040	250	40	46.9	48.6	COM11	COM15	COM3	2024-06-12_10h38.58.818	001-EEG_SVR_Officel	2022.2.5	143.44485691588653		6.26400000000001	0_sub-pilot040_SVR_EEG_block1-2.protocol.csv	step9	1857	184.905	STIMULATE	48.6	48.6	48.6	48.6	48.6	9	182.41500000000002
187.102	0	93551	wait	20	0	0	0	0	4.0	0.0	4.0	0.0						217.01591299999563	225.01784820000464	225.01784820000464	5.0	['5', 'return']	[2.9218731000000844, 3.5221702000126243]	7.99	5.19	0.0	10hz	low_pain	46.9			sub-040	250	40	46.9	48.6	COM11	COM15	COM3	2024-06-12_10h38.58.818	001-EEG_SVR_Officel	2022.2.5	143.44485691588653		11.298000000000002	0_sub-pilot040_SVR_EEG_block1-2.protocol.csv	step11	2104	209.445	STIMULATE	46.9	46.9	46.9	46.9	46.9	11	206.95499999999998
195.092	0	97546	10hz	3	0	0	0	0	4.0	0.0	4.0	0.0						217.01591299999563	225.01784820000464	225.01784820000464	5.0	['5', 'return']	[2.9218731000000844, 3.5221702000126243]	7.99	5.19	0.0	10hz	low_pain	46.9			sub-040	250	40	46.9	48.6	COM11	COM15	COM3	2024-06-12_10h38.58.818	001-EEG_SVR_Officel	2022.2.5	143.44485691588653		7.990000000000009	0_sub-pilot040_SVR_EEG_block1-2.protocol.csv	step11	2104	209.445	STIMULATE	46.9	46.9	46.9	46.9	46.9	11	206.95499999999998
201.036	0	100518	10/Lo	2	0	0	0	0	4.0	0.0	4.0	0.0						217.01591299999563	225.01784820000464	225.01784820000464	5.0	['5', 'return']	[2.9218731000000844, 3.5221702000126243]	7.99	5.19	0.0	10hz	low_pain	46.9			sub-040	250	40	46.9	48.6	COM11	COM15	COM3	2024-06-12_10h38.58.818	001-EEG_SVR_Officel	2022.2.5	143.44485691588653		5.193999999999988	0_sub-pilot040_SVR_EEG_block1-2.protocol.csv	step11	2104	209.445	STIMULATE	46.9	46.9	46.9	46.9	46.9	11	206.95499999999998
211.648	0	105824	wait	20	0	0	0	0	5.0	0.0	5.0	0.0						241.56098029999703	248.4992159999965	248.4992159999965	3.0	['3', 'return']	[2.8237034999910975, 3.414766599991708]	6.93	5.3	1.0	40hz	low_pain	46.9			sub-040	250	40	46.9	48.6	COM11	COM15	COM3	2024-06-12_10h38.58.818	001-EEG_SVR_Officel	2022.2.5	143.44485691588653		11.361999999999995	0_sub-pilot040_SVR_EEG_block1-2.protocol.csv	step13	2341	232.983	STIMULATE	47.0	46.9	46.9	46.9	47.0	13	230.493
218.574	0	109287	40hz	9	0	0	0	0	5.0	0.0	5.0	0.0						241.56098029999703	248.4992159999965	248.4992159999965	3.0	['3', 'return']	[2.8237034999910975, 3.414766599991708]	6.93	5.3	1.0	40hz	low_pain	46.9			sub-040	250	40	46.9	48.6	COM11	COM15	COM3	2024-06-12_10h38.58.818	001-EEG_SVR_Officel	2022.2.5	143.44485691588653		6.926000000000016	0_sub-pilot040_SVR_EEG_block1-2.protocol.csv	step13	2341	232.983	STIMULATE	47.0	46.9	46.9	46.9	47.0	13	230.493
224.628	0	112314	40/Lo	8	0	0	0	0	5.0	0.0	5.0	0.0						241.56098029999703	248.4992159999965	248.4992159999965	3.0	['3', 'return']	[2.8237034999910975, 3.414766599991708]	6.93	5.3	1.0	40hz	low_pain	46.9			sub-040	250	40	46.9	48.6	COM11	COM15	COM3	2024-06-12_10h38.58.818	001-EEG_SVR_Officel	2022.2.5	143.44485691588653		5.303999999999974	0_sub-pilot040_SVR_EEG_block1-2.protocol.csv	step13	2341	232.983	STIMULATE	47.0	46.9	46.9	46.9	47.0	13	230.493
235.02	0	117510	wait	20	0	0	0	0	6.0	0.0	6.0	0.0						264.9320410999935	270.6823929999955	270.6823929999955	6.5	['6', '5', 'backspace', 'a', '5', 'return']	[2.87269109999761, 4.208946900005685, 5.608785999997053, 6.472309899996617, 6.920574000003398, 7.753136500003166]	5.74	5.96	2.0	40hz	high_pain	48.6			sub-040	250	40	46.9	48.6	COM11	COM15	COM3	2024-06-12_10h38.58.818	001-EEG_SVR_Officel	2022.2.5	143.44485691588653		11.142000000000024	0_sub-pilot040_SVR_EEG_block1-2.protocol.csv	step15	2571	255.723	STIMULATE	48.8	48.6	48.6	48.6	48.6	15	253.233
240.758	0	120379	40hz	9	0	0	0	0	6.0	0.0	6.0	0.0						264.9320410999935	270.6823929999955	270.6823929999955	6.5	['6', '5', 'backspace', 'a', '5', 'return']	[2.87269109999761, 4.208946900005685, 5.608785999997053, 6.472309899996617, 6.920574000003398, 7.753136500003166]	5.74	5.96	2.0	40hz	high_pain	48.6			sub-040	250	40	46.9	48.6	COM11	COM15	COM3	2024-06-12_10h38.58.818	001-EEG_SVR_Officel	2022.2.5	143.44485691588653		5.7379999999999995	0_sub-pilot040_SVR_EEG_block1-2.protocol.csv	step15	2571	255.723	STIMULATE	48.8	48.6	48.6	48.6	48.6	15	253.233
247.472	0	123736	40/Hi	7	0	0	0	0	6.0	0.0	6.0	0.0						264.9320410999935	270.6823929999955	270.6823929999955	6.5	['6', '5', 'backspace', 'a', '5', 'return']	[2.87269109999761, 4.208946900005685, 5.608785999997053, 6.472309899996617, 6.920574000003398, 7.753136500003166]	5.74	5.96	2.0	40hz	high_pain	48.6			sub-040	250	40	46.9	48.6	COM11	COM15	COM3	2024-06-12_10h38.58.818	001-EEG_SVR_Officel	2022.2.5	143.44485691588653		5.963999999999999	0_sub-pilot040_SVR_EEG_block1-2.protocol.csv	step15	2571	255.723	STIMULATE	48.8	48.6	48.6	48.6	48.6	15	253.233
261.542	0	130770	wait	20	0	0	0	0	7.0	0.0	7.0	0.0						291.4554059999937	297.90751499999897	297.90751499999897	7.0	['7', 'return']	[2.6246869000024162, 6.295013000009931]	6.44	6.14	3.0	40hz	low_pain	46.9			sub-040	250	40	46.9	48.6	COM11	COM15	COM3	2024-06-12_10h38.58.818	001-EEG_SVR_Officel	2022.2.5	143.44485691588653		14.819999999999965	0_sub-pilot040_SVR_EEG_block1-2.protocol.csv	step17	2848	283.274	STIMULATE	46.9	46.9	46.9	46.9	46.9	17	280.784
267.984	0	133992	40hz	9	0	0	0	0	7.0	0.0	7.0	0.0						291.4554059999937	297.90751499999897	297.90751499999897	7.0	['7', 'return']	[2.6246869000024162, 6.295013000009931]	6.44	6.14	3.0	40hz	low_pain	46.9			sub-040	250	40	46.9	48.6	COM11	COM15	COM3	2024-06-12_10h38.58.818	001-EEG_SVR_Officel	2022.2.5	143.44485691588653		6.442000000000007	0_sub-pilot040_SVR_EEG_block1-2.protocol.csv	step17	2848	283.274	STIMULATE	46.9	46.9	46.9	46.9	46.9	17	280.784
274.878	0	137439	40/Lo	8	0	0	0	0	7.0	0.0	7.0	0.0						291.4554059999937	297.90751499999897	297.90751499999897	7.0	['7', 'return']	[2.6246869000024162, 6.295013000009931]	6.44	6.14	3.0	40hz	low_pain	46.9			sub-040	250	40	46.9	48.6	COM11	COM15	COM3	2024-06-12_10h38.58.818	001-EEG_SVR_Officel	2022.2.5	143.44485691588653		6.1440000000000055	0_sub-pilot040_SVR_EEG_block1-2.protocol.csv	step17	2848	283.274	STIMULATE	46.9	46.9	46.9	46.9	46.9	17	280.784
287.302	0	143651	wait	20	0	0	0	0	8.0	0.0	8.0	0.0						317.2148917000013	323.7995026999997	323.7995026999997	6.0	['6', 'return']	[3.922797699997318, 4.474832799998694]	6.58	5.24	0.0	controle	low_pain	46.9			sub-040	250	40	46.9	48.6	COM11	COM15	COM3	2024-06-12_10h38.58.818	001-EEG_SVR_Officel	2022.2.5	143.44485691588653		13.174000000000035	0_sub-pilot040_SVR_EEG_block1-2.protocol.csv	step19	3099	308.192	STIMULATE	47.0	46.9	46.8	46.9	46.9	19	305.702
293.876	0	146938	CNhz	12	0	0	0	0	8.0	0.0	8.0	0.0						317.2148917000013	323.7995026999997	323.7995026999997	6.0	['6', 'return']	[3.922797699997318, 4.474832799998694]	6.58	5.24	0.0	controle	low_pain	46.9			sub-040	250	40	46.9	48.6	COM11	COM15	COM3	2024-06-12_10h38.58.818	001-EEG_SVR_Officel	2022.2.5	143.44485691588653		6.573999999999955	0_sub-pilot040_SVR_EEG_block1-2.protocol.csv	step19	3099	308.192	STIMULATE	47.0	46.9	46.8	46.9	46.9	19	305.702
299.866	0	149933	CN/Lo	11	0	0	0	0	8.0	0.0	8.0	0.0						317.2148917000013	323.7995026999997	323.7995026999997	6.0	['6', 'return']	[3.922797699997318, 4.474832799998694]	6.58	5.24	0.0	controle	low_pain	46.9			sub-040	250	40	46.9	48.6	COM11	COM15	COM3	2024-06-12_10h38.58.818	001-EEG_SVR_Officel	2022.2.5	143.44485691588653		5.240000000000009	0_sub-pilot040_SVR_EEG_block1-2.protocol.csv	step19	3099	308.192	STIMULATE	47.0	46.9	46.8	46.9	46.9	19	305.702
311.382	0	155691	wait	20	0	0	0	0	9.0	0.0	9.0	0.0						341.294212599998	346.4344018999982	346.4344018999982	7.0	['7', 'return']	[3.3991516000096453, 4.111030200001551]	5.13	5.33	1.0	20hz	high_pain	48.6			sub-040	250	40	46.9	48.6	COM11	COM15	COM3	2024-06-12_10h38.58.818	001-EEG_SVR_Officel	2022.2.5	143.44485691588653		12.26600000000002	0_sub-pilot040_SVR_EEG_block1-2.protocol.csv	step21	3329	330.95	STIMULATE	48.8	48.6	48.6	48.6	48.7	21	328.46
316.508	0	158254	20hz	6	0	0	0	0	9.0	0.0	9.0	0.0						341.294212599998	346.4344018999982	346.4344018999982	7.0	['7', 'return']	[3.3991516000096453, 4.111030200001551]	5.13	5.33	1.0	20hz	high_pain	48.6			sub-040	250	40	46.9	48.6	COM11	COM15	COM3	2024-06-12_10h38.58.818	001-EEG_SVR_Officel	2022.2.5	143.44485691588653		5.125999999999976	0_sub-pilot040_SVR_EEG_block1-2.protocol.csv	step21	3329	330.95	STIMULATE	48.8	48.6	48.6	48.6	48.7	21	328.46
322.59	0	161295	20/Hi	4	0	0	0	0	9.0	0.0	9.0	0.0						341.294212599998	346.4344018999982	346.4344018999982	7.0	['7', 'return']	[3.3991516000096453, 4.111030200001551]	5.13	5.33	1.0	20hz	high_pain	48.6			sub-040	250	40	46.9	48.6	COM11	COM15	COM3	2024-06-12_10h38.58.818	001-EEG_SVR_Officel	2022.2.5	143.44485691588653		5.331999999999994	0_sub-pilot040_SVR_EEG_block1-2.protocol.csv	step21	3329	330.95	STIMULATE	48.8	48.6	48.6	48.6	48.7	21	328.46
333.656	0	166828	wait	20	0	0	0	0	10.0	0.0	10.0	0.0						363.5686110999959	369.1387609999947	369.1387609999947	8.0	['8', 'return']	[2.6406547000078717, 3.0327255000011064]	5.56	5.48	2.0	controle	high_pain	48.6			sub-040	250	40	46.9	48.6	COM11	COM15	COM3	2024-06-12_10h38.58.818	001-EEG_SVR_Officel	2022.2.5	143.44485691588653		11.816000000000031	0_sub-pilot040_SVR_EEG_block1-2.protocol.csv	step23	3560	353.829	STIMULATE	48.8	48.6	48.6	48.6	48.6	23	351.339
339.214	0	169607	CNhz	12	0	0	0	0	10.0	0.0	10.0	0.0						363.5686110999959	369.1387609999947	369.1387609999947	8.0	['8', 'return']	[2.6406547000078717, 3.0327255000011064]	5.56	5.48	2.0	controle	high_pain	48.6			sub-040	250	40	46.9	48.6	COM11	COM15	COM3	2024-06-12_10h38.58.818	001-EEG_SVR_Officel	2022.2.5	143.44485691588653		5.557999999999993	0_sub-pilot040_SVR_EEG_block1-2.protocol.csv	step23	3560	353.829	STIMULATE	48.8	48.6	48.6	48.6	48.6	23	351.339
345.448	0	172724	CN/Hi	10	0	0	0	0	10.0	0.0	10.0	0.0						363.5686110999959	369.1387609999947	369.1387609999947	8.0	['8', 'return']	[2.6406547000078717, 3.0327255000011064]	5.56	5.48	2.0	controle	high_pain	48.6			sub-040	250	40	46.9	48.6	COM11	COM15	COM3	2024-06-12_10h38.58.818	001-EEG_SVR_Officel	2022.2.5	143.44485691588653		5.4839999999999804	0_sub-pilot040_SVR_EEG_block1-2.protocol.csv	step23	3560	353.829	STIMULATE	48.8	48.6	48.6	48.6	48.6	23	351.339
355.276	0	177638	wait	20	0	0	0	0	11.0	0.0	11.0	0.0						385.1895918999944	392.5300728000002	392.5300728000002	3.0	['3', 'return']	[3.722099899998284, 4.361003199999686]	7.33	5.52	3.0	10hz	low_pain	46.9			sub-040	250	40	46.9	48.6	COM11	COM15	COM3	2024-06-12_10h38.58.818	001-EEG_SVR_Officel	2022.2.5	143.44485691588653		10.578000000000031	0_sub-pilot040_SVR_EEG_block1-2.protocol.csv	step25	3796	377.3	STIMULATE	47.0	46.9	46.9	46.9	46.9	25	374.81
362.604	0	181302	10hz	3	0	0	0	0	11.0	0.0	11.0	0.0						385.1895918999944	392.5300728000002	392.5300728000002	3.0	['3', 'return']	[3.722099899998284, 4.361003199999686]	7.33	5.52	3.0	10hz	low_pain	46.9			sub-040	250	40	46.9	48.6	COM11	COM15	COM3	2024-06-12_10h38.58.818	001-EEG_SVR_Officel	2022.2.5	143.44485691588653		7.3279999999999745	0_sub-pilot040_SVR_EEG_block1-2.protocol.csv	step25	3796	377.3	STIMULATE	47.0	46.9	46.9	46.9	46.9	25	374.81
368.874	0	184437	10/Lo	2	0	0	0	0	11.0	0.0	11.0	0.0						385.1895918999944	392.5300728000002	392.5300728000002	3.0	['3', 'return']	[3.722099899998284, 4.361003199999686]	7.33	5.52	3.0	10hz	low_pain	46.9			sub-040	250	40	46.9	48.6	COM11	COM15	COM3	2024-06-12_10h38.58.818	001-EEG_SVR_Officel	2022.2.5	143.44485691588653		5.520000000000039	0_sub-pilot040_SVR_EEG_block1-2.protocol.csv	step25	3796	377.3	STIMULATE	47.0	46.9	46.9	46.9	46.9	25	374.81
379.994	0	189997	wait	20	0	0	0	0	12.0	0.0	12.0	0.0						409.9068614999997	416.8593824999989	416.8593824999989	8.5	['8', 'a', '5', 'return']	[3.1751352999999654, 3.7675940999906743, 4.079336099995999, 5.184524899988901]	6.94	5.08	0.0	controle	high_pain	48.6			sub-040	250	40	46.9	48.6	COM11	COM15	COM3	2024-06-12_10h38.58.818	001-EEG_SVR_Officel	2022.2.5	143.44485691588653		11.870000000000005	0_sub-pilot040_SVR_EEG_block1-2.protocol.csv	step27	4037	401.13	STIMULATE	48.8	48.6	48.6	48.6	48.6	27	398.64
386.934	0	193467	CNhz	12	0	0	0	0	12.0	0.0	12.0	0.0						409.9068614999997	416.8593824999989	416.8593824999989	8.5	['8', 'a', '5', 'return']	[3.1751352999999654, 3.7675940999906743, 4.079336099995999, 5.184524899988901]	6.94	5.08	0.0	controle	high_pain	48.6			sub-040	250	40	46.9	48.6	COM11	COM15	COM3	2024-06-12_10h38.58.818	001-EEG_SVR_Officel	2022.2.5	143.44485691588653		6.939999999999998	0_sub-pilot040_SVR_EEG_block1-2.protocol.csv	step27	4037	401.13	STIMULATE	48.8	48.6	48.6	48.6	48.6	27	398.64
392.766	0	196383	CN/Hi	10	0	0	0	0	12.0	0.0	12.0	0.0						409.9068614999997	416.8593824999989	416.8593824999989	8.5	['8', 'a', '5', 'return']	[3.1751352999999654, 3.7675940999906743, 4.079336099995999, 5.184524899988901]	6.94	5.08	0.0	controle	high_pain	48.6			sub-040	250	40	46.9	48.6	COM11	COM15	COM3	2024-06-12_10h38.58.818	001-EEG_SVR_Officel	2022.2.5	143.44485691588653		5.081999999999994	0_sub-pilot040_SVR_EEG_block1-2.protocol.csv	step27	4037	401.13	STIMULATE	48.8	48.6	48.6	48.6	48.6	27	398.64
405.142	0	202571	wait	20	0	0	0	0	13.0	0.0	13.0	0.0						435.0558609	441.2858122000034	441.2858122000034	2.5	['2', 'a', '5', 'return']	[3.3330047000054037, 3.7166043000033824, 3.9012828999984777, 4.6450216000084765]	6.22	5.22	1.0	10hz	low_pain	46.9			sub-040	250	40	46.9	48.6	COM11	COM15	COM3	2024-06-12_10h38.58.818	001-EEG_SVR_Officel	2022.2.5	143.44485691588653		13.125999999999976	0_sub-pilot040_SVR_EEG_block1-2.protocol.csv	step29	4284	425.673	STIMULATE	46.9	46.9	46.9	46.9	46.9	29	423.183
411.36	0	205680	10hz	3	0	0	0	0	13.0	0.0	13.0	0.0						435.0558609	441.2858122000034	441.2858122000034	2.5	['2', 'a', '5', 'return']	[3.3330047000054037, 3.7166043000033824, 3.9012828999984777, 4.6450216000084765]	6.22	5.22	1.0	10hz	low_pain	46.9			sub-040	250	40	46.9	48.6	COM11	COM15	COM3	2024-06-12_10h38.58.818	001-EEG_SVR_Officel	2022.2.5	143.44485691588653		6.218000000000018	0_sub-pilot040_SVR_EEG_block1-2.protocol.csv	step29	4284	425.673	STIMULATE	46.9	46.9	46.9	46.9	46.9	29	423.183
417.332	0	208666	10/Lo	2	0	0	0	0	13.0	0.0	13.0	0.0						435.0558609	441.2858122000034	441.2858122000034	2.5	['2', 'a', '5', 'return']	[3.3330047000054037, 3.7166043000033824, 3.9012828999984777, 4.6450216000084765]	6.22	5.22	1.0	10hz	low_pain	46.9			sub-040	250	40	46.9	48.6	COM11	COM15	COM3	2024-06-12_10h38.58.818	001-EEG_SVR_Officel	2022.2.5	143.44485691588653		5.22199999999998	0_sub-pilot040_SVR_EEG_block1-2.protocol.csv	step29	4284	425.673	STIMULATE	46.9	46.9	46.9	46.9	46.9	29	423.183
429.034	0	214517	wait	20	0	0	0	0	14.0	0.0	14.0	0.0						458.94771979999496	465.7262260999996	465.7262260999996	2.0	['2', 'return']	[3.277559800000745, 3.9813836999965133]	6.77	5.4	2.0	20hz	low_pain	46.9			sub-040	250	40	46.9	48.6	COM11	COM15	COM3	2024-06-12_10h38.58.818	001-EEG_SVR_Officel	2022.2.5	143.44485691588653		12.451999999999998	0_sub-pilot040_SVR_EEG_block1-2.protocol.csv	step31	4533	450.331	STIMULATE	47.0	46.9	46.9	46.9	46.9	31	447.841
435.8	0	217900	20hz	6	0	0	0	0	14.0	0.0	14.0	0.0						458.94771979999496	465.7262260999996	465.7262260999996	2.0	['2', 'return']	[3.277559800000745, 3.9813836999965133]	6.77	5.4	2.0	20hz	low_pain	46.9			sub-040	250	40	46.9	48.6	COM11	COM15	COM3	2024-06-12_10h38.58.818	001-EEG_SVR_Officel	2022.2.5	143.44485691588653		6.7660000000000196	0_sub-pilot040_SVR_EEG_block1-2.protocol.csv	step31	4533	450.331	STIMULATE	47.0	46.9	46.9	46.9	46.9	31	447.841
441.952	0	220976	20/Lo	5	0	0	0	0	14.0	0.0	14.0	0.0						458.94771979999496	465.7262260999996	465.7262260999996	2.0	['2', 'return']	[3.277559800000745, 3.9813836999965133]	6.77	5.4	2.0	20hz	low_pain	46.9			sub-040	250	40	46.9	48.6	COM11	COM15	COM3	2024-06-12_10h38.58.818	001-EEG_SVR_Officel	2022.2.5	143.44485691588653		5.401999999999987	0_sub-pilot040_SVR_EEG_block1-2.protocol.csv	step31	4533	450.331	STIMULATE	47.0	46.9	46.9	46.9	46.9	31	447.841
452.816	0	226408	wait	20	0	0	0	0	15.0	0.0	15.0	0.0						482.7288300999935	488.3474650999997	488.3474650999997	8.0	['8', 'return']	[2.847928699993645, 3.4647795999917435]	5.61	6.22	3.0	10hz	high_pain	48.6			sub-040	250	40	46.9	48.6	COM11	COM15	COM3	2024-06-12_10h38.58.818	001-EEG_SVR_Officel	2022.2.5	143.44485691588653		11.613999999999976	0_sub-pilot040_SVR_EEG_block1-2.protocol.csv	step33	4770	473.82	STIMULATE	48.7	48.6	48.6	48.6	48.6	33	471.33
458.42	0	229210	10hz	3	0	0	0	0	15.0	0.0	15.0	0.0						482.7288300999935	488.3474650999997	488.3474650999997	8.0	['8', 'return']	[2.847928699993645, 3.4647795999917435]	5.61	6.22	3.0	10hz	high_pain	48.6			sub-040	250	40	46.9	48.6	COM11	COM15	COM3	2024-06-12_10h38.58.818	001-EEG_SVR_Officel	2022.2.5	143.44485691588653		5.604000000000042	0_sub-pilot040_SVR_EEG_block1-2.protocol.csv	step33	4770	473.82	STIMULATE	48.7	48.6	48.6	48.6	48.6	33	471.33
465.392	0	232696	10/Hi	1	0	0	0	0	15.0	0.0	15.0	0.0						482.7288300999935	488.3474650999997	488.3474650999997	8.0	['8', 'return']	[2.847928699993645, 3.4647795999917435]	5.61	6.22	3.0	10hz	high_pain	48.6			sub-040	250	40	46.9	48.6	COM11	COM15	COM3	2024-06-12_10h38.58.818	001-EEG_SVR_Officel	2022.2.5	143.44485691588653		6.22199999999998	0_sub-pilot040_SVR_EEG_block1-2.protocol.csv	step33	4770	473.82	STIMULATE	48.7	48.6	48.6	48.6	48.6	33	471.33
536.852	0	268426	wait	20	1	0	1	0	0.0	0.0	0.0	0.0				p	0.3582682000123895	566.7660460000043	571.8639049999911	571.8639049999911	6.5	['6', 'a', '5', 'return']	[3.235012600009213, 3.5304519000055734, 3.835830800002441, 5.3074216000095475]	5.09	5.49	0.0	40hz	low_pain	46.9			sub-040	250	40	46.9	48.6	COM11	COM15	COM3	2024-06-12_10h38.58.818	001-EEG_SVR_Officel	2022.2.5	143.44485691588653		72.20999999999998	0_sub-pilot040_SVR_EEG_block1-2.protocol.csv	step35	5600	556.618	STIMULATE	47.1	46.9	46.9	46.9	46.9	35	554.086
541.938	0	270969	40hz	9	1	0	1	0	0.0	0.0	0.0	0.0				p	0.3582682000123895	566.7660460000043	571.8639049999911	571.8639049999911	6.5	['6', 'a', '5', 'return']	[3.235012600009213, 3.5304519000055734, 3.835830800002441, 5.3074216000095475]	5.09	5.49	0.0	40hz	low_pain	46.9			sub-040	250	40	46.9	48.6	COM11	COM15	COM3	2024-06-12_10h38.58.818	001-EEG_SVR_Officel	2022.2.5	143.44485691588653		5.086000000000013	0_sub-pilot040_SVR_EEG_block1-2.protocol.csv	step35	5600	556.618	STIMULATE	47.1	46.9	46.9	46.9	46.9	35	554.086
548.18	0	274090	40/Lo	8	1	0	1	0	0.0	0.0	0.0	0.0				p	0.3582682000123895	566.7660460000043	571.8639049999911	571.8639049999911	6.5	['6', 'a', '5', 'return']	[3.235012600009213, 3.5304519000055734, 3.835830800002441, 5.3074216000095475]	5.09	5.49	0.0	40hz	low_pain	46.9			sub-040	250	40	46.9	48.6	COM11	COM15	COM3	2024-06-12_10h38.58.818	001-EEG_SVR_Officel	2022.2.5	143.44485691588653		5.491999999999962	0_sub-pilot040_SVR_EEG_block1-2.protocol.csv	step35	5600	556.618	STIMULATE	47.1	46.9	46.9	46.9	46.9	35	554.086
560.278	0	280139	wait	20	1	0	1	0	1.0	0.0	1.0	0.0						590.192421300002	595.6653895999916	595.6653895999916	2.5	['2', 'a', '5', 'return']	[3.520910000006552, 3.896576200000709, 4.129192799999146, 5.74498560000211]	5.46	5.7	1.0	controle	low_pain	46.9			sub-040	250	40	46.9	48.6	COM11	COM15	COM3	2024-06-12_10h38.58.818	001-EEG_SVR_Officel	2022.2.5	143.44485691588653		12.84800000000007	0_sub-pilot040_SVR_EEG_block1-2.protocol.csv	step37	5841	580.589	STIMULATE	47.1	46.9	46.9	46.9	46.9	37	578.057
565.738	0	282869	CNhz	12	1	0	1	0	1.0	0.0	1.0	0.0						590.192421300002	595.6653895999916	595.6653895999916	2.5	['2', 'a', '5', 'return']	[3.520910000006552, 3.896576200000709, 4.129192799999146, 5.74498560000211]	5.46	5.7	1.0	controle	low_pain	46.9			sub-040	250	40	46.9	48.6	COM11	COM15	COM3	2024-06-12_10h38.58.818	001-EEG_SVR_Officel	2022.2.5	143.44485691588653		5.460000000000036	0_sub-pilot040_SVR_EEG_block1-2.protocol.csv	step37	5841	580.589	STIMULATE	47.1	46.9	46.9	46.9	46.9	37	578.057
572.19	0	286095	CN/Lo	11	1	0	1	0	1.0	0.0	1.0	0.0						590.192421300002	595.6653895999916	595.6653895999916	2.5	['2', 'a', '5', 'return']	[3.520910000006552, 3.896576200000709, 4.129192799999146, 5.74498560000211]	5.46	5.7	1.0	controle	low_pain	46.9			sub-040	250	40	46.9	48.6	COM11	COM15	COM3	2024-06-12_10h38.58.818	001-EEG_SVR_Officel	2022.2.5	143.44485691588653		5.701999999999998	0_sub-pilot040_SVR_EEG_block1-2.protocol.csv	step37	5841	580.589	STIMULATE	47.1	46.9	46.9	46.9	46.9	37	578.057
584.518	0	292259	wait	20	1	0	1	0	2.0	0.0	2.0	0.0						614.4322363999963	621.9118979999912	621.9118979999912	7.5	['7', 'a', '5', 'return']	[2.419539700000314, 2.7405676000053063, 3.0204905999999028, 3.5866921999986516]	7.47	6.15	2.0	10hz	high_pain	48.6			sub-040	250	40	46.9	48.6	COM11	COM15	COM3	2024-06-12_10h38.58.818	001-EEG_SVR_Officel	2022.2.5	143.44485691588653		13.077999999999975	0_sub-pilot040_SVR_EEG_block1-2.protocol.csv	step39	6111	607.337	STIMULATE	48.9	48.5	48.6	48.6	48.6	39	604.805
591.986	0	295993	10hz	3	1	0	1	0	2.0	0.0	2.0	0.0						614.4322363999963	621.9118979999912	621.9118979999912	7.5	['7', 'a', '5', 'return']	[2.419539700000314, 2.7405676000053063, 3.0204905999999028, 3.5866921999986516]	7.47	6.15	2.0	10hz	high_pain	48.6			sub-040	250	40	46.9	48.6	COM11	COM15	COM3	2024-06-12_10h38.58.818	001-EEG_SVR_Officel	2022.2.5	143.44485691588653		7.467999999999961	0_sub-pilot040_SVR_EEG_block1-2.protocol.csv	step39	6111	607.337	STIMULATE	48.9	48.5	48.6	48.6	48.6	39	604.805
598.888	0	299444	10/Hi	1	1	0	1	0	2.0	0.0	2.0	0.0						614.4322363999963	621.9118979999912	621.9118979999912	7.5	['7', 'a', '5', 'return']	[2.419539700000314, 2.7405676000053063, 3.0204905999999028, 3.5866921999986516]	7.47	6.15	2.0	10hz	high_pain	48.6			sub-040	250	40	46.9	48.6	COM11	COM15	COM3	2024-06-12_10h38.58.818	001-EEG_SVR_Officel	2022.2.5	143.44485691588653		6.152000000000044	0_sub-pilot040_SVR_EEG_block1-2.protocol.csv	step39	6111	607.337	STIMULATE	48.9	48.5	48.6	48.6	48.6	39	604.805
608.596	0	304298	wait	20	1	0	1	0	3.0	0.0	3.0	0.0						638.510677600003	644.4072557000036	644.4072557000036	2.0	['2', 'return']	[2.723636400012765, 3.539321000003838]	5.89	5.9	3.0	20hz	low_pain	46.9			sub-040	250	40	46.9	48.6	COM11	COM15	COM3	2024-06-12_10h38.58.818	001-EEG_SVR_Officel	2022.2.5	143.44485691588653		10.45799999999997	0_sub-pilot040_SVR_EEG_block1-2.protocol.csv	step41	6336	629.603	STIMULATE	47.1	46.9	46.9	46.9	46.9	41	627.0709999999999
614.48	0	307240	20hz	6	1	0	1	0	3.0	0.0	3.0	0.0						638.510677600003	644.4072557000036	644.4072557000036	2.0	['2', 'return']	[2.723636400012765, 3.539321000003838]	5.89	5.9	3.0	20hz	low_pain	46.9			sub-040	250	40	46.9	48.6	COM11	COM15	COM3	2024-06-12_10h38.58.818	001-EEG_SVR_Officel	2022.2.5	143.44485691588653		5.8840000000000146	0_sub-pilot040_SVR_EEG_block1-2.protocol.csv	step41	6336	629.603	STIMULATE	47.1	46.9	46.9	46.9	46.9	41	627.0709999999999
621.132	0	310566	20/Lo	5	1	0	1	0	3.0	0.0	3.0	0.0						638.510677600003	644.4072557000036	644.4072557000036	2.0	['2', 'return']	[2.723636400012765, 3.539321000003838]	5.89	5.9	3.0	20hz	low_pain	46.9			sub-040	250	40	46.9	48.6	COM11	COM15	COM3	2024-06-12_10h38.58.818	001-EEG_SVR_Officel	2022.2.5	143.44485691588653		5.90199999999993	0_sub-pilot040_SVR_EEG_block1-2.protocol.csv	step41	6336	629.603	STIMULATE	47.1	46.9	46.9	46.9	46.9	41	627.0709999999999
631.05	0	315525	wait	20	1	0	1	0	4.0	0.0	4.0	0.0						660.9648629000003	668.451923200002	668.451923200002	8.0	['8', 'return']	[2.9836501000099815, 3.472112300005392]	7.48	6.24	0.0	10hz	high_pain	48.6			sub-040	250	40	46.9	48.6	COM11	COM15	COM3	2024-06-12_10h38.58.818	001-EEG_SVR_Officel	2022.2.5	143.44485691588653		10.668000000000006	0_sub-pilot040_SVR_EEG_block1-2.protocol.csv	step43	6581	653.96	STIMULATE	48.9	48.6	48.6	48.6	48.6	43	651.428
638.526	0	319263	10hz	3	1	0	1	0	4.0	0.0	4.0	0.0						660.9648629000003	668.451923200002	668.451923200002	8.0	['8', 'return']	[2.9836501000099815, 3.472112300005392]	7.48	6.24	0.0	10hz	high_pain	48.6			sub-040	250	40	46.9	48.6	COM11	COM15	COM3	2024-06-12_10h38.58.818	001-EEG_SVR_Officel	2022.2.5	143.44485691588653		7.475999999999999	0_sub-pilot040_SVR_EEG_block1-2.protocol.csv	step43	6581	653.96	STIMULATE	48.9	48.6	48.6	48.6	48.6	43	651.428
645.516	0	322758	10/Hi	1	1	0	1	0	4.0	0.0	4.0	0.0						660.9648629000003	668.451923200002	668.451923200002	8.0	['8', 'return']	[2.9836501000099815, 3.472112300005392]	7.48	6.24	0.0	10hz	high_pain	48.6			sub-040	250	40	46.9	48.6	COM11	COM15	COM3	2024-06-12_10h38.58.818	001-EEG_SVR_Officel	2022.2.5	143.44485691588653		6.240000000000009	0_sub-pilot040_SVR_EEG_block1-2.protocol.csv	step43	6581	653.96	STIMULATE	48.9	48.6	48.6	48.6	48.6	43	651.428
655.026	0	327513	wait	20	1	0	1	0	5.0	0.0	5.0	0.0						684.9398436000047	692.1491887000011	692.1491887000011	4.5	['4', 'a', '5', 'return']	[2.6462657999945804, 2.9824710999964736, 3.1653847999987192, 3.9741553000058047]	7.2	5.03	1.0	20hz	low_pain	46.9			sub-040	250	40	46.9	48.6	COM11	COM15	COM3	2024-06-12_10h38.58.818	001-EEG_SVR_Officel	2022.2.5	143.44485691588653		10.259999999999991	0_sub-pilot040_SVR_EEG_block1-2.protocol.csv	step45	6808	676.454	STIMULATE	47.0	46.9	46.9	46.9	47.0	45	673.9219999999999
662.222	0	331111	20hz	6	1	0	1	0	5.0	0.0	5.0	0.0						684.9398436000047	692.1491887000011	692.1491887000011	4.5	['4', 'a', '5', 'return']	[2.6462657999945804, 2.9824710999964736, 3.1653847999987192, 3.9741553000058047]	7.2	5.03	1.0	20hz	low_pain	46.9			sub-040	250	40	46.9	48.6	COM11	COM15	COM3	2024-06-12_10h38.58.818	001-EEG_SVR_Officel	2022.2.5	143.44485691588653		7.196000000000026	0_sub-pilot040_SVR_EEG_block1-2.protocol.csv	step45	6808	676.454	STIMULATE	47.0	46.9	46.9	46.9	47.0	45	673.9219999999999
668.006	0	334003	20/Lo	5	1	0	1	0	5.0	0.0	5.0	0.0						684.9398436000047	692.1491887000011	692.1491887000011	4.5	['4', 'a', '5', 'return']	[2.6462657999945804, 2.9824710999964736, 3.1653847999987192, 3.9741553000058047]	7.2	5.03	1.0	20hz	low_pain	46.9			sub-040	250	40	46.9	48.6	COM11	COM15	COM3	2024-06-12_10h38.58.818	001-EEG_SVR_Officel	2022.2.5	143.44485691588653		5.033999999999992	0_sub-pilot040_SVR_EEG_block1-2.protocol.csv	step45	6808	676.454	STIMULATE	47.0	46.9	46.9	46.9	47.0	45	673.9219999999999
679.228	0	339614	wait	20	1	0	1	0	6.0	0.0	6.0	0.0						709.1442491999915	715.4712712000037	715.4712712000037	3.0	['3', 'return']	[2.6345866000046954, 3.3786725000099977]	6.32	6.06	2.0	40hz	low_pain	46.9			sub-040	250	40	46.9	48.6	COM11	COM15	COM3	2024-06-12_10h38.58.818	001-EEG_SVR_Officel	2022.2.5	143.44485691588653		11.97199999999998	0_sub-pilot040_SVR_EEG_block1-2.protocol.csv	step47	7053	700.76	STIMULATE	47.1	46.9	46.9	46.9	46.9	47	698.228
685.546	0	342773	40hz	9	1	0	1	0	6.0	0.0	6.0	0.0						709.1442491999915	715.4712712000037	715.4712712000037	3.0	['3', 'return']	[2.6345866000046954, 3.3786725000099977]	6.32	6.06	2.0	40hz	low_pain	46.9			sub-040	250	40	46.9	48.6	COM11	COM15	COM3	2024-06-12_10h38.58.818	001-EEG_SVR_Officel	2022.2.5	143.44485691588653		6.318000000000097	0_sub-pilot040_SVR_EEG_block1-2.protocol.csv	step47	7053	700.76	STIMULATE	47.1	46.9	46.9	46.9	46.9	47	698.228
692.356	0	346178	40/Lo	8	1	0	1	0	6.0	0.0	6.0	0.0						709.1442491999915	715.4712712000037	715.4712712000037	3.0	['3', 'return']	[2.6345866000046954, 3.3786725000099977]	6.32	6.06	2.0	40hz	low_pain	46.9			sub-040	250	40	46.9	48.6	COM11	COM15	COM3	2024-06-12_10h38.58.818	001-EEG_SVR_Officel	2022.2.5	143.44485691588653		6.059999999999945	0_sub-pilot040_SVR_EEG_block1-2.protocol.csv	step47	7053	700.76	STIMULATE	47.1	46.9	46.9	46.9	46.9	47	698.228
701.962	0	350981	wait	20	1	0	1	0	7.0	0.0	7.0	0.0						731.8769167999999	737.6063135000004	737.6063135000004	8.0	['8', 'return']	[2.357110400000238, 2.933653400003095]	5.72	6.21	3.0	20hz	high_pain	48.6			sub-040	250	40	46.9	48.6	COM11	COM15	COM3	2024-06-12_10h38.58.818	001-EEG_SVR_Officel	2022.2.5	143.44485691588653		10.355999999999995	0_sub-pilot040_SVR_EEG_block1-2.protocol.csv	step49	7278	723.078	STIMULATE	48.9	48.6	48.6	48.6	48.6	49	720.5459999999999
707.678	0	353839	20hz	6	1	0	1	0	7.0	0.0	7.0	0.0						731.8769167999999	737.6063135000004	737.6063135000004	8.0	['8', 'return']	[2.357110400000238, 2.933653400003095]	5.72	6.21	3.0	20hz	high_pain	48.6			sub-040	250	40	46.9	48.6	COM11	COM15	COM3	2024-06-12_10h38.58.818	001-EEG_SVR_Officel	2022.2.5	143.44485691588653		5.716000000000008	0_sub-pilot040_SVR_EEG_block1-2.protocol.csv	step49	7278	723.078	STIMULATE	48.9	48.6	48.6	48.6	48.6	49	720.5459999999999
714.642	0	357321	20/Hi	4	1	0	1	0	7.0	0.0	7.0	0.0						731.8769167999999	737.6063135000004	737.6063135000004	8.0	['8', 'return']	[2.357110400000238, 2.933653400003095]	5.72	6.21	3.0	20hz	high_pain	48.6			sub-040	250	40	46.9	48.6	COM11	COM15	COM3	2024-06-12_10h38.58.818	001-EEG_SVR_Officel	2022.2.5	143.44485691588653		6.2140000000000555	0_sub-pilot040_SVR_EEG_block1-2.protocol.csv	step49	7278	723.078	STIMULATE	48.9	48.6	48.6	48.6	48.6	49	720.5459999999999
723.644	0	361822	wait	20	1	0	1	0	8.0	0.0	8.0	0.0						753.5592117999913	760.9211573999928	760.9211573999928	7.5	['7', 'a', '5', 'return']	[2.8824076000018977, 3.194114300000365, 3.4341079000005266, 4.522483000007924]	7.35	6.45	0.0	20hz	high_pain	48.6			sub-040	250	40	46.9	48.6	COM11	COM15	COM3	2024-06-12_10h38.58.818	001-EEG_SVR_Officel	2022.2.5	143.44485691588653		9.751999999999953	0_sub-pilot040_SVR_EEG_block1-2.protocol.csv	step51	7515	746.579	STIMULATE	48.7	48.6	48.6	48.5	48.6	51	744.0469999999999
730.994	0	365497	20hz	6	1	0	1	0	8.0	0.0	8.0	0.0						753.5592117999913	760.9211573999928	760.9211573999928	7.5	['7', 'a', '5', 'return']	[2.8824076000018977, 3.194114300000365, 3.4341079000005266, 4.522483000007924]	7.35	6.45	0.0	20hz	high_pain	48.6			sub-040	250	40	46.9	48.6	COM11	COM15	COM3	2024-06-12_10h38.58.818	001-EEG_SVR_Officel	2022.2.5	143.44485691588653		7.350000000000023	0_sub-pilot040_SVR_EEG_block1-2.protocol.csv	step51	7515	746.579	STIMULATE	48.7	48.6	48.6	48.5	48.6	51	744.0469999999999
738.194	0	369097	20/Hi	4	1	0	1	0	8.0	0.0	8.0	0.0						753.5592117999913	760.9211573999928	760.9211573999928	7.5	['7', 'a', '5', 'return']	[2.8824076000018977, 3.194114300000365, 3.4341079000005266, 4.522483000007924]	7.35	6.45	0.0	20hz	high_pain	48.6			sub-040	250	40	46.9	48.6	COM11	COM15	COM3	2024-06-12_10h38.58.818	001-EEG_SVR_Officel	2022.2.5	143.44485691588653		6.449999999999932	0_sub-pilot040_SVR_EEG_block1-2.protocol.csv	step51	7515	746.579	STIMULATE	48.7	48.6	48.6	48.5	48.6	51	744.0469999999999
748.542	0	374271	wait	20	1	0	1	0	9.0	0.0	9.0	0.0						778.4574851999932	783.5767402999918	783.5767402999918	8.0	['8', 'return']	[2.9062377999944147, 3.3468665999971563]	5.11	5.31	1.0	10hz	high_pain	48.6			sub-040	250	40	46.9	48.6	COM11	COM15	COM3	2024-06-12_10h38.58.818	001-EEG_SVR_Officel	2022.2.5	143.44485691588653		11.09800000000007	0_sub-pilot040_SVR_EEG_block1-2.protocol.csv	step53	7733	768.212	STIMULATE	48.8	48.6	48.6	48.6	48.6	53	765.68
753.65	0	376825	10hz	3	1	0	1	0	9.0	0.0	9.0	0.0						778.4574851999932	783.5767402999918	783.5767402999918	8.0	['8', 'return']	[2.9062377999944147, 3.3468665999971563]	5.11	5.31	1.0	10hz	high_pain	48.6			sub-040	250	40	46.9	48.6	COM11	COM15	COM3	2024-06-12_10h38.58.818	001-EEG_SVR_Officel	2022.2.5	143.44485691588653		5.107999999999947	0_sub-pilot040_SVR_EEG_block1-2.protocol.csv	step53	7733	768.212	STIMULATE	48.8	48.6	48.6	48.6	48.6	53	765.68
759.718	0	379859	10/Hi	1	1	0	1	0	9.0	0.0	9.0	0.0						778.4574851999932	783.5767402999918	783.5767402999918	8.0	['8', 'return']	[2.9062377999944147, 3.3468665999971563]	5.11	5.31	1.0	10hz	high_pain	48.6			sub-040	250	40	46.9	48.6	COM11	COM15	COM3	2024-06-12_10h38.58.818	001-EEG_SVR_Officel	2022.2.5	143.44485691588653		5.317999999999984	0_sub-pilot040_SVR_EEG_block1-2.protocol.csv	step53	7733	768.212	STIMULATE	48.8	48.6	48.6	48.6	48.6	53	765.68
770.018	0	385009	wait	20	1	0	1	0	10.0	0.0	10.0	0.0						799.9321476000041	807.1425811999943	807.1425811999943	2.0	['2', 'return']	[2.4379710999928648, 3.1016567000042414]	7.2	5.94	2.0	10hz	low_pain	46.9			sub-040	250	40	46.9	48.6	COM11	COM15	COM3	2024-06-12_10h38.58.818	001-EEG_SVR_Officel	2022.2.5	143.44485691588653		11.050000000000068	0_sub-pilot040_SVR_EEG_block1-2.protocol.csv	step55	7975	792.361	STIMULATE	47.1	46.9	46.9	46.9	46.9	55	789.829
777.216	0	388608	10hz	3	1	0	1	0	10.0	0.0	10.0	0.0						799.9321476000041	807.1425811999943	807.1425811999943	2.0	['2', 'return']	[2.4379710999928648, 3.1016567000042414]	7.2	5.94	2.0	10hz	low_pain	46.9			sub-040	250	40	46.9	48.6	COM11	COM15	COM3	2024-06-12_10h38.58.818	001-EEG_SVR_Officel	2022.2.5	143.44485691588653		7.197999999999979	0_sub-pilot040_SVR_EEG_block1-2.protocol.csv	step55	7975	792.361	STIMULATE	47.1	46.9	46.9	46.9	46.9	55	789.829
783.908	0	391954	10/Lo	2	1	0	1	0	10.0	0.0	10.0	0.0						799.9321476000041	807.1425811999943	807.1425811999943	2.0	['2', 'return']	[2.4379710999928648, 3.1016567000042414]	7.2	5.94	2.0	10hz	low_pain	46.9			sub-040	250	40	46.9	48.6	COM11	COM15	COM3	2024-06-12_10h38.58.818	001-EEG_SVR_Officel	2022.2.5	143.44485691588653		5.942000000000007	0_sub-pilot040_SVR_EEG_block1-2.protocol.csv	step55	7975	792.361	STIMULATE	47.1	46.9	46.9	46.9	46.9	55	789.829
793.346	0	396673	wait	20	1	0	1	0	11.0	0.0	11.0	0.0						823.261516300001	830.4711100999994	830.4711100999994	8.0	['8', 'return']	[2.4677913000050467, 3.1158547999948496]	7.2	5.27	3.0	40hz	high_pain	48.6			sub-040	250	40	46.9	48.6	COM11	COM15	COM3	2024-06-12_10h38.58.818	001-EEG_SVR_Officel	2022.2.5	143.44485691588653		10.187999999999988	0_sub-pilot040_SVR_EEG_block1-2.protocol.csv	step57	8197	814.986	STIMULATE	48.7	48.6	48.6	48.6	48.6	57	812.454
800.544	0	400272	40hz	9	1	0	1	0	11.0	0.0	11.0	0.0						823.261516300001	830.4711100999994	830.4711100999994	8.0	['8', 'return']	[2.4677913000050467, 3.1158547999948496]	7.2	5.27	3.0	40hz	high_pain	48.6			sub-040	250	40	46.9	48.6	COM11	COM15	COM3	2024-06-12_10h38.58.818	001-EEG_SVR_Officel	2022.2.5	143.44485691588653		7.197999999999979	0_sub-pilot040_SVR_EEG_block1-2.protocol.csv	step57	8197	814.986	STIMULATE	48.7	48.6	48.6	48.6	48.6	57	812.454
806.562	0	403281	40/Hi	7	1	0	1	0	11.0	0.0	11.0	0.0						823.261516300001	830.4711100999994	830.4711100999994	8.0	['8', 'return']	[2.4677913000050467, 3.1158547999948496]	7.2	5.27	3.0	40hz	high_pain	48.6			sub-040	250	40	46.9	48.6	COM11	COM15	COM3	2024-06-12_10h38.58.818	001-EEG_SVR_Officel	2022.2.5	143.44485691588653		5.268000000000029	0_sub-pilot040_SVR_EEG_block1-2.protocol.csv	step57	8197	814.986	STIMULATE	48.7	48.6	48.6	48.6	48.6	57	812.454
816.69	0	408345	wait	20	1	0	1	0	12.0	0.0	12.0	0.0						846.6055936000048	852.446566899991	852.446566899991	5.0	['5', 'return']	[2.9413326000067173, 3.8041214999975637]	5.83	5.19	0.0	40hz	high_pain	48.6			sub-040	250	40	46.9	48.6	COM11	COM15	COM3	2024-06-12_10h38.58.818	001-EEG_SVR_Officel	2022.2.5	143.44485691588653		10.878000000000043	0_sub-pilot040_SVR_EEG_block1-2.protocol.csv	step59	8408	836.849	STIMULATE	48.8	48.6	48.6	48.6	48.6	59	834.317
822.518	0	411259	40hz	9	1	0	1	0	12.0	0.0	12.0	0.0						846.6055936000048	852.446566899991	852.446566899991	5.0	['5', 'return']	[2.9413326000067173, 3.8041214999975637]	5.83	5.19	0.0	40hz	high_pain	48.6			sub-040	250	40	46.9	48.6	COM11	COM15	COM3	2024-06-12_10h38.58.818	001-EEG_SVR_Officel	2022.2.5	143.44485691588653		5.8279999999999745	0_sub-pilot040_SVR_EEG_block1-2.protocol.csv	step59	8408	836.849	STIMULATE	48.8	48.6	48.6	48.6	48.6	59	834.317
828.462	0	414231	40/Hi	7	1	0	1	0	12.0	0.0	12.0	0.0						846.6055936000048	852.446566899991	852.446566899991	5.0	['5', 'return']	[2.9413326000067173, 3.8041214999975637]	5.83	5.19	0.0	40hz	high_pain	48.6			sub-040	250	40	46.9	48.6	COM11	COM15	COM3	2024-06-12_10h38.58.818	001-EEG_SVR_Officel	2022.2.5	143.44485691588653		5.19399999999996	0_sub-pilot040_SVR_EEG_block1-2.protocol.csv	step59	8408	836.849	STIMULATE	48.8	48.6	48.6	48.6	48.6	59	834.317
839.352	0	419676	wait	20	1	0	1	0	13.0	0.0	13.0	0.0						869.2678528999968	874.5944548999978	874.5944548999978	7.0	['7', 'return']	[2.3847773999877973, 3.089080299992929]	5.32	6.42	1.0	40hz	high_pain	48.6			sub-040	250	40	46.9	48.6	COM11	COM15	COM3	2024-06-12_10h38.58.818	001-EEG_SVR_Officel	2022.2.5	143.44485691588653		11.639999999999986	0_sub-pilot040_SVR_EEG_block1-2.protocol.csv	step61	8633	860.319	STIMULATE	48.8	48.6	48.6	48.6	48.6	61	857.7869999999999
844.666	0	422333	40hz	9	1	0	1	0	13.0	0.0	13.0	0.0						869.2678528999968	874.5944548999978	874.5944548999978	7.0	['7', 'return']	[2.3847773999877973, 3.089080299992929]	5.32	6.42	1.0	40hz	high_pain	48.6			sub-040	250	40	46.9	48.6	COM11	COM15	COM3	2024-06-12_10h38.58.818	001-EEG_SVR_Officel	2022.2.5	143.44485691588653		5.314000000000078	0_sub-pilot040_SVR_EEG_block1-2.protocol.csv	step61	8633	860.319	STIMULATE	48.8	48.6	48.6	48.6	48.6	61	857.7869999999999
851.84	0	425920	40/Hi	7	1	0	1	0	13.0	0.0	13.0	0.0						869.2678528999968	874.5944548999978	874.5944548999978	7.0	['7', 'return']	[2.3847773999877973, 3.089080299992929]	5.32	6.42	1.0	40hz	high_pain	48.6			sub-040	250	40	46.9	48.6	COM11	COM15	COM3	2024-06-12_10h38.58.818	001-EEG_SVR_Officel	2022.2.5	143.44485691588653		6.423999999999978	0_sub-pilot040_SVR_EEG_block1-2.protocol.csv	step61	8633	860.319	STIMULATE	48.8	48.6	48.6	48.6	48.6	61	857.7869999999999
860.778	0	430389	wait	20	1	0	1	0	14.0	0.0	14.0	0.0						890.6934290999925	896.0415823999938	896.0415823999938	2.0	['2', 'return']	[2.713387800002238, 4.289834099996369]	5.34	6.17	2.0	controle	low_pain	46.9			sub-040	250	40	46.9	48.6	COM11	COM15	COM3	2024-06-12_10h38.58.818	001-EEG_SVR_Officel	2022.2.5	143.44485691588653		9.687999999999988	0_sub-pilot040_SVR_EEG_block1-2.protocol.csv	step63	8833	881.413	STIMULATE	47.1	46.9	46.8	46.9	46.9	63	878.881
866.114	0	433057	CNhz	12	1	0	1	0	14.0	0.0	14.0	0.0						890.6934290999925	896.0415823999938	896.0415823999938	2.0	['2', 'return']	[2.713387800002238, 4.289834099996369]	5.34	6.17	2.0	controle	low_pain	46.9			sub-040	250	40	46.9	48.6	COM11	COM15	COM3	2024-06-12_10h38.58.818	001-EEG_SVR_Officel	2022.2.5	143.44485691588653		5.336000000000013	0_sub-pilot040_SVR_EEG_block1-2.protocol.csv	step63	8833	881.413	STIMULATE	47.1	46.9	46.8	46.9	46.9	63	878.881
873.036	0	436518	CN/Lo	11	1	0	1	0	14.0	0.0	14.0	0.0						890.6934290999925	896.0415823999938	896.0415823999938	2.0	['2', 'return']	[2.713387800002238, 4.289834099996369]	5.34	6.17	2.0	controle	low_pain	46.9			sub-040	250	40	46.9	48.6	COM11	COM15	COM3	2024-06-12_10h38.58.818	001-EEG_SVR_Officel	2022.2.5	143.44485691588653		6.171999999999912	0_sub-pilot040_SVR_EEG_block1-2.protocol.csv	step63	8833	881.413	STIMULATE	47.1	46.9	46.8	46.9	46.9	63	878.881
883.426	0	441713	wait	20	1	0	1	0	15.0	0.0	15.0	0.0						913.3414090000006	920.0234681000002	920.0234681000002	4.0	['4', 'return']	[2.404037200001767, 2.8841809000005014]	6.67	5.84	3.0	controle	low_pain	46.9			sub-040	250	40	46.9	48.6	COM11	COM15	COM3	2024-06-12_10h38.58.818	001-EEG_SVR_Officel	2022.2.5	143.44485691588653		11.1400000000001	0_sub-pilot040_SVR_EEG_block1-2.protocol.csv	step65	9057	905.184	STIMULATE	47.1	46.9	46.9	46.9	46.9	65	902.6519999999999
890.096	0	445048	CNhz	12	1	0	1	0	15.0	0.0	15.0	0.0						913.3414090000006	920.0234681000002	920.0234681000002	4.0	['4', 'return']	[2.404037200001767, 2.8841809000005014]	6.67	5.84	3.0	controle	low_pain	46.9			sub-040	250	40	46.9	48.6	COM11	COM15	COM3	2024-06-12_10h38.58.818	001-EEG_SVR_Officel	2022.2.5	143.44485691588653		6.669999999999959	0_sub-pilot040_SVR_EEG_block1-2.protocol.csv	step65	9057	905.184	STIMULATE	47.1	46.9	46.9	46.9	46.9	65	902.6519999999999
896.684	0	448342	CN/Lo	11	1	0	1	0	15.0	0.0	15.0	0.0						913.3414090000006	920.0234681000002	920.0234681000002	4.0	['4', 'return']	[2.404037200001767, 2.8841809000005014]	6.67	5.84	3.0	controle	low_pain	46.9			sub-040	250	40	46.9	48.6	COM11	COM15	COM3	2024-06-12_10h38.58.818	001-EEG_SVR_Officel	2022.2.5	143.44485691588653		5.837999999999965	0_sub-pilot040_SVR_EEG_block1-2.protocol.csv	step65	9057	905.184	STIMULATE	47.1	46.9	46.9	46.9	46.9	65	902.6519999999999
999.72	0	499860	wait	20	2	0	2	0	0.0	0.0	0.0	0.0				p	0.3564501000073505	1029.635808799998	1035.773438499993	1035.773438499993	4.0	['4', 'return']	[4.325928000005661, 5.125233800004935]	6.13	5.72	0.0	controle	low_pain	46.9			sub-040	250	40	46.9	48.6	COM11	COM15	COM3	2024-06-12_10h38.58.818	001-EEG_SVR_Officel	2022.2.5	143.44485691588653		103.78600000000006	1_sub-pilot040_SVR_EEG_block3-4.protocol.csv	step3	1025	102.343	STIMULATE	47.0	46.9	46.9	46.9	46.9	3	1018.1610000000001
1005.844	0	502922	CNhz	12	2	0	2	0	0.0	0.0	0.0	0.0				p	0.3564501000073505	1029.635808799998	1035.773438499993	1035.773438499993	4.0	['4', 'return']	[4.325928000005661, 5.125233800004935]	6.13	5.72	0.0	controle	low_pain	46.9			sub-040	250	40	46.9	48.6	COM11	COM15	COM3	2024-06-12_10h38.58.818	001-EEG_SVR_Officel	2022.2.5	143.44485691588653		6.124000000000024	1_sub-pilot040_SVR_EEG_block3-4.protocol.csv	step3	1025	102.343	STIMULATE	47.0	46.9	46.9	46.9	46.9	3	1018.1610000000001
1012.316	0	506158	CN/Lo	11	2	0	2	0	0.0	0.0	0.0	0.0				p	0.3564501000073505	1029.635808799998	1035.773438499993	1035.773438499993	4.0	['4', 'return']	[4.325928000005661, 5.125233800004935]	6.13	5.72	0.0	controle	low_pain	46.9			sub-040	250	40	46.9	48.6	COM11	COM15	COM3	2024-06-12_10h38.58.818	001-EEG_SVR_Officel	2022.2.5	143.44485691588653		5.72199999999998	1_sub-pilot040_SVR_EEG_block3-4.protocol.csv	step3	1025	102.343	STIMULATE	47.0	46.9	46.9	46.9	46.9	3	1018.1610000000001
1023.992	0	511996	wait	20	2	0	2	0	1.0	0.0	1.0	0.0						1053.9071020999982	1060.6654559000017	1060.6654559000017	3.5	['3', 'a', '5', 'return']	[3.0343095999996876, 3.274908500010497, 3.4821740000043064, 4.211132399999769]	6.75	6.34	1.0	40hz	low_pain	46.9			sub-040	250	40	46.9	48.6	COM11	COM15	COM3	2024-06-12_10h38.58.818	001-EEG_SVR_Officel	2022.2.5	143.44485691588653		12.42599999999993	1_sub-pilot040_SVR_EEG_block3-4.protocol.csv	step5	1282	127.834	STIMULATE	46.9	46.9	46.9	46.9	47.0	5	1043.652
1030.736	0	515368	40hz	9	2	0	2	0	1.0	0.0	1.0	0.0						1053.9071020999982	1060.6654559000017	1060.6654559000017	3.5	['3', 'a', '5', 'return']	[3.0343095999996876, 3.274908500010497, 3.4821740000043064, 4.211132399999769]	6.75	6.34	1.0	40hz	low_pain	46.9			sub-040	250	40	46.9	48.6	COM11	COM15	COM3	2024-06-12_10h38.58.818	001-EEG_SVR_Officel	2022.2.5	143.44485691588653		6.744000000000142	1_sub-pilot040_SVR_EEG_block3-4.protocol.csv	step5	1282	127.834	STIMULATE	46.9	46.9	46.9	46.9	47.0	5	1043.652
1037.826	0	518913	40/Lo	8	2	0	2	0	1.0	0.0	1.0	0.0						1053.9071020999982	1060.6654559000017	1060.6654559000017	3.5	['3', 'a', '5', 'return']	[3.0343095999996876, 3.274908500010497, 3.4821740000043064, 4.211132399999769]	6.75	6.34	1.0	40hz	low_pain	46.9			sub-040	250	40	46.9	48.6	COM11	COM15	COM3	2024-06-12_10h38.58.818	001-EEG_SVR_Officel	2022.2.5	143.44485691588653		6.339999999999918	1_sub-pilot040_SVR_EEG_block3-4.protocol.csv	step5	1282	127.834	STIMULATE	46.9	46.9	46.9	46.9	47.0	5	1043.652
1047.972	0	523986	wait	20	2	0	2	0	2.0	0.0	2.0	0.0						1077.889241099998	1085.1963263999933	1085.1963263999933	8.0	['8', 'return']	[2.733240699992166, 3.2757550999958767]	7.3	5.49	2.0	controle	high_pain	48.6			sub-040	250	40	46.9	48.6	COM11	COM15	COM3	2024-06-12_10h38.58.818	001-EEG_SVR_Officel	2022.2.5	143.44485691588653		10.895999999999958	1_sub-pilot040_SVR_EEG_block3-4.protocol.csv	step7	1521	151.538	STIMULATE	48.7	48.6	48.6	48.6	48.6	7	1067.356
1055.27	0	527635	CNhz	12	2	0	2	0	2.0	0.0	2.0	0.0						1077.889241099998	1085.1963263999933	1085.1963263999933	8.0	['8', 'return']	[2.733240699992166, 3.2757550999958767]	7.3	5.49	2.0	controle	high_pain	48.6			sub-040	250	40	46.9	48.6	COM11	COM15	COM3	2024-06-12_10h38.58.818	001-EEG_SVR_Officel	2022.2.5	143.44485691588653		7.298000000000002	1_sub-pilot040_SVR_EEG_block3-4.protocol.csv	step7	1521	151.538	STIMULATE	48.7	48.6	48.6	48.6	48.6	7	1067.356
1061.51	0	530755	CN/Hi	10	2	0	2	0	2.0	0.0	2.0	0.0						1077.889241099998	1085.1963263999933	1085.1963263999933	8.0	['8', 'return']	[2.733240699992166, 3.2757550999958767]	7.3	5.49	2.0	controle	high_pain	48.6			sub-040	250	40	46.9	48.6	COM11	COM15	COM3	2024-06-12_10h38.58.818	001-EEG_SVR_Officel	2022.2.5	143.44485691588653		5.490000000000009	1_sub-pilot040_SVR_EEG_block3-4.protocol.csv	step7	1521	151.538	STIMULATE	48.7	48.6	48.6	48.6	48.6	7	1067.356
1071.574	0	535787	wait	20	2	0	2	0	3.0	0.0	3.0	0.0						1101.4904017999943	1107.9765037000034	1107.9765037000034	4.0	['4', 'return']	[2.9059639999904903, 3.5475442000024486]	6.48	5.55	3.0	20hz	low_pain	46.9			sub-040	250	40	46.9	48.6	COM11	COM15	COM3	2024-06-12_10h38.58.818	001-EEG_SVR_Officel	2022.2.5	143.44485691588653		10.814000000000078	1_sub-pilot040_SVR_EEG_block3-4.protocol.csv	step9	1752	174.409	STIMULATE	47.0	46.9	46.9	46.9	46.9	9	1090.227
1078.048	0	539024	20hz	6	2	0	2	0	3.0	0.0	3.0	0.0						1101.4904017999943	1107.9765037000034	1107.9765037000034	4.0	['4', 'return']	[2.9059639999904903, 3.5475442000024486]	6.48	5.55	3.0	20hz	low_pain	46.9			sub-040	250	40	46.9	48.6	COM11	COM15	COM3	2024-06-12_10h38.58.818	001-EEG_SVR_Officel	2022.2.5	143.44485691588653		6.473999999999933	1_sub-pilot040_SVR_EEG_block3-4.protocol.csv	step9	1752	174.409	STIMULATE	47.0	46.9	46.9	46.9	46.9	9	1090.227
1084.352	0	542176	20/Lo	5	2	0	2	0	3.0	0.0	3.0	0.0						1101.4904017999943	1107.9765037000034	1107.9765037000034	4.0	['4', 'return']	[2.9059639999904903, 3.5475442000024486]	6.48	5.55	3.0	20hz	low_pain	46.9			sub-040	250	40	46.9	48.6	COM11	COM15	COM3	2024-06-12_10h38.58.818	001-EEG_SVR_Officel	2022.2.5	143.44485691588653		5.554000000000087	1_sub-pilot040_SVR_EEG_block3-4.protocol.csv	step9	1752	174.409	STIMULATE	47.0	46.9	46.9	46.9	46.9	9	1090.227
1094.624	0	547312	wait	20	2	0	2	0	4.0	0.0	4.0	0.0						1124.540917499995	1132.4516274999914	1132.4516274999914	8.0	['8', 'return']	[3.598931399988942, 10.304719799998566]	7.9	6.0	0.0	controle	high_pain	48.6			sub-040	250	40	46.9	48.6	COM11	COM15	COM3	2024-06-12_10h38.58.818	001-EEG_SVR_Officel	2022.2.5	143.44485691588653		11.021999999999935	1_sub-pilot040_SVR_EEG_block3-4.protocol.csv	step11	2003	199.307	STIMULATE	48.6	48.6	48.6	48.6	48.8	11	1115.125
1102.524	0	551262	CNhz	12	2	0	2	0	4.0	0.0	4.0	0.0						1124.540917499995	1132.4516274999914	1132.4516274999914	8.0	['8', 'return']	[3.598931399988942, 10.304719799998566]	7.9	6.0	0.0	controle	high_pain	48.6			sub-040	250	40	46.9	48.6	COM11	COM15	COM3	2024-06-12_10h38.58.818	001-EEG_SVR_Officel	2022.2.5	143.44485691588653		7.899999999999864	1_sub-pilot040_SVR_EEG_block3-4.protocol.csv	step11	2003	199.307	STIMULATE	48.6	48.6	48.6	48.6	48.8	11	1115.125
1109.272	0	554636	CN/Hi	10	2	0	2	0	4.0	0.0	4.0	0.0						1124.540917499995	1132.4516274999914	1132.4516274999914	8.0	['8', 'return']	[3.598931399988942, 10.304719799998566]	7.9	6.0	0.0	controle	high_pain	48.6			sub-040	250	40	46.9	48.6	COM11	COM15	COM3	2024-06-12_10h38.58.818	001-EEG_SVR_Officel	2022.2.5	143.44485691588653		5.998000000000047	1_sub-pilot040_SVR_EEG_block3-4.protocol.csv	step11	2003	199.307	STIMULATE	48.6	48.6	48.6	48.6	48.8	11	1115.125
1125.856	0	562928	wait	20	2	0	2	0	5.0	0.0	5.0	0.0						1155.7738487000024	1162.712310499992	1162.712310499992	3.5	['3', 'a', '5', 'return']	[3.3787647999997716, 4.154406700006803, 4.394356700009666, 5.107253100009984]	6.93	5.92	1.0	10hz	low_pain	46.9			sub-040	250	40	46.9	48.6	COM11	COM15	COM3	2024-06-12_10h38.58.818	001-EEG_SVR_Officel	2022.2.5	143.44485691588653		17.33400000000006	1_sub-pilot040_SVR_EEG_block3-4.protocol.csv	step13	2307	229.521	STIMULATE	46.9	46.9	46.9	46.9	46.9	13	1145.339
1132.784	0	566392	10hz	3	2	0	2	0	5.0	0.0	5.0	0.0						1155.7738487000024	1162.712310499992	1162.712310499992	3.5	['3', 'a', '5', 'return']	[3.3787647999997716, 4.154406700006803, 4.394356700009666, 5.107253100009984]	6.93	5.92	1.0	10hz	low_pain	46.9			sub-040	250	40	46.9	48.6	COM11	COM15	COM3	2024-06-12_10h38.58.818	001-EEG_SVR_Officel	2022.2.5	143.44485691588653		6.928000000000111	1_sub-pilot040_SVR_EEG_block3-4.protocol.csv	step13	2307	229.521	STIMULATE	46.9	46.9	46.9	46.9	46.9	13	1145.339
1139.456	0	569728	10/Lo	2	2	0	2	0	5.0	0.0	5.0	0.0						1155.7738487000024	1162.712310499992	1162.712310499992	3.5	['3', 'a', '5', 'return']	[3.3787647999997716, 4.154406700006803, 4.394356700009666, 5.107253100009984]	6.93	5.92	1.0	10hz	low_pain	46.9			sub-040	250	40	46.9	48.6	COM11	COM15	COM3	2024-06-12_10h38.58.818	001-EEG_SVR_Officel	2022.2.5	143.44485691588653		5.921999999999798	1_sub-pilot040_SVR_EEG_block3-4.protocol.csv	step13	2307	229.521	STIMULATE	46.9	46.9	46.9	46.9	46.9	13	1145.339
1150.922	0	575461	wait	20	2	0	2	0	6.0	0.0	6.0	0.0						1180.8393412000005	1185.8470074999932	1185.8470074999932	3.0	['3', 'return']	[3.421432899995125, 3.964580499989097]	5.0	5.11	2.0	10hz	low_pain	46.9			sub-040	250	40	46.9	48.6	COM11	COM15	COM3	2024-06-12_10h38.58.818	001-EEG_SVR_Officel	2022.2.5	143.44485691588653		12.216000000000122	1_sub-pilot040_SVR_EEG_block3-4.protocol.csv	step15	2532	251.819	STIMULATE	46.9	46.9	46.9	46.9	46.9	15	1167.637
1155.918	0	577959	10hz	3	2	0	2	0	6.0	0.0	6.0	0.0						1180.8393412000005	1185.8470074999932	1185.8470074999932	3.0	['3', 'return']	[3.421432899995125, 3.964580499989097]	5.0	5.11	2.0	10hz	low_pain	46.9			sub-040	250	40	46.9	48.6	COM11	COM15	COM3	2024-06-12_10h38.58.818	001-EEG_SVR_Officel	2022.2.5	143.44485691588653		4.995999999999867	1_sub-pilot040_SVR_EEG_block3-4.protocol.csv	step15	2532	251.819	STIMULATE	46.9	46.9	46.9	46.9	46.9	15	1167.637
1161.778	0	580889	10/Lo	2	2	0	2	0	6.0	0.0	6.0	0.0						1180.8393412000005	1185.8470074999932	1185.8470074999932	3.0	['3', 'return']	[3.421432899995125, 3.964580499989097]	5.0	5.11	2.0	10hz	low_pain	46.9			sub-040	250	40	46.9	48.6	COM11	COM15	COM3	2024-06-12_10h38.58.818	001-EEG_SVR_Officel	2022.2.5	143.44485691588653		5.110000000000127	1_sub-pilot040_SVR_EEG_block3-4.protocol.csv	step15	2532	251.819	STIMULATE	46.9	46.9	46.9	46.9	46.9	15	1167.637
1172.912	0	586456	wait	20	2	0	2	0	7.0	0.0	7.0	0.0						1202.8288565999974	1210.5165704999963	1210.5165704999963	8.0	['8', 'return']	[2.9099640999920666, 3.3436083999986295]	7.68	6.08	3.0	20hz	high_pain	48.6			sub-040	250	40	46.9	48.6	COM11	COM15	COM3	2024-06-12_10h38.58.818	001-EEG_SVR_Officel	2022.2.5	143.44485691588653		11.884000000000015	1_sub-pilot040_SVR_EEG_block3-4.protocol.csv	step17	2790	277.461	STIMULATE	48.6	48.6	48.6	48.6	48.6	17	1193.279
1180.588	0	590294	20hz	6	2	0	2	0	7.0	0.0	7.0	0.0						1202.8288565999974	1210.5165704999963	1210.5165704999963	8.0	['8', 'return']	[2.9099640999920666, 3.3436083999986295]	7.68	6.08	3.0	20hz	high_pain	48.6			sub-040	250	40	46.9	48.6	COM11	COM15	COM3	2024-06-12_10h38.58.818	001-EEG_SVR_Officel	2022.2.5	143.44485691588653		7.675999999999931	1_sub-pilot040_SVR_EEG_block3-4.protocol.csv	step17	2790	277.461	STIMULATE	48.6	48.6	48.6	48.6	48.6	17	1193.279
1187.418	0	593709	20/Hi	4	2	0	2	0	7.0	0.0	7.0	0.0						1202.8288565999974	1210.5165704999963	1210.5165704999963	8.0	['8', 'return']	[2.9099640999920666, 3.3436083999986295]	7.68	6.08	3.0	20hz	high_pain	48.6			sub-040	250	40	46.9	48.6	COM11	COM15	COM3	2024-06-12_10h38.58.818	001-EEG_SVR_Officel	2022.2.5	143.44485691588653		6.079999999999927	1_sub-pilot040_SVR_EEG_block3-4.protocol.csv	step17	2790	277.461	STIMULATE	48.6	48.6	48.6	48.6	48.6	17	1193.279
1196.962	0	598481	wait	20	2	0	2	0	8.0	0.0	8.0	0.0						1226.880043600002	1234.2417134999996	1234.2417134999996	3.5	['3', 'a', '5', 'return']	[2.9209703000087757, 3.3128446000046097, 3.545666499994695, 4.217066099998192]	7.35	6.41	0.0	10hz	low_pain	46.9			sub-040	250	40	46.9	48.6	COM11	COM15	COM3	2024-06-12_10h38.58.818	001-EEG_SVR_Officel	2022.2.5	143.44485691588653		10.294000000000096	1_sub-pilot040_SVR_EEG_block3-4.protocol.csv	step19	3032	301.489	STIMULATE	46.9	46.9	46.9	46.9	46.9	19	1217.307
1204.314	0	602157	10hz	3	2	0	2	0	8.0	0.0	8.0	0.0						1226.880043600002	1234.2417134999996	1234.2417134999996	3.5	['3', 'a', '5', 'return']	[2.9209703000087757, 3.3128446000046097, 3.545666499994695, 4.217066099998192]	7.35	6.41	0.0	10hz	low_pain	46.9			sub-040	250	40	46.9	48.6	COM11	COM15	COM3	2024-06-12_10h38.58.818	001-EEG_SVR_Officel	2022.2.5	143.44485691588653		7.352000000000089	1_sub-pilot040_SVR_EEG_block3-4.protocol.csv	step19	3032	301.489	STIMULATE	46.9	46.9	46.9	46.9	46.9	19	1217.307
1211.472	0	605736	10/Lo	2	2	0	2	0	8.0	0.0	8.0	0.0						1226.880043600002	1234.2417134999996	1234.2417134999996	3.5	['3', 'a', '5', 'return']	[2.9209703000087757, 3.3128446000046097, 3.545666499994695, 4.217066099998192]	7.35	6.41	0.0	10hz	low_pain	46.9			sub-040	250	40	46.9	48.6	COM11	COM15	COM3	2024-06-12_10h38.58.818	001-EEG_SVR_Officel	2022.2.5	143.44485691588653		6.407999999999902	1_sub-pilot040_SVR_EEG_block3-4.protocol.csv	step19	3032	301.489	STIMULATE	46.9	46.9	46.9	46.9	46.9	19	1217.307
1221.554	0	610777	wait	20	2	0	2	0	9.0	0.0	9.0	0.0						1251.4716712999943	1258.7448678999936	1258.7448678999936	7.5	['7', 'a', '5', 'return']	[2.851334200007841, 3.1697841999994125, 3.5143011000036495, 4.2589861000014935]	7.26	5.1	1.0	20hz	high_pain	48.6			sub-040	250	40	46.9	48.6	COM11	COM15	COM3	2024-06-12_10h38.58.818	001-EEG_SVR_Officel	2022.2.5	143.44485691588653		10.832000000000107	1_sub-pilot040_SVR_EEG_block3-4.protocol.csv	step21	3267	324.766	STIMULATE	48.6	48.6	48.6	48.6	48.7	21	1240.584
1228.816	0	614408	20hz	6	2	0	2	0	9.0	0.0	9.0	0.0						1251.4716712999943	1258.7448678999936	1258.7448678999936	7.5	['7', 'a', '5', 'return']	[2.851334200007841, 3.1697841999994125, 3.5143011000036495, 4.2589861000014935]	7.26	5.1	1.0	20hz	high_pain	48.6			sub-040	250	40	46.9	48.6	COM11	COM15	COM3	2024-06-12_10h38.58.818	001-EEG_SVR_Officel	2022.2.5	143.44485691588653		7.261999999999944	1_sub-pilot040_SVR_EEG_block3-4.protocol.csv	step21	3267	324.766	STIMULATE	48.6	48.6	48.6	48.6	48.7	21	1240.584
1234.668	0	617334	20/Hi	4	2	0	2	0	9.0	0.0	9.0	0.0						1251.4716712999943	1258.7448678999936	1258.7448678999936	7.5	['7', 'a', '5', 'return']	[2.851334200007841, 3.1697841999994125, 3.5143011000036495, 4.2589861000014935]	7.26	5.1	1.0	20hz	high_pain	48.6			sub-040	250	40	46.9	48.6	COM11	COM15	COM3	2024-06-12_10h38.58.818	001-EEG_SVR_Officel	2022.2.5	143.44485691588653		5.101999999999862	1_sub-pilot040_SVR_EEG_block3-4.protocol.csv	step21	3267	324.766	STIMULATE	48.6	48.6	48.6	48.6	48.7	21	1240.584
1246.098	0	623049	wait	20	2	0	2	0	10.0	0.0	10.0	0.0						1276.017336399993	1282.4833832000004	1282.4833832000004	3.0	['3', 'return']	[2.6475766000075964, 3.6562257000041427]	6.46	5.4	2.0	20hz	low_pain	46.9			sub-040	250	40	46.9	48.6	COM11	COM15	COM3	2024-06-12_10h38.58.818	001-EEG_SVR_Officel	2022.2.5	143.44485691588653		12.180000000000064	1_sub-pilot040_SVR_EEG_block3-4.protocol.csv	step23	3509	348.766	STIMULATE	46.9	46.9	46.9	46.9	47.1	23	1264.584
1252.554	0	626277	20hz	6	2	0	2	0	10.0	0.0	10.0	0.0						1276.017336399993	1282.4833832000004	1282.4833832000004	3.0	['3', 'return']	[2.6475766000075964, 3.6562257000041427]	6.46	5.4	2.0	20hz	low_pain	46.9			sub-040	250	40	46.9	48.6	COM11	COM15	COM3	2024-06-12_10h38.58.818	001-EEG_SVR_Officel	2022.2.5	143.44485691588653		6.456000000000131	1_sub-pilot040_SVR_EEG_block3-4.protocol.csv	step23	3509	348.766	STIMULATE	46.9	46.9	46.9	46.9	47.1	23	1264.584
1258.704	0	629352	20/Lo	5	2	0	2	0	10.0	0.0	10.0	0.0						1276.017336399993	1282.4833832000004	1282.4833832000004	3.0	['3', 'return']	[2.6475766000075964, 3.6562257000041427]	6.46	5.4	2.0	20hz	low_pain	46.9			sub-040	250	40	46.9	48.6	COM11	COM15	COM3	2024-06-12_10h38.58.818	001-EEG_SVR_Officel	2022.2.5	143.44485691588653		5.399999999999864	1_sub-pilot040_SVR_EEG_block3-4.protocol.csv	step23	3509	348.766	STIMULATE	46.9	46.9	46.9	46.9	47.1	23	1264.584
1269.24	0	634620	wait	20	2	0	2	0	11.0	0.0	11.0	0.0						1299.1590075999993	1305.5694867999991	1305.5694867999991	4.0	['4', 'return']	[2.3217981999914628, 2.969895499991253]	6.4	5.61	3.0	10hz	low_pain	46.9			sub-040	250	40	46.9	48.6	COM11	COM15	COM3	2024-06-12_10h38.58.818	001-EEG_SVR_Officel	2022.2.5	143.44485691588653		11.286000000000058	1_sub-pilot040_SVR_EEG_block3-4.protocol.csv	step25	3744	372.021	STIMULATE	46.9	46.9	46.9	46.9	46.9	25	1287.839
1275.64	0	637820	10hz	3	2	0	2	0	11.0	0.0	11.0	0.0						1299.1590075999993	1305.5694867999991	1305.5694867999991	4.0	['4', 'return']	[2.3217981999914628, 2.969895499991253]	6.4	5.61	3.0	10hz	low_pain	46.9			sub-040	250	40	46.9	48.6	COM11	COM15	COM3	2024-06-12_10h38.58.818	001-EEG_SVR_Officel	2022.2.5	143.44485691588653		6.400000000000091	1_sub-pilot040_SVR_EEG_block3-4.protocol.csv	step25	3744	372.021	STIMULATE	46.9	46.9	46.9	46.9	46.9	25	1287.839
1282.0	0	641000	10/Lo	2	2	0	2	0	11.0	0.0	11.0	0.0						1299.1590075999993	1305.5694867999991	1305.5694867999991	4.0	['4', 'return']	[2.3217981999914628, 2.969895499991253]	6.4	5.61	3.0	10hz	low_pain	46.9			sub-040	250	40	46.9	48.6	COM11	COM15	COM3	2024-06-12_10h38.58.818	001-EEG_SVR_Officel	2022.2.5	143.44485691588653		5.6099999999999	1_sub-pilot040_SVR_EEG_block3-4.protocol.csv	step25	3744	372.021	STIMULATE	46.9	46.9	46.9	46.9	46.9	25	1287.839
1291.632	0	645816	wait	20	2	0	2	0	12.0	0.0	12.0	0.0						1321.5505475999962	1328.6069628999976	1328.6069628999976	8.0	['8', 'return']	[3.2608290999924066, 3.7162536999967415]	7.05	6.3	0.0	20hz	high_pain	48.6			sub-040	250	40	46.9	48.6	COM11	COM15	COM3	2024-06-12_10h38.58.818	001-EEG_SVR_Officel	2022.2.5	143.44485691588653		10.382000000000062	1_sub-pilot040_SVR_EEG_block3-4.protocol.csv	step27	3983	395.779	STIMULATE	48.6	48.6	48.6	48.6	48.6	27	1311.597
1298.678	0	649339	20hz	6	2	0	2	0	12.0	0.0	12.0	0.0						1321.5505475999962	1328.6069628999976	1328.6069628999976	8.0	['8', 'return']	[3.2608290999924066, 3.7162536999967415]	7.05	6.3	0.0	20hz	high_pain	48.6			sub-040	250	40	46.9	48.6	COM11	COM15	COM3	2024-06-12_10h38.58.818	001-EEG_SVR_Officel	2022.2.5	143.44485691588653		7.046000000000049	1_sub-pilot040_SVR_EEG_block3-4.protocol.csv	step27	3983	395.779	STIMULATE	48.6	48.6	48.6	48.6	48.6	27	1311.597
1305.73	0	652865	20/Hi	4	2	0	2	0	12.0	0.0	12.0	0.0						1321.5505475999962	1328.6069628999976	1328.6069628999976	8.0	['8', 'return']	[3.2608290999924066, 3.7162536999967415]	7.05	6.3	0.0	20hz	high_pain	48.6			sub-040	250	40	46.9	48.6	COM11	COM15	COM3	2024-06-12_10h38.58.818	001-EEG_SVR_Officel	2022.2.5	143.44485691588653		6.301999999999907	1_sub-pilot040_SVR_EEG_block3-4.protocol.csv	step27	3983	395.779	STIMULATE	48.6	48.6	48.6	48.6	48.6	27	1311.597
1315.42	0	657710	wait	20	2	0	2	0	13.0	0.0	13.0	0.0						1345.337596600002	1352.8741220999946	1352.8741220999946	8.0	['8', 'return']	[2.7693508000083966, 3.241707299996051]	7.53	6.0	1.0	40hz	high_pain	48.6			sub-040	250	40	46.9	48.6	COM11	COM15	COM3	2024-06-12_10h38.58.818	001-EEG_SVR_Officel	2022.2.5	143.44485691588653		10.440000000000055	1_sub-pilot040_SVR_EEG_block3-4.protocol.csv	step29	4225	419.805	STIMULATE	48.6	48.6	48.6	48.6	48.7	29	1335.623
1322.944	0	661472	40hz	9	2	0	2	0	13.0	0.0	13.0	0.0						1345.337596600002	1352.8741220999946	1352.8741220999946	8.0	['8', 'return']	[2.7693508000083966, 3.241707299996051]	7.53	6.0	1.0	40hz	high_pain	48.6			sub-040	250	40	46.9	48.6	COM11	COM15	COM3	2024-06-12_10h38.58.818	001-EEG_SVR_Officel	2022.2.5	143.44485691588653		7.523999999999887	1_sub-pilot040_SVR_EEG_block3-4.protocol.csv	step29	4225	419.805	STIMULATE	48.6	48.6	48.6	48.6	48.7	29	1335.623
1329.692	0	664846	40/Hi	7	2	0	2	0	13.0	0.0	13.0	0.0						1345.337596600002	1352.8741220999946	1352.8741220999946	8.0	['8', 'return']	[2.7693508000083966, 3.241707299996051]	7.53	6.0	1.0	40hz	high_pain	48.6			sub-040	250	40	46.9	48.6	COM11	COM15	COM3	2024-06-12_10h38.58.818	001-EEG_SVR_Officel	2022.2.5	143.44485691588653		5.998000000000047	1_sub-pilot040_SVR_EEG_block3-4.protocol.csv	step29	4225	419.805	STIMULATE	48.6	48.6	48.6	48.6	48.7	29	1335.623
1339.206	0	669603	wait	20	2	0	2	0	14.0	0.0	14.0	0.0						1369.125746299993	1375.3835123000026	1375.3835123000026	4.5	['4', 'a', '5', 'return']	[3.307500399998389, 3.595081099992967, 4.835832800003118, 5.72385999999824]	6.25	6.18	2.0	controle	low_pain	46.9			sub-040	250	40	46.9	48.6	COM11	COM15	COM3	2024-06-12_10h38.58.818	001-EEG_SVR_Officel	2022.2.5	143.44485691588653		10.263999999999896	1_sub-pilot040_SVR_EEG_block3-4.protocol.csv	step31	4454	442.505	STIMULATE	46.9	46.9	46.9	46.9	46.9	31	1358.323
1345.454	0	672727	CNhz	12	2	0	2	0	14.0	0.0	14.0	0.0						1369.125746299993	1375.3835123000026	1375.3835123000026	4.5	['4', 'a', '5', 'return']	[3.307500399998389, 3.595081099992967, 4.835832800003118, 5.72385999999824]	6.25	6.18	2.0	controle	low_pain	46.9			sub-040	250	40	46.9	48.6	COM11	COM15	COM3	2024-06-12_10h38.58.818	001-EEG_SVR_Officel	2022.2.5	143.44485691588653		6.248000000000047	1_sub-pilot040_SVR_EEG_block3-4.protocol.csv	step31	4454	442.505	STIMULATE	46.9	46.9	46.9	46.9	46.9	31	1358.323
1352.382	0	676191	CN/Lo	11	2	0	2	0	14.0	0.0	14.0	0.0						1369.125746299993	1375.3835123000026	1375.3835123000026	4.5	['4', 'a', '5', 'return']	[3.307500399998389, 3.595081099992967, 4.835832800003118, 5.72385999999824]	6.25	6.18	2.0	controle	low_pain	46.9			sub-040	250	40	46.9	48.6	COM11	COM15	COM3	2024-06-12_10h38.58.818	001-EEG_SVR_Officel	2022.2.5	143.44485691588653		6.178000000000111	1_sub-pilot040_SVR_EEG_block3-4.protocol.csv	step31	4454	442.505	STIMULATE	46.9	46.9	46.9	46.9	46.9	31	1358.323
1364.21	0	682105	wait	20	2	0	2	0	15.0	0.0	15.0	0.0						1394.1287690000026	1400.546323100003	1400.546323100003	8.0	['8', 'return']	[3.304521099998965, 3.8735901000036392]	6.41	6.35	3.0	10hz	high_pain	48.6			sub-040	250	40	46.9	48.6	COM11	COM15	COM3	2024-06-12_10h38.58.818	001-EEG_SVR_Officel	2022.2.5	143.44485691588653		12.577999999999975	1_sub-pilot040_SVR_EEG_block3-4.protocol.csv	step33	4709	467.801	STIMULATE	48.6	48.6	48.6	48.6	48.6	33	1383.6190000000001
1370.618	0	685309	10hz	3	2	0	2	0	15.0	0.0	15.0	0.0						1394.1287690000026	1400.546323100003	1400.546323100003	8.0	['8', 'return']	[3.304521099998965, 3.8735901000036392]	6.41	6.35	3.0	10hz	high_pain	48.6			sub-040	250	40	46.9	48.6	COM11	COM15	COM3	2024-06-12_10h38.58.818	001-EEG_SVR_Officel	2022.2.5	143.44485691588653		6.407999999999902	1_sub-pilot040_SVR_EEG_block3-4.protocol.csv	step33	4709	467.801	STIMULATE	48.6	48.6	48.6	48.6	48.6	33	1383.6190000000001
1377.718	0	688859	10/Hi	1	2	0	2	0	15.0	0.0	15.0	0.0						1394.1287690000026	1400.546323100003	1400.546323100003	8.0	['8', 'return']	[3.304521099998965, 3.8735901000036392]	6.41	6.35	3.0	10hz	high_pain	48.6			sub-040	250	40	46.9	48.6	COM11	COM15	COM3	2024-06-12_10h38.58.818	001-EEG_SVR_Officel	2022.2.5	143.44485691588653		6.350000000000136	1_sub-pilot040_SVR_EEG_block3-4.protocol.csv	step33	4709	467.801	STIMULATE	48.6	48.6	48.6	48.6	48.6	33	1383.6190000000001
1447.678	0	723839	wait	20	3	0	3	0	0.0	0.0	0.0	0.0				p	0.4150571999925887	1477.597704300002	1485.604329599999	1485.604329599999	6.0	['6', 'return']	[3.0696290000050794, 3.5583645000006072]	8.0	5.7	0.0	20hz	low_pain	46.9			sub-040	250	40	46.9	48.6	COM11	COM15	COM3	2024-06-12_10h38.58.818	001-EEG_SVR_Officel	2022.2.5	143.44485691588653		70.71000000000004	1_sub-pilot040_SVR_EEG_block3-4.protocol.csv	step35	5555	552.167	STIMULATE	47.1	46.9	46.9	46.8	46.9	35	1468.004
1455.674	0	727837	20hz	6	3	0	3	0	0.0	0.0	0.0	0.0				p	0.4150571999925887	1477.597704300002	1485.604329599999	1485.604329599999	6.0	['6', 'return']	[3.0696290000050794, 3.5583645000006072]	8.0	5.7	0.0	20hz	low_pain	46.9			sub-040	250	40	46.9	48.6	COM11	COM15	COM3	2024-06-12_10h38.58.818	001-EEG_SVR_Officel	2022.2.5	143.44485691588653		7.995999999999867	1_sub-pilot040_SVR_EEG_block3-4.protocol.csv	step35	5555	552.167	STIMULATE	47.1	46.9	46.9	46.8	46.9	35	1468.004
1462.124	0	731062	20/Lo	5	3	0	3	0	0.0	0.0	0.0	0.0				p	0.4150571999925887	1477.597704300002	1485.604329599999	1485.604329599999	6.0	['6', 'return']	[3.0696290000050794, 3.5583645000006072]	8.0	5.7	0.0	20hz	low_pain	46.9			sub-040	250	40	46.9	48.6	COM11	COM15	COM3	2024-06-12_10h38.58.818	001-EEG_SVR_Officel	2022.2.5	143.44485691588653		5.7000000000000455	1_sub-pilot040_SVR_EEG_block3-4.protocol.csv	step35	5555	552.167	STIMULATE	47.1	46.9	46.9	46.8	46.9	35	1468.004
1472.258	0	736129	wait	20	3	0	3	0	1.0	0.0	1.0	0.0						1502.1759136000037	1509.6843021999955	1509.6843021999955	7.0	['7', 'return']	[3.919459299999289, 4.607252400004654]	7.5	5.21	1.0	10hz	high_pain	48.6			sub-040	250	40	46.9	48.6	COM11	COM15	COM3	2024-06-12_10h38.58.818	001-EEG_SVR_Officel	2022.2.5	143.44485691588653		10.884000000000015	1_sub-pilot040_SVR_EEG_block3-4.protocol.csv	step37	5794	575.838	STIMULATE	48.8	48.6	48.6	48.6	48.6	37	1491.675
1479.754	0	739877	10hz	3	3	0	3	0	1.0	0.0	1.0	0.0						1502.1759136000037	1509.6843021999955	1509.6843021999955	7.0	['7', 'return']	[3.919459299999289, 4.607252400004654]	7.5	5.21	1.0	10hz	high_pain	48.6			sub-040	250	40	46.9	48.6	COM11	COM15	COM3	2024-06-12_10h38.58.818	001-EEG_SVR_Officel	2022.2.5	143.44485691588653		7.495999999999867	1_sub-pilot040_SVR_EEG_block3-4.protocol.csv	step37	5794	575.838	STIMULATE	48.8	48.6	48.6	48.6	48.6	37	1491.675
1485.716	0	742858	10/Hi	1	3	0	3	0	1.0	0.0	1.0	0.0						1502.1759136000037	1509.6843021999955	1509.6843021999955	7.0	['7', 'return']	[3.919459299999289, 4.607252400004654]	7.5	5.21	1.0	10hz	high_pain	48.6			sub-040	250	40	46.9	48.6	COM11	COM15	COM3	2024-06-12_10h38.58.818	001-EEG_SVR_Officel	2022.2.5	143.44485691588653		5.211999999999989	1_sub-pilot040_SVR_EEG_block3-4.protocol.csv	step37	5794	575.838	STIMULATE	48.8	48.6	48.6	48.6	48.6	37	1491.675
1497.392	0	748696	wait	20	3	0	3	0	2.0	0.0	2.0	0.0						1527.3112414999923	1534.9024166000015	1534.9024166000015	5.0	['5', 'return']	[2.092662900002324, 2.6854888000088977]	7.58	5.21	2.0	40hz	low_pain	46.9			sub-040	250	40	46.9	48.6	COM11	COM15	COM3	2024-06-12_10h38.58.818	001-EEG_SVR_Officel	2022.2.5	143.44485691588653		12.426000000000158	1_sub-pilot040_SVR_EEG_block3-4.protocol.csv	step39	6048	601.089	STIMULATE	47.1	46.9	46.9	46.9	46.9	39	1516.926
1504.972	0	752486	40hz	9	3	0	3	0	2.0	0.0	2.0	0.0						1527.3112414999923	1534.9024166000015	1534.9024166000015	5.0	['5', 'return']	[2.092662900002324, 2.6854888000088977]	7.58	5.21	2.0	40hz	low_pain	46.9			sub-040	250	40	46.9	48.6	COM11	COM15	COM3	2024-06-12_10h38.58.818	001-EEG_SVR_Officel	2022.2.5	143.44485691588653		7.579999999999927	1_sub-pilot040_SVR_EEG_block3-4.protocol.csv	step39	6048	601.089	STIMULATE	47.1	46.9	46.9	46.9	46.9	39	1516.926
1510.938	0	755469	40/Lo	8	3	0	3	0	2.0	0.0	2.0	0.0						1527.3112414999923	1534.9024166000015	1534.9024166000015	5.0	['5', 'return']	[2.092662900002324, 2.6854888000088977]	7.58	5.21	2.0	40hz	low_pain	46.9			sub-040	250	40	46.9	48.6	COM11	COM15	COM3	2024-06-12_10h38.58.818	001-EEG_SVR_Officel	2022.2.5	143.44485691588653		5.216000000000122	1_sub-pilot040_SVR_EEG_block3-4.protocol.csv	step39	6048	601.089	STIMULATE	47.1	46.9	46.9	46.9	46.9	39	1516.926
1520.686	0	760343	wait	20	3	0	3	0	3.0	0.0	3.0	0.0						1550.6057904000045	1555.6972400999948	1555.6972400999948	7.0	['7', 'return']	[2.2742039000004297, 3.186127699998906]	5.08	6.49	3.0	40hz	high_pain	48.6			sub-040	250	40	46.9	48.6	COM11	COM15	COM3	2024-06-12_10h38.58.818	001-EEG_SVR_Officel	2022.2.5	143.44485691588653		10.49799999999982	1_sub-pilot040_SVR_EEG_block3-4.protocol.csv	step41	6270	623.065	STIMULATE	48.8	48.6	48.6	48.6	48.6	41	1538.902
1525.766	0	762883	40hz	9	3	0	3	0	3.0	0.0	3.0	0.0						1550.6057904000045	1555.6972400999948	1555.6972400999948	7.0	['7', 'return']	[2.2742039000004297, 3.186127699998906]	5.08	6.49	3.0	40hz	high_pain	48.6			sub-040	250	40	46.9	48.6	COM11	COM15	COM3	2024-06-12_10h38.58.818	001-EEG_SVR_Officel	2022.2.5	143.44485691588653		5.080000000000155	1_sub-pilot040_SVR_EEG_block3-4.protocol.csv	step41	6270	623.065	STIMULATE	48.8	48.6	48.6	48.6	48.6	41	1538.902
1533.008	0	766504	40/Hi	7	3	0	3	0	3.0	0.0	3.0	0.0						1550.6057904000045	1555.6972400999948	1555.6972400999948	7.0	['7', 'return']	[2.2742039000004297, 3.186127699998906]	5.08	6.49	3.0	40hz	high_pain	48.6			sub-040	250	40	46.9	48.6	COM11	COM15	COM3	2024-06-12_10h38.58.818	001-EEG_SVR_Officel	2022.2.5	143.44485691588653		6.491999999999962	1_sub-pilot040_SVR_EEG_block3-4.protocol.csv	step41	6270	623.065	STIMULATE	48.8	48.6	48.6	48.6	48.6	41	1538.902
1541.982	0	770991	wait	20	3	0	3	0	4.0	0.0	4.0	0.0						1571.9006138999976	1577.354587599999	1577.354587599999	7.0	['7', 'return']	[3.2180588000046555, 3.762098100007279]	5.44	5.99	0.0	40hz	high_pain	48.6			sub-040	250	40	46.9	48.6	COM11	COM15	COM3	2024-06-12_10h38.58.818	001-EEG_SVR_Officel	2022.2.5	143.44485691588653		9.723999999999933	1_sub-pilot040_SVR_EEG_block3-4.protocol.csv	step43	6483	644.187	STIMULATE	48.8	48.6	48.6	48.6	48.6	43	1560.024
1547.422	0	773711	40hz	9	3	0	3	0	4.0	0.0	4.0	0.0						1571.9006138999976	1577.354587599999	1577.354587599999	7.0	['7', 'return']	[3.2180588000046555, 3.762098100007279]	5.44	5.99	0.0	40hz	high_pain	48.6			sub-040	250	40	46.9	48.6	COM11	COM15	COM3	2024-06-12_10h38.58.818	001-EEG_SVR_Officel	2022.2.5	143.44485691588653		5.440000000000055	1_sub-pilot040_SVR_EEG_block3-4.protocol.csv	step43	6483	644.187	STIMULATE	48.8	48.6	48.6	48.6	48.6	43	1560.024
1554.162	0	777081	40/Hi	7	3	0	3	0	4.0	0.0	4.0	0.0						1571.9006138999976	1577.354587599999	1577.354587599999	7.0	['7', 'return']	[3.2180588000046555, 3.762098100007279]	5.44	5.99	0.0	40hz	high_pain	48.6			sub-040	250	40	46.9	48.6	COM11	COM15	COM3	2024-06-12_10h38.58.818	001-EEG_SVR_Officel	2022.2.5	143.44485691588653		5.990000000000009	1_sub-pilot040_SVR_EEG_block3-4.protocol.csv	step43	6483	644.187	STIMULATE	48.8	48.6	48.6	48.6	48.6	43	1560.024
1564.204	0	782102	wait	20	3	0	3	0	5.0	0.0	5.0	0.0						1594.1247775999946	1599.2713976999948	1599.2713976999948	3.0	['3', 'return']	[2.4206792000040878, 3.1166006999992533]	5.14	5.41	1.0	20hz	low_pain	46.9			sub-040	250	40	46.9	48.6	COM11	COM15	COM3	2024-06-12_10h38.58.818	001-EEG_SVR_Officel	2022.2.5	143.44485691588653		10.791999999999916	1_sub-pilot040_SVR_EEG_block3-4.protocol.csv	step45	6700	665.648	STIMULATE	47.1	47.0	46.9	46.9	46.9	45	1581.4850000000001
1569.34	0	784670	20hz	6	3	0	3	0	5.0	0.0	5.0	0.0						1594.1247775999946	1599.2713976999948	1599.2713976999948	3.0	['3', 'return']	[2.4206792000040878, 3.1166006999992533]	5.14	5.41	1.0	20hz	low_pain	46.9			sub-040	250	40	46.9	48.6	COM11	COM15	COM3	2024-06-12_10h38.58.818	001-EEG_SVR_Officel	2022.2.5	143.44485691588653		5.135999999999967	1_sub-pilot040_SVR_EEG_block3-4.protocol.csv	step45	6700	665.648	STIMULATE	47.1	47.0	46.9	46.9	46.9	45	1581.4850000000001
1575.498	0	787749	20/Lo	5	3	0	3	0	5.0	0.0	5.0	0.0						1594.1247775999946	1599.2713976999948	1599.2713976999948	3.0	['3', 'return']	[2.4206792000040878, 3.1166006999992533]	5.14	5.41	1.0	20hz	low_pain	46.9			sub-040	250	40	46.9	48.6	COM11	COM15	COM3	2024-06-12_10h38.58.818	001-EEG_SVR_Officel	2022.2.5	143.44485691588653		5.408000000000129	1_sub-pilot040_SVR_EEG_block3-4.protocol.csv	step45	6700	665.648	STIMULATE	47.1	47.0	46.9	46.9	46.9	45	1581.4850000000001
1585.486	0	792743	wait	20	3	0	3	0	6.0	0.0	6.0	0.0						1615.4052173999953	1622.892375800002	1622.892375800002	7.0	['7', 'return']	[2.798020699992776, 3.34253439999884]	7.48	5.67	2.0	10hz	high_pain	48.6			sub-040	250	40	46.9	48.6	COM11	COM15	COM3	2024-06-12_10h38.58.818	001-EEG_SVR_Officel	2022.2.5	143.44485691588653		10.738000000000056	1_sub-pilot040_SVR_EEG_block3-4.protocol.csv	step47	6940	689.436	STIMULATE	48.9	48.6	48.6	48.6	48.6	47	1605.2730000000001
1592.962	0	796481	10hz	3	3	0	3	0	6.0	0.0	6.0	0.0						1615.4052173999953	1622.892375800002	1622.892375800002	7.0	['7', 'return']	[2.798020699992776, 3.34253439999884]	7.48	5.67	2.0	10hz	high_pain	48.6			sub-040	250	40	46.9	48.6	COM11	COM15	COM3	2024-06-12_10h38.58.818	001-EEG_SVR_Officel	2022.2.5	143.44485691588653		7.475999999999885	1_sub-pilot040_SVR_EEG_block3-4.protocol.csv	step47	6940	689.436	STIMULATE	48.9	48.6	48.6	48.6	48.6	47	1605.2730000000001
1599.382	0	799691	10/Hi	1	3	0	3	0	6.0	0.0	6.0	0.0						1615.4052173999953	1622.892375800002	1622.892375800002	7.0	['7', 'return']	[2.798020699992776, 3.34253439999884]	7.48	5.67	2.0	10hz	high_pain	48.6			sub-040	250	40	46.9	48.6	COM11	COM15	COM3	2024-06-12_10h38.58.818	001-EEG_SVR_Officel	2022.2.5	143.44485691588653		5.670000000000073	1_sub-pilot040_SVR_EEG_block3-4.protocol.csv	step47	6940	689.436	STIMULATE	48.9	48.6	48.6	48.6	48.6	47	1605.2730000000001
1609.328	0	804664	wait	20	3	0	3	0	7.0	0.0	7.0	0.0						1639.2476805000042	1645.9782132999972	1645.9782132999972	3.0	['3', 'return']	[2.5693259999970905, 3.2646839000080945]	6.72	5.83	3.0	controle	low_pain	46.9			sub-040	250	40	46.9	48.6	COM11	COM15	COM3	2024-06-12_10h38.58.818	001-EEG_SVR_Officel	2022.2.5	143.44485691588653		10.695999999999913	1_sub-pilot040_SVR_EEG_block3-4.protocol.csv	step49	7174	712.68	STIMULATE	47.0	46.9	46.9	46.9	46.9	49	1628.5169999999998
1616.048	0	808024	CNhz	12	3	0	3	0	7.0	0.0	7.0	0.0						1639.2476805000042	1645.9782132999972	1645.9782132999972	3.0	['3', 'return']	[2.5693259999970905, 3.2646839000080945]	6.72	5.83	3.0	controle	low_pain	46.9			sub-040	250	40	46.9	48.6	COM11	COM15	COM3	2024-06-12_10h38.58.818	001-EEG_SVR_Officel	2022.2.5	143.44485691588653		6.720000000000027	1_sub-pilot040_SVR_EEG_block3-4.protocol.csv	step49	7174	712.68	STIMULATE	47.0	46.9	46.9	46.9	46.9	49	1628.5169999999998
1622.628	0	811314	CN/Lo	11	3	0	3	0	7.0	0.0	7.0	0.0						1639.2476805000042	1645.9782132999972	1645.9782132999972	3.0	['3', 'return']	[2.5693259999970905, 3.2646839000080945]	6.72	5.83	3.0	controle	low_pain	46.9			sub-040	250	40	46.9	48.6	COM11	COM15	COM3	2024-06-12_10h38.58.818	001-EEG_SVR_Officel	2022.2.5	143.44485691588653		5.829999999999927	1_sub-pilot040_SVR_EEG_block3-4.protocol.csv	step49	7174	712.68	STIMULATE	47.0	46.9	46.9	46.9	46.9	49	1628.5169999999998
1632.338	0	816169	wait	20	3	0	3	0	8.0	0.0	8.0	0.0						1662.2586774999943	1669.7172747000004	1669.7172747000004	3.0	['3', 'return']	[2.373213900005794, 3.0615077999973437]	7.45	5.47	0.0	40hz	low_pain	46.9			sub-040	250	40	46.9	48.6	COM11	COM15	COM3	2024-06-12_10h38.58.818	001-EEG_SVR_Officel	2022.2.5	143.44485691588653		10.460000000000036	1_sub-pilot040_SVR_EEG_block3-4.protocol.csv	step51	7410	736.146	STIMULATE	47.0	46.9	46.9	46.9	46.9	51	1651.983
1639.786	0	819893	40hz	9	3	0	3	0	8.0	0.0	8.0	0.0						1662.2586774999943	1669.7172747000004	1669.7172747000004	3.0	['3', 'return']	[2.373213900005794, 3.0615077999973437]	7.45	5.47	0.0	40hz	low_pain	46.9			sub-040	250	40	46.9	48.6	COM11	COM15	COM3	2024-06-12_10h38.58.818	001-EEG_SVR_Officel	2022.2.5	143.44485691588653		7.448000000000093	1_sub-pilot040_SVR_EEG_block3-4.protocol.csv	step51	7410	736.146	STIMULATE	47.0	46.9	46.9	46.9	46.9	51	1651.983
1646.006	0	823003	40/Lo	8	3	0	3	0	8.0	0.0	8.0	0.0						1662.2586774999943	1669.7172747000004	1669.7172747000004	3.0	['3', 'return']	[2.373213900005794, 3.0615077999973437]	7.45	5.47	0.0	40hz	low_pain	46.9			sub-040	250	40	46.9	48.6	COM11	COM15	COM3	2024-06-12_10h38.58.818	001-EEG_SVR_Officel	2022.2.5	143.44485691588653		5.470000000000027	1_sub-pilot040_SVR_EEG_block3-4.protocol.csv	step51	7410	736.146	STIMULATE	47.0	46.9	46.9	46.9	46.9	51	1651.983
1655.868	0	827934	wait	20	3	0	3	0	9.0	0.0	9.0	0.0						1685.7881217999966	1693.0255165999988	1693.0255165999988	7.0	['7', 'return']	[2.648784200006048, 3.128719300002558]	7.23	5.62	1.0	controle	high_pain	48.6			sub-040	250	40	46.9	48.6	COM11	COM15	COM3	2024-06-12_10h38.58.818	001-EEG_SVR_Officel	2022.2.5	143.44485691588653		10.611999999999853	1_sub-pilot040_SVR_EEG_block3-4.protocol.csv	step53	7646	759.549	STIMULATE	48.8	48.6	48.6	48.6	48.6	53	1675.386
1663.094	0	831547	CNhz	12	3	0	3	0	9.0	0.0	9.0	0.0						1685.7881217999966	1693.0255165999988	1693.0255165999988	7.0	['7', 'return']	[2.648784200006048, 3.128719300002558]	7.23	5.62	1.0	controle	high_pain	48.6			sub-040	250	40	46.9	48.6	COM11	COM15	COM3	2024-06-12_10h38.58.818	001-EEG_SVR_Officel	2022.2.5	143.44485691588653		7.226000000000113	1_sub-pilot040_SVR_EEG_block3-4.protocol.csv	step53	7646	759.549	STIMULATE	48.8	48.6	48.6	48.6	48.6	53	1675.386
1669.468	0	834734	CN/Hi	10	3	0	3	0	9.0	0.0	9.0	0.0						1685.7881217999966	1693.0255165999988	1693.0255165999988	7.0	['7', 'return']	[2.648784200006048, 3.128719300002558]	7.23	5.62	1.0	controle	high_pain	48.6			sub-040	250	40	46.9	48.6	COM11	COM15	COM3	2024-06-12_10h38.58.818	001-EEG_SVR_Officel	2022.2.5	143.44485691588653		5.624000000000024	1_sub-pilot040_SVR_EEG_block3-4.protocol.csv	step53	7646	759.549	STIMULATE	48.8	48.6	48.6	48.6	48.6	53	1675.386
1679.254	0	839627	wait	20	3	0	3	0	10.0	0.0	10.0	0.0						1709.173662400004	1715.0837103999947	1715.0837103999947	6.0	['6', 'return']	[2.2872004999953788, 2.799747099998058]	5.9	5.47	2.0	40hz	high_pain	48.6			sub-040	250	40	46.9	48.6	COM11	COM15	COM3	2024-06-12_10h38.58.818	001-EEG_SVR_Officel	2022.2.5	143.44485691588653		10.53599999999983	1_sub-pilot040_SVR_EEG_block3-4.protocol.csv	step55	7862	781.467	STIMULATE	48.8	48.6	48.6	48.6	48.6	55	1697.304
1685.154	0	842577	40hz	9	3	0	3	0	10.0	0.0	10.0	0.0						1709.173662400004	1715.0837103999947	1715.0837103999947	6.0	['6', 'return']	[2.2872004999953788, 2.799747099998058]	5.9	5.47	2.0	40hz	high_pain	48.6			sub-040	250	40	46.9	48.6	COM11	COM15	COM3	2024-06-12_10h38.58.818	001-EEG_SVR_Officel	2022.2.5	143.44485691588653		5.900000000000091	1_sub-pilot040_SVR_EEG_block3-4.protocol.csv	step55	7862	781.467	STIMULATE	48.8	48.6	48.6	48.6	48.6	55	1697.304
1691.372	0	845686	40/Hi	7	3	0	3	0	10.0	0.0	10.0	0.0						1709.173662400004	1715.0837103999947	1715.0837103999947	6.0	['6', 'return']	[2.2872004999953788, 2.799747099998058]	5.9	5.47	2.0	40hz	high_pain	48.6			sub-040	250	40	46.9	48.6	COM11	COM15	COM3	2024-06-12_10h38.58.818	001-EEG_SVR_Officel	2022.2.5	143.44485691588653		5.468000000000075	1_sub-pilot040_SVR_EEG_block3-4.protocol.csv	step55	7862	781.467	STIMULATE	48.8	48.6	48.6	48.6	48.6	55	1697.304
1700.978	0	850489	wait	20	3	0	3	0	11.0	0.0	11.0	0.0						1730.8980732999917	1736.9891962999973	1736.9891962999973	1.5	['1', 'a', '5', 'return']	[2.685554800002137, 3.477721899995231, 3.7572272999968845, 5.134945800004061]	6.08	6.49	3.0	40hz	low_pain	46.9			sub-040	250	40	46.9	48.6	COM11	COM15	COM3	2024-06-12_10h38.58.818	001-EEG_SVR_Officel	2022.2.5	143.44485691588653		10.355999999999995	1_sub-pilot040_SVR_EEG_block3-4.protocol.csv	step57	8085	804.469	STIMULATE	47.0	46.9	46.9	46.9	46.9	57	1720.306
1707.058	0	853529	40hz	9	3	0	3	0	11.0	0.0	11.0	0.0						1730.8980732999917	1736.9891962999973	1736.9891962999973	1.5	['1', 'a', '5', 'return']	[2.685554800002137, 3.477721899995231, 3.7572272999968845, 5.134945800004061]	6.08	6.49	3.0	40hz	low_pain	46.9			sub-040	250	40	46.9	48.6	COM11	COM15	COM3	2024-06-12_10h38.58.818	001-EEG_SVR_Officel	2022.2.5	143.44485691588653		6.079999999999927	1_sub-pilot040_SVR_EEG_block3-4.protocol.csv	step57	8085	804.469	STIMULATE	47.0	46.9	46.9	46.9	46.9	57	1720.306
1714.298	0	857149	40/Lo	8	3	0	3	0	11.0	0.0	11.0	0.0						1730.8980732999917	1736.9891962999973	1736.9891962999973	1.5	['1', 'a', '5', 'return']	[2.685554800002137, 3.477721899995231, 3.7572272999968845, 5.134945800004061]	6.08	6.49	3.0	40hz	low_pain	46.9			sub-040	250	40	46.9	48.6	COM11	COM15	COM3	2024-06-12_10h38.58.818	001-EEG_SVR_Officel	2022.2.5	143.44485691588653		6.490000000000009	1_sub-pilot040_SVR_EEG_block3-4.protocol.csv	step57	8085	804.469	STIMULATE	47.0	46.9	46.9	46.9	46.9	57	1720.306
1725.216	0	862608	wait	20	3	0	3	0	12.0	0.0	12.0	0.0						1755.136602899991	1760.3037151000026	1760.3037151000026	6.5	['6', 'a', '5', 'return']	[2.770049699989613, 3.0034403999889037, 3.274809800001094, 4.147383199990145]	5.16	6.0	0.0	10hz	high_pain	48.6			sub-040	250	40	46.9	48.6	COM11	COM15	COM3	2024-06-12_10h38.58.818	001-EEG_SVR_Officel	2022.2.5	143.44485691588653		11.667999999999893	1_sub-pilot040_SVR_EEG_block3-4.protocol.csv	step59	8305	827.291	STIMULATE	48.8	48.6	48.6	48.6	48.6	59	1743.1280000000002
1730.374	0	865187	10hz	3	3	0	3	0	12.0	0.0	12.0	0.0						1755.136602899991	1760.3037151000026	1760.3037151000026	6.5	['6', 'a', '5', 'return']	[2.770049699989613, 3.0034403999889037, 3.274809800001094, 4.147383199990145]	5.16	6.0	0.0	10hz	high_pain	48.6			sub-040	250	40	46.9	48.6	COM11	COM15	COM3	2024-06-12_10h38.58.818	001-EEG_SVR_Officel	2022.2.5	143.44485691588653		5.158000000000129	1_sub-pilot040_SVR_EEG_block3-4.protocol.csv	step59	8305	827.291	STIMULATE	48.8	48.6	48.6	48.6	48.6	59	1743.1280000000002
1737.122	0	868561	10/Hi	1	3	0	3	0	12.0	0.0	12.0	0.0						1755.136602899991	1760.3037151000026	1760.3037151000026	6.5	['6', 'a', '5', 'return']	[2.770049699989613, 3.0034403999889037, 3.274809800001094, 4.147383199990145]	5.16	6.0	0.0	10hz	high_pain	48.6			sub-040	250	40	46.9	48.6	COM11	COM15	COM3	2024-06-12_10h38.58.818	001-EEG_SVR_Officel	2022.2.5	143.44485691588653		5.998000000000047	1_sub-pilot040_SVR_EEG_block3-4.protocol.csv	step59	8305	827.291	STIMULATE	48.8	48.6	48.6	48.6	48.6	59	1743.1280000000002
1747.546	0	873773	wait	20	3	0	3	0	13.0	0.0	13.0	0.0						1777.4657390999928	1783.4529913000006	1783.4529913000006	1.0	['1', 'return']	[2.4628438999934588, 3.103274599998258]	5.98	5.19	1.0	controle	low_pain	46.9			sub-040	250	40	46.9	48.6	COM11	COM15	COM3	2024-06-12_10h38.58.818	001-EEG_SVR_Officel	2022.2.5	143.44485691588653		11.173999999999978	1_sub-pilot040_SVR_EEG_block3-4.protocol.csv	step61	8518	849.633	STIMULATE	47.1	46.9	46.9	46.9	46.9	61	1765.47
1753.522	0	876761	CNhz	12	3	0	3	0	13.0	0.0	13.0	0.0						1777.4657390999928	1783.4529913000006	1783.4529913000006	1.0	['1', 'return']	[2.4628438999934588, 3.103274599998258]	5.98	5.19	1.0	controle	low_pain	46.9			sub-040	250	40	46.9	48.6	COM11	COM15	COM3	2024-06-12_10h38.58.818	001-EEG_SVR_Officel	2022.2.5	143.44485691588653		5.975999999999885	1_sub-pilot040_SVR_EEG_block3-4.protocol.csv	step61	8518	849.633	STIMULATE	47.1	46.9	46.9	46.9	46.9	61	1765.47
1759.464	0	879732	CN/Lo	11	3	0	3	0	13.0	0.0	13.0	0.0						1777.4657390999928	1783.4529913000006	1783.4529913000006	1.0	['1', 'return']	[2.4628438999934588, 3.103274599998258]	5.98	5.19	1.0	controle	low_pain	46.9			sub-040	250	40	46.9	48.6	COM11	COM15	COM3	2024-06-12_10h38.58.818	001-EEG_SVR_Officel	2022.2.5	143.44485691588653		5.192000000000007	1_sub-pilot040_SVR_EEG_block3-4.protocol.csv	step61	8518	849.633	STIMULATE	47.1	46.9	46.9	46.9	46.9	61	1765.47
1769.652	0	884826	wait	20	3	0	3	0	14.0	0.0	14.0	0.0						1799.5729395999952	1804.830561099996	1804.830561099996	7.0	['7', 'return']	[2.4758472999965306, 3.116464500009897]	5.25	6.32	2.0	20hz	high_pain	48.6			sub-040	250	40	46.9	48.6	COM11	COM15	COM3	2024-06-12_10h38.58.818	001-EEG_SVR_Officel	2022.2.5	143.44485691588653		10.938000000000102	1_sub-pilot040_SVR_EEG_block3-4.protocol.csv	step63	8734	872.1	STIMULATE	48.8	48.6	48.6	48.6	48.6	63	1787.937
1774.9	0	887450	20hz	6	3	0	3	0	14.0	0.0	14.0	0.0						1799.5729395999952	1804.830561099996	1804.830561099996	7.0	['7', 'return']	[2.4758472999965306, 3.116464500009897]	5.25	6.32	2.0	20hz	high_pain	48.6			sub-040	250	40	46.9	48.6	COM11	COM15	COM3	2024-06-12_10h38.58.818	001-EEG_SVR_Officel	2022.2.5	143.44485691588653		5.248000000000047	1_sub-pilot040_SVR_EEG_block3-4.protocol.csv	step63	8734	872.1	STIMULATE	48.8	48.6	48.6	48.6	48.6	63	1787.937
1781.968	0	890984	20/Hi	4	3	0	3	0	14.0	0.0	14.0	0.0						1799.5729395999952	1804.830561099996	1804.830561099996	7.0	['7', 'return']	[2.4758472999965306, 3.116464500009897]	5.25	6.32	2.0	20hz	high_pain	48.6			sub-040	250	40	46.9	48.6	COM11	COM15	COM3	2024-06-12_10h38.58.818	001-EEG_SVR_Officel	2022.2.5	143.44485691588653		6.317999999999984	1_sub-pilot040_SVR_EEG_block3-4.protocol.csv	step63	8734	872.1	STIMULATE	48.8	48.6	48.6	48.6	48.6	63	1787.937
1791.044	0	895522	wait	20	3	0	3	0	15.0	0.0	15.0	0.0						1820.9648831999948	1828.4311975000016	1828.4311975000016	5.5	['5', 'a', '5', 'return']	[2.3880110000027344, 2.643615299995872, 2.851600800000597, 3.4458857999998145]	7.45	5.87	3.0	controle	high_pain	48.6			sub-040	250	40	46.9	48.6	COM11	COM15	COM3	2024-06-12_10h38.58.818	001-EEG_SVR_Officel	2022.2.5	143.44485691588653		9.826000000000022	1_sub-pilot040_SVR_EEG_block3-4.protocol.csv	step65	8957	895.238	STIMULATE	48.8	48.6	48.6	48.6	48.6	65	1811.075
1798.496	0	899248	CNhz	12	3	0	3	0	15.0	0.0	15.0	0.0						1820.9648831999948	1828.4311975000016	1828.4311975000016	5.5	['5', 'a', '5', 'return']	[2.3880110000027344, 2.643615299995872, 2.851600800000597, 3.4458857999998145]	7.45	5.87	3.0	controle	high_pain	48.6			sub-040	250	40	46.9	48.6	COM11	COM15	COM3	2024-06-12_10h38.58.818	001-EEG_SVR_Officel	2022.2.5	143.44485691588653		7.451999999999998	1_sub-pilot040_SVR_EEG_block3-4.protocol.csv	step65	8957	895.238	STIMULATE	48.8	48.6	48.6	48.6	48.6	65	1811.075
1805.114	0	902557	CN/Hi	10	3	0	3	0	15.0	0.0	15.0	0.0						1820.9648831999948	1828.4311975000016	1828.4311975000016	5.5	['5', 'a', '5', 'return']	[2.3880110000027344, 2.643615299995872, 2.851600800000597, 3.4458857999998145]	7.45	5.87	3.0	controle	high_pain	48.6			sub-040	250	40	46.9	48.6	COM11	COM15	COM3	2024-06-12_10h38.58.818	001-EEG_SVR_Officel	2022.2.5	143.44485691588653		5.867999999999938	1_sub-pilot040_SVR_EEG_block3-4.protocol.csv	step65	8957	895.238	STIMULATE	48.8	48.6	48.6	48.6	48.6	65	1811.075
1877.784	0	938892	wait	20	4	0	4	0	0.0	0.0	0.0	0.0				p	1.553338999990956	1907.704353299996	1915.4543864000009	1915.4543864000009	2.0	['2', 'return']	[2.4446452999982284, 3.221951800005627]	7.74	6.25	0.0	10hz	low_pain	46.9			sub-040	250	40	46.9	48.6	COM11	COM15	COM3	2024-06-12_10h38.58.818	001-EEG_SVR_Officel	2022.2.5	143.44485691588653		73.42000000000007	2_sub-pilot040_SVR_EEG_block5-6.protocol.csv	step3	702	70.012	STIMULATE	47.2	46.9	46.9	46.9	46.9	3	1898.3580000000002
1885.526	0	942763	10hz	3	4	0	4	0	0.0	0.0	0.0	0.0				p	1.553338999990956	1907.704353299996	1915.4543864000009	1915.4543864000009	2.0	['2', 'return']	[2.4446452999982284, 3.221951800005627]	7.74	6.25	0.0	10hz	low_pain	46.9			sub-040	250	40	46.9	48.6	COM11	COM15	COM3	2024-06-12_10h38.58.818	001-EEG_SVR_Officel	2022.2.5	143.44485691588653		7.741999999999962	2_sub-pilot040_SVR_EEG_block5-6.protocol.csv	step3	702	70.012	STIMULATE	47.2	46.9	46.9	46.9	46.9	3	1898.3580000000002
1892.526	0	946263	10/Lo	2	4	0	4	0	0.0	0.0	0.0	0.0				p	1.553338999990956	1907.704353299996	1915.4543864000009	1915.4543864000009	2.0	['2', 'return']	[2.4446452999982284, 3.221951800005627]	7.74	6.25	0.0	10hz	low_pain	46.9			sub-040	250	40	46.9	48.6	COM11	COM15	COM3	2024-06-12_10h38.58.818	001-EEG_SVR_Officel	2022.2.5	143.44485691588653		6.25	2_sub-pilot040_SVR_EEG_block5-6.protocol.csv	step3	702	70.012	STIMULATE	47.2	46.9	46.9	46.9	46.9	3	1898.3580000000002
1901.77	0	950885	wait	20	4	0	4	0	1.0	0.0	1.0	0.0						1931.6924435999967	1938.0825853999995	1938.0825853999995	7.0	['7', 'return']	[2.52052000000549, 3.081172799997148]	6.38	5.8	1.0	controle	high_pain	48.6			sub-040	250	40	46.9	48.6	COM11	COM15	COM3	2024-06-12_10h38.58.818	001-EEG_SVR_Officel	2022.2.5	143.44485691588653		9.993999999999915	2_sub-pilot040_SVR_EEG_block5-6.protocol.csv	step5	926	92.263	STIMULATE	48.8	48.6	48.6	48.6	48.6	5	1920.6090000000002
1908.148	0	954074	CNhz	12	4	0	4	0	1.0	0.0	1.0	0.0						1931.6924435999967	1938.0825853999995	1938.0825853999995	7.0	['7', 'return']	[2.52052000000549, 3.081172799997148]	6.38	5.8	1.0	controle	high_pain	48.6			sub-040	250	40	46.9	48.6	COM11	COM15	COM3	2024-06-12_10h38.58.818	001-EEG_SVR_Officel	2022.2.5	143.44485691588653		6.377999999999929	2_sub-pilot040_SVR_EEG_block5-6.protocol.csv	step5	926	92.263	STIMULATE	48.8	48.6	48.6	48.6	48.6	5	1920.6090000000002
1914.704	0	957352	CN/Hi	10	4	0	4	0	1.0	0.0	1.0	0.0						1931.6924435999967	1938.0825853999995	1938.0825853999995	7.0	['7', 'return']	[2.52052000000549, 3.081172799997148]	6.38	5.8	1.0	controle	high_pain	48.6			sub-040	250	40	46.9	48.6	COM11	COM15	COM3	2024-06-12_10h38.58.818	001-EEG_SVR_Officel	2022.2.5	143.44485691588653		5.80600000000004	2_sub-pilot040_SVR_EEG_block5-6.protocol.csv	step5	926	92.263	STIMULATE	48.8	48.6	48.6	48.6	48.6	5	1920.6090000000002
1924.26	0	962130	wait	20	4	0	4	0	2.0	0.0	2.0	0.0						1954.1818052000017	1959.6337776	1959.6337776	2.5	['2', 'a', '5', 'return']	[2.4423160000005737, 2.8732025000063004, 3.2334820000105537, 4.0416972000093665]	5.44	5.83	2.0	20hz	low_pain	46.9			sub-040	250	40	46.9	48.6	COM11	COM15	COM3	2024-06-12_10h38.58.818	001-EEG_SVR_Officel	2022.2.5	143.44485691588653		10.30600000000004	2_sub-pilot040_SVR_EEG_block5-6.protocol.csv	step7	1144	113.823	STIMULATE	47.0	46.9	46.9	46.9	46.9	7	1942.169
1929.702	0	964851	20hz	6	4	0	4	0	2.0	0.0	2.0	0.0						1954.1818052000017	1959.6337776	1959.6337776	2.5	['2', 'a', '5', 'return']	[2.4423160000005737, 2.8732025000063004, 3.2334820000105537, 4.0416972000093665]	5.44	5.83	2.0	20hz	low_pain	46.9			sub-040	250	40	46.9	48.6	COM11	COM15	COM3	2024-06-12_10h38.58.818	001-EEG_SVR_Officel	2022.2.5	143.44485691588653		5.442000000000007	2_sub-pilot040_SVR_EEG_block5-6.protocol.csv	step7	1144	113.823	STIMULATE	47.0	46.9	46.9	46.9	46.9	7	1942.169
1936.282	0	968141	20/Lo	5	4	0	4	0	2.0	0.0	2.0	0.0						1954.1818052000017	1959.6337776	1959.6337776	2.5	['2', 'a', '5', 'return']	[2.4423160000005737, 2.8732025000063004, 3.2334820000105537, 4.0416972000093665]	5.44	5.83	2.0	20hz	low_pain	46.9			sub-040	250	40	46.9	48.6	COM11	COM15	COM3	2024-06-12_10h38.58.818	001-EEG_SVR_Officel	2022.2.5	143.44485691588653		5.829999999999927	2_sub-pilot040_SVR_EEG_block5-6.protocol.csv	step7	1144	113.823	STIMULATE	47.0	46.9	46.9	46.9	46.9	7	1942.169
1946.762	0	973381	wait	20	4	0	4	0	3.0	0.0	3.0	0.0						1976.6843496999936	1983.004717399992	1983.004717399992	2.0	['2', 'return']	[2.2146652999945218, 2.8543633999943268]	6.31	5.86	3.0	10hz	low_pain	46.9			sub-040	250	40	46.9	48.6	COM11	COM15	COM3	2024-06-12_10h38.58.818	001-EEG_SVR_Officel	2022.2.5	143.44485691588653		11.230000000000018	2_sub-pilot040_SVR_EEG_block5-6.protocol.csv	step9	1380	137.238	STIMULATE	47.1	46.9	46.9	46.9	46.9	9	1965.584
1953.072	0	976536	10hz	3	4	0	4	0	3.0	0.0	3.0	0.0						1976.6843496999936	1983.004717399992	1983.004717399992	2.0	['2', 'return']	[2.2146652999945218, 2.8543633999943268]	6.31	5.86	3.0	10hz	low_pain	46.9			sub-040	250	40	46.9	48.6	COM11	COM15	COM3	2024-06-12_10h38.58.818	001-EEG_SVR_Officel	2022.2.5	143.44485691588653		6.309999999999945	2_sub-pilot040_SVR_EEG_block5-6.protocol.csv	step9	1380	137.238	STIMULATE	47.1	46.9	46.9	46.9	46.9	9	1965.584
1959.68	0	979840	10/Lo	2	4	0	4	0	3.0	0.0	3.0	0.0						1976.6843496999936	1983.004717399992	1983.004717399992	2.0	['2', 'return']	[2.2146652999945218, 2.8543633999943268]	6.31	5.86	3.0	10hz	low_pain	46.9			sub-040	250	40	46.9	48.6	COM11	COM15	COM3	2024-06-12_10h38.58.818	001-EEG_SVR_Officel	2022.2.5	143.44485691588653		5.858000000000175	2_sub-pilot040_SVR_EEG_block5-6.protocol.csv	step9	1380	137.238	STIMULATE	47.1	46.9	46.9	46.9	46.9	9	1965.584
1968.954	0	984477	wait	20	4	0	4	0	4.0	0.0	4.0	0.0						1998.874597300004	2004.166257299992	2004.166257299992	7.0	['7', 'return']	[2.388387099999818, 2.9406997000041883]	5.28	5.19	0.0	40hz	high_pain	48.6			sub-040	250	40	46.9	48.6	COM11	COM15	COM3	2024-06-12_10h38.58.818	001-EEG_SVR_Officel	2022.2.5	143.44485691588653		10.023999999999887	2_sub-pilot040_SVR_EEG_block5-6.protocol.csv	step11	1587	157.725	STIMULATE	48.9	48.6	48.6	48.6	48.6	11	1986.0710000000001
1974.232	0	987116	40hz	9	4	0	4	0	4.0	0.0	4.0	0.0						1998.874597300004	2004.166257299992	2004.166257299992	7.0	['7', 'return']	[2.388387099999818, 2.9406997000041883]	5.28	5.19	0.0	40hz	high_pain	48.6			sub-040	250	40	46.9	48.6	COM11	COM15	COM3	2024-06-12_10h38.58.818	001-EEG_SVR_Officel	2022.2.5	143.44485691588653		5.27800000000002	2_sub-pilot040_SVR_EEG_block5-6.protocol.csv	step11	1587	157.725	STIMULATE	48.9	48.6	48.6	48.6	48.6	11	1986.0710000000001
1980.176	0	990088	40/Hi	7	4	0	4	0	4.0	0.0	4.0	0.0						1998.874597300004	2004.166257299992	2004.166257299992	7.0	['7', 'return']	[2.388387099999818, 2.9406997000041883]	5.28	5.19	0.0	40hz	high_pain	48.6			sub-040	250	40	46.9	48.6	COM11	COM15	COM3	2024-06-12_10h38.58.818	001-EEG_SVR_Officel	2022.2.5	143.44485691588653		5.19399999999996	2_sub-pilot040_SVR_EEG_block5-6.protocol.csv	step11	1587	157.725	STIMULATE	48.9	48.6	48.6	48.6	48.6	11	1986.0710000000001
1990.198	0	995099	wait	20	4	0	4	0	5.0	0.0	5.0	0.0						2020.119875199991	2027.4128326999928	2027.4128326999928	6.5	['6', 'a', '5', 'return']	[3.398000700006378, 3.7102449999947567, 3.9491622999921674, 4.670096500005457]	7.28	6.08	1.0	10hz	high_pain	48.6			sub-040	250	40	46.9	48.6	COM11	COM15	COM3	2024-06-12_10h38.58.818	001-EEG_SVR_Officel	2022.2.5	143.44485691588653		10.772000000000162	2_sub-pilot040_SVR_EEG_block5-6.protocol.csv	step13	1830	181.858	STIMULATE	48.8	48.6	48.6	48.6	48.6	13	2010.2040000000002
1997.48	0	998740	10hz	3	4	0	4	0	5.0	0.0	5.0	0.0						2020.119875199991	2027.4128326999928	2027.4128326999928	6.5	['6', 'a', '5', 'return']	[3.398000700006378, 3.7102449999947567, 3.9491622999921674, 4.670096500005457]	7.28	6.08	1.0	10hz	high_pain	48.6			sub-040	250	40	46.9	48.6	COM11	COM15	COM3	2024-06-12_10h38.58.818	001-EEG_SVR_Officel	2022.2.5	143.44485691588653		7.281999999999925	2_sub-pilot040_SVR_EEG_block5-6.protocol.csv	step13	1830	181.858	STIMULATE	48.8	48.6	48.6	48.6	48.6	13	2010.2040000000002
2004.31	0	1002155	10/Hi	1	4	0	4	0	5.0	0.0	5.0	0.0						2020.119875199991	2027.4128326999928	2027.4128326999928	6.5	['6', 'a', '5', 'return']	[3.398000700006378, 3.7102449999947567, 3.9491622999921674, 4.670096500005457]	7.28	6.08	1.0	10hz	high_pain	48.6			sub-040	250	40	46.9	48.6	COM11	COM15	COM3	2024-06-12_10h38.58.818	001-EEG_SVR_Officel	2022.2.5	143.44485691588653		6.079999999999927	2_sub-pilot040_SVR_EEG_block5-6.protocol.csv	step13	1830	181.858	STIMULATE	48.8	48.6	48.6	48.6	48.6	13	2010.2040000000002
2015.18	0	1007590	wait	20	4	0	4	0	6.0	0.0	6.0	0.0						2045.1029123000044	2052.1941197999986	2052.1941197999986	6.5	['6', 'a', '5', 'return']	[2.417432000002009, 2.9128710000077263, 4.273106699998607, 5.185223100008443]	7.08	5.14	2.0	20hz	high_pain	48.6			sub-040	250	40	46.9	48.6	COM11	COM15	COM3	2024-06-12_10h38.58.818	001-EEG_SVR_Officel	2022.2.5	143.44485691588653		11.620000000000118	2_sub-pilot040_SVR_EEG_block5-6.protocol.csv	step15	2070	205.675	STIMULATE	48.9	48.5	48.6	48.6	48.6	15	2034.0210000000002
