onset	duration	sample	trial_type	value	block.thisRepN	block.thisTrialN	block.thisN	block.thisIndex	reps.thisRepN	reps.thisTrialN	reps.thisN	reps.thisIndex	afrec_start	rec_start	rec_start_egi	key_resp.keys	key_resp.rt	wait_time_text.started	wait_time_text.stopped	therm_loca_text.started	subResponse	keyResp.keys	keyResp.rt	ITI_wait	wait_trigger	loca_thermode	Hz_condition	temp_condition	temp_valeur	text.started	text.stopped	participant	brightness	num_part	low	high	com_svr	com_thermode	com_eeg	date	expName	psychopyVersion	frameRate	Unnamed: 39	distance_from_previous	file	step	index	time	type	temp1	temp2	temp3	temp4	temp5	step_num	time_sync
56.28	0	28140	wait	20	0	0	0	0	0.0	0.0	0.0	0.0	110.41436120000436	109.46904579998228	1718647907.966063	p	55.313675500045065	165.74941950000357	173.69512119999854	173.69512119999854	5.0	['5', 'return']	[2.3522826000116765, 2.977281600004062]	7.94	5.51	0.0	10hz	high_pain	46.9			sub-041	250	41	45.6	46.9	COM11	COM15	COM3	2024-06-17_14h10.16.310	001-EEG_SVR_Officel	2022.2.5	143.8298435188121		56.28	0_sub-pilot041_SVR_EEG_block1-2.protocol.csv	step3	619	61.729	STIMULATE	46.9	46.9	46.9	46.9	46.9	3	76.296
64.218	0	32109	10hz	3	0	0	0	0	0.0	0.0	0.0	0.0	110.41436120000436	109.46904579998228	1718647907.966063	p	55.313675500045065	165.74941950000357	173.69512119999854	173.69512119999854	5.0	['5', 'return']	[2.3522826000116765, 2.977281600004062]	7.94	5.51	0.0	10hz	high_pain	46.9			sub-041	250	41	45.6	46.9	COM11	COM15	COM3	2024-06-17_14h10.16.310	001-EEG_SVR_Officel	2022.2.5	143.8298435188121		7.938000000000002	0_sub-pilot041_SVR_EEG_block1-2.protocol.csv	step3	619	61.729	STIMULATE	46.9	46.9	46.9	46.9	46.9	3	76.296
70.48	0	35240	10/Hi	1	0	0	0	0	0.0	0.0	0.0	0.0	110.41436120000436	109.46904579998228	1718647907.966063	p	55.313675500045065	165.74941950000357	173.69512119999854	173.69512119999854	5.0	['5', 'return']	[2.3522826000116765, 2.977281600004062]	7.94	5.51	0.0	10hz	high_pain	46.9			sub-041	250	41	45.6	46.9	COM11	COM15	COM3	2024-06-17_14h10.16.310	001-EEG_SVR_Officel	2022.2.5	143.8298435188121		5.5120000000000005	0_sub-pilot041_SVR_EEG_block1-2.protocol.csv	step3	619	61.729	STIMULATE	46.9	46.9	46.9	46.9	46.9	3	76.296
80.216	0	40108	wait	20	0	0	0	0	1.0	0.0	1.0	0.0						189.6866478000302	196.2294936000253	196.2294936000253	4.5	['4', 'a', '5', 'return']	[2.366665199981071, 2.790919599996414, 2.9907762000220828, 3.966418199997861]	6.54	5.19	1.0	20hz	low_pain	45.6			sub-041	250	41	45.6	46.9	COM11	COM15	COM3	2024-06-17_14h10.16.310	001-EEG_SVR_Officel	2022.2.5	143.8298435188121		10.48599999999999	0_sub-pilot041_SVR_EEG_block1-2.protocol.csv	step5	843	83.96	STIMULATE	45.6	45.5	45.5	45.6	45.6	5	98.527
86.754	0	43377	20hz	6	0	0	0	0	1.0	0.0	1.0	0.0						189.6866478000302	196.2294936000253	196.2294936000253	4.5	['4', 'a', '5', 'return']	[2.366665199981071, 2.790919599996414, 2.9907762000220828, 3.966418199997861]	6.54	5.19	1.0	20hz	low_pain	45.6			sub-041	250	41	45.6	46.9	COM11	COM15	COM3	2024-06-17_14h10.16.310	001-EEG_SVR_Officel	2022.2.5	143.8298435188121		6.538000000000011	0_sub-pilot041_SVR_EEG_block1-2.protocol.csv	step5	843	83.96	STIMULATE	45.6	45.5	45.5	45.6	45.6	5	98.527
92.698	0	46349	20/Lo	5	0	0	0	0	1.0	0.0	1.0	0.0						189.6866478000302	196.2294936000253	196.2294936000253	4.5	['4', 'a', '5', 'return']	[2.366665199981071, 2.790919599996414, 2.9907762000220828, 3.966418199997861]	6.54	5.19	1.0	20hz	low_pain	45.6			sub-041	250	41	45.6	46.9	COM11	COM15	COM3	2024-06-17_14h10.16.310	001-EEG_SVR_Officel	2022.2.5	143.8298435188121		5.193999999999988	0_sub-pilot041_SVR_EEG_block1-2.protocol.csv	step5	843	83.96	STIMULATE	45.6	45.5	45.5	45.6	45.6	5	98.527
103.748	0	51874	wait	20	0	0	0	0	2.0	0.0	2.0	0.0						213.2173976000049	221.1454453000333	221.1454453000333	6.0	['6', 'return']	[2.301309200003743, 2.941924500046298]	7.92	6.22	2.0	10hz	high_pain	46.9			sub-041	250	41	45.6	46.9	COM11	COM15	COM3	2024-06-17_14h10.16.310	001-EEG_SVR_Officel	2022.2.5	143.8298435188121		11.800000000000011	0_sub-pilot041_SVR_EEG_block1-2.protocol.csv	step7	1105	109.955	STIMULATE	46.9	46.8	46.9	46.9	46.9	7	124.522
111.668	0	55834	10hz	3	0	0	0	0	2.0	0.0	2.0	0.0						213.2173976000049	221.1454453000333	221.1454453000333	6.0	['6', 'return']	[2.301309200003743, 2.941924500046298]	7.92	6.22	2.0	10hz	high_pain	46.9			sub-041	250	41	45.6	46.9	COM11	COM15	COM3	2024-06-17_14h10.16.310	001-EEG_SVR_Officel	2022.2.5	143.8298435188121		7.920000000000002	0_sub-pilot041_SVR_EEG_block1-2.protocol.csv	step7	1105	109.955	STIMULATE	46.9	46.8	46.9	46.9	46.9	7	124.522
118.638	0	59319	10/Hi	1	0	0	0	0	2.0	0.0	2.0	0.0						213.2173976000049	221.1454453000333	221.1454453000333	6.0	['6', 'return']	[2.301309200003743, 2.941924500046298]	7.92	6.22	2.0	10hz	high_pain	46.9			sub-041	250	41	45.6	46.9	COM11	COM15	COM3	2024-06-17_14h10.16.310	001-EEG_SVR_Officel	2022.2.5	143.8298435188121		6.219999999999999	0_sub-pilot041_SVR_EEG_block1-2.protocol.csv	step7	1105	109.955	STIMULATE	46.9	46.8	46.9	46.9	46.9	7	124.522
127.632	0	63816	wait	20	0	0	0	0	3.0	0.0	3.0	0.0						237.1022590000066	244.00800530001288	244.00800530001288	6.0	['6', 'return']	[2.0058813000214286, 2.5815637999912724]	6.9	5.35	3.0	40hz	high_pain	46.9			sub-041	250	41	45.6	46.9	COM11	COM15	COM3	2024-06-17_14h10.16.310	001-EEG_SVR_Officel	2022.2.5	143.8298435188121		9.744	0_sub-pilot041_SVR_EEG_block1-2.protocol.csv	step9	1327	131.957	STIMULATE	47.0	46.8	46.9	46.9	46.9	9	146.524
134.532	0	67266	40hz	9	0	0	0	0	3.0	0.0	3.0	0.0						237.1022590000066	244.00800530001288	244.00800530001288	6.0	['6', 'return']	[2.0058813000214286, 2.5815637999912724]	6.9	5.35	3.0	40hz	high_pain	46.9			sub-041	250	41	45.6	46.9	COM11	COM15	COM3	2024-06-17_14h10.16.310	001-EEG_SVR_Officel	2022.2.5	143.8298435188121		6.900000000000006	0_sub-pilot041_SVR_EEG_block1-2.protocol.csv	step9	1327	131.957	STIMULATE	47.0	46.8	46.9	46.9	46.9	9	146.524
140.636	0	70318	40/Hi	7	0	0	0	0	3.0	0.0	3.0	0.0						237.1022590000066	244.00800530001288	244.00800530001288	6.0	['6', 'return']	[2.0058813000214286, 2.5815637999912724]	6.9	5.35	3.0	40hz	high_pain	46.9			sub-041	250	41	45.6	46.9	COM11	COM15	COM3	2024-06-17_14h10.16.310	001-EEG_SVR_Officel	2022.2.5	143.8298435188121		5.353999999999985	0_sub-pilot041_SVR_EEG_block1-2.protocol.csv	step9	1327	131.957	STIMULATE	47.0	46.8	46.9	46.9	46.9	9	146.524
150.136	0	75068	wait	20	0	0	0	0	4.0	0.0	4.0	0.0						259.60547980002593	265.601516499999	265.601516499999	4.5	['4', 'a', '5', 'return']	[2.2132644000230357, 2.4536209999932908, 2.652759700024035, 3.590701600012835]	5.99	5.14	0.0	controle	low_pain	45.6			sub-041	250	41	45.6	46.9	COM11	COM15	COM3	2024-06-17_14h10.16.310	001-EEG_SVR_Officel	2022.2.5	143.8298435188121		10.25	0_sub-pilot041_SVR_EEG_block1-2.protocol.csv	step11	1543	153.325	STIMULATE	45.6	45.5	45.5	45.6	45.7	11	167.892
156.126	0	78063	CNhz	12	0	0	0	0	4.0	0.0	4.0	0.0						259.60547980002593	265.601516499999	265.601516499999	4.5	['4', 'a', '5', 'return']	[2.2132644000230357, 2.4536209999932908, 2.652759700024035, 3.590701600012835]	5.99	5.14	0.0	controle	low_pain	45.6			sub-041	250	41	45.6	46.9	COM11	COM15	COM3	2024-06-17_14h10.16.310	001-EEG_SVR_Officel	2022.2.5	143.8298435188121		5.990000000000009	0_sub-pilot041_SVR_EEG_block1-2.protocol.csv	step11	1543	153.325	STIMULATE	45.6	45.5	45.5	45.6	45.7	11	167.892
162.018	0	81009	CN/Lo	11	0	0	0	0	4.0	0.0	4.0	0.0						259.60547980002593	265.601516499999	265.601516499999	4.5	['4', 'a', '5', 'return']	[2.2132644000230357, 2.4536209999932908, 2.652759700024035, 3.590701600012835]	5.99	5.14	0.0	controle	low_pain	45.6			sub-041	250	41	45.6	46.9	COM11	COM15	COM3	2024-06-17_14h10.16.310	001-EEG_SVR_Officel	2022.2.5	143.8298435188121		5.141999999999996	0_sub-pilot041_SVR_EEG_block1-2.protocol.csv	step11	1543	153.325	STIMULATE	45.6	45.5	45.5	45.6	45.7	11	167.892
172.742	0	86371	wait	20	0	0	0	0	5.0	0.0	5.0	0.0						282.2119452999905	289.6578666000278	289.6578666000278	5.0	['5', 'return']	[2.8594579999917187, 3.5868223999859765]	7.44	5.31	1.0	controle	high_pain	46.9			sub-041	250	41	45.6	46.9	COM11	COM15	COM3	2024-06-17_14h10.16.310	001-EEG_SVR_Officel	2022.2.5	143.8298435188121		11.47399999999999	0_sub-pilot041_SVR_EEG_block1-2.protocol.csv	step13	1788	177.602	STIMULATE	46.9	46.9	46.9	46.9	46.9	13	192.169
180.184	0	90092	CNhz	12	0	0	0	0	5.0	0.0	5.0	0.0						282.2119452999905	289.6578666000278	289.6578666000278	5.0	['5', 'return']	[2.8594579999917187, 3.5868223999859765]	7.44	5.31	1.0	controle	high_pain	46.9			sub-041	250	41	45.6	46.9	COM11	COM15	COM3	2024-06-17_14h10.16.310	001-EEG_SVR_Officel	2022.2.5	143.8298435188121		7.442000000000007	0_sub-pilot041_SVR_EEG_block1-2.protocol.csv	step13	1788	177.602	STIMULATE	46.9	46.9	46.9	46.9	46.9	13	192.169
186.244	0	93122	CN/Hi	10	0	0	0	0	5.0	0.0	5.0	0.0						282.2119452999905	289.6578666000278	289.6578666000278	5.0	['5', 'return']	[2.8594579999917187, 3.5868223999859765]	7.44	5.31	1.0	controle	high_pain	46.9			sub-041	250	41	45.6	46.9	COM11	COM15	COM3	2024-06-17_14h10.16.310	001-EEG_SVR_Officel	2022.2.5	143.8298435188121		5.310000000000002	0_sub-pilot041_SVR_EEG_block1-2.protocol.csv	step13	1788	177.602	STIMULATE	46.9	46.9	46.9	46.9	46.9	13	192.169
196.792	0	98396	wait	20	0	0	0	0	6.0	0.0	6.0	0.0						306.26332020002883	313.00970420002704	313.00970420002704	6.0	['6', 'return']	[2.876733199984301, 3.686010500008706]	6.74	6.23	2.0	40hz	high_pain	46.9			sub-041	250	41	45.6	46.9	COM11	COM15	COM3	2024-06-17_14h10.16.310	001-EEG_SVR_Officel	2022.2.5	143.8298435188121		11.298000000000002	0_sub-pilot041_SVR_EEG_block1-2.protocol.csv	step15	2032	201.851	STIMULATE	46.9	46.8	46.9	46.9	46.9	15	216.418
203.532	0	101766	40hz	9	0	0	0	0	6.0	0.0	6.0	0.0						306.26332020002883	313.00970420002704	313.00970420002704	6.0	['6', 'return']	[2.876733199984301, 3.686010500008706]	6.74	6.23	2.0	40hz	high_pain	46.9			sub-041	250	41	45.6	46.9	COM11	COM15	COM3	2024-06-17_14h10.16.310	001-EEG_SVR_Officel	2022.2.5	143.8298435188121		6.740000000000009	0_sub-pilot041_SVR_EEG_block1-2.protocol.csv	step15	2032	201.851	STIMULATE	46.9	46.8	46.9	46.9	46.9	15	216.418
210.518	0	105259	40/Hi	7	0	0	0	0	6.0	0.0	6.0	0.0						306.26332020002883	313.00970420002704	313.00970420002704	6.0	['6', 'return']	[2.876733199984301, 3.686010500008706]	6.74	6.23	2.0	40hz	high_pain	46.9			sub-041	250	41	45.6	46.9	COM11	COM15	COM3	2024-06-17_14h10.16.310	001-EEG_SVR_Officel	2022.2.5	143.8298435188121		6.23599999999999	0_sub-pilot041_SVR_EEG_block1-2.protocol.csv	step15	2032	201.851	STIMULATE	46.9	46.8	46.9	46.9	46.9	15	216.418
220.24	0	110120	wait	20	0	0	0	0	7.0	0.0	7.0	0.0						329.71067549998406	337.4776880000136	337.4776880000136	5.5	['5', 'a', '5', 'return']	[2.480595799977891, 2.6810123000177555, 2.87286539998604, 3.5201620999723673]	7.76	5.16	3.0	controle	high_pain	46.9			sub-041	250	41	45.6	46.9	COM11	COM15	COM3	2024-06-17_14h10.16.310	001-EEG_SVR_Officel	2022.2.5	143.8298435188121		10.472000000000008	0_sub-pilot041_SVR_EEG_block1-2.protocol.csv	step17	2268	225.264	STIMULATE	46.9	46.8	46.9	46.9	46.9	17	239.83100000000002
228.004	0	114002	CNhz	12	0	0	0	0	7.0	0.0	7.0	0.0						329.71067549998406	337.4776880000136	337.4776880000136	5.5	['5', 'a', '5', 'return']	[2.480595799977891, 2.6810123000177555, 2.87286539998604, 3.5201620999723673]	7.76	5.16	3.0	controle	high_pain	46.9			sub-041	250	41	45.6	46.9	COM11	COM15	COM3	2024-06-17_14h10.16.310	001-EEG_SVR_Officel	2022.2.5	143.8298435188121		7.763999999999982	0_sub-pilot041_SVR_EEG_block1-2.protocol.csv	step17	2268	225.264	STIMULATE	46.9	46.8	46.9	46.9	46.9	17	239.83100000000002
233.91	0	116955	CN/Hi	10	0	0	0	0	7.0	0.0	7.0	0.0						329.71067549998406	337.4776880000136	337.4776880000136	5.5	['5', 'a', '5', 'return']	[2.480595799977891, 2.6810123000177555, 2.87286539998604, 3.5201620999723673]	7.76	5.16	3.0	controle	high_pain	46.9			sub-041	250	41	45.6	46.9	COM11	COM15	COM3	2024-06-17_14h10.16.310	001-EEG_SVR_Officel	2022.2.5	143.8298435188121		5.156000000000006	0_sub-pilot041_SVR_EEG_block1-2.protocol.csv	step17	2268	225.264	STIMULATE	46.9	46.8	46.9	46.9	46.9	17	239.83100000000002
244.542	0	122271	wait	20	0	0	0	0	8.0	0.0	8.0	0.0						354.0121828999836	360.349329299992	360.349329299992	5.0	['5', 'return']	[1.8578663999796845, 2.547217399987858]	6.33	5.41	0.0	40hz	low_pain	45.6			sub-041	250	41	45.6	46.9	COM11	COM15	COM3	2024-06-17_14h10.16.310	001-EEG_SVR_Officel	2022.2.5	143.8298435188121		11.382000000000005	0_sub-pilot041_SVR_EEG_block1-2.protocol.csv	step19	2501	248.32	STIMULATE	45.6	45.5	45.6	45.6	45.6	19	262.887
250.874	0	125437	40hz	9	0	0	0	0	8.0	0.0	8.0	0.0						354.0121828999836	360.349329299992	360.349329299992	5.0	['5', 'return']	[1.8578663999796845, 2.547217399987858]	6.33	5.41	0.0	40hz	low_pain	45.6			sub-041	250	41	45.6	46.9	COM11	COM15	COM3	2024-06-17_14h10.16.310	001-EEG_SVR_Officel	2022.2.5	143.8298435188121		6.331999999999994	0_sub-pilot041_SVR_EEG_block1-2.protocol.csv	step19	2501	248.32	STIMULATE	45.6	45.5	45.6	45.6	45.6	19	262.887
257.03	0	128514	40/Lo	8	0	0	0	0	8.0	0.0	8.0	0.0						354.0121828999836	360.349329299992	360.349329299992	5.0	['5', 'return']	[1.8578663999796845, 2.547217399987858]	6.33	5.41	0.0	40hz	low_pain	45.6			sub-041	250	41	45.6	46.9	COM11	COM15	COM3	2024-06-17_14h10.16.310	001-EEG_SVR_Officel	2022.2.5	143.8298435188121		5.4059999999999775	0_sub-pilot041_SVR_EEG_block1-2.protocol.csv	step19	2501	248.32	STIMULATE	45.6	45.5	45.6	45.6	45.6	19	262.887
266.44	0	133220	wait	20	0	0	0	0	9.0	0.0	9.0	0.0						375.9110901000095	381.2885659000021	381.2885659000021	5.0	['5', 'return']	[2.4054599999799393, 3.325366400007624]	5.37	5.85	1.0	20hz	high_pain	46.9			sub-041	250	41	45.6	46.9	COM11	COM15	COM3	2024-06-17_14h10.16.310	001-EEG_SVR_Officel	2022.2.5	143.8298435188121		10.160000000000025	0_sub-pilot041_SVR_EEG_block1-2.protocol.csv	step21	2717	269.719	STIMULATE	46.9	46.9	46.9	46.9	46.9	21	284.286
271.814	0	135907	20hz	6	0	0	0	0	9.0	0.0	9.0	0.0						375.9110901000095	381.2885659000021	381.2885659000021	5.0	['5', 'return']	[2.4054599999799393, 3.325366400007624]	5.37	5.85	1.0	20hz	high_pain	46.9			sub-041	250	41	45.6	46.9	COM11	COM15	COM3	2024-06-17_14h10.16.310	001-EEG_SVR_Officel	2022.2.5	143.8298435188121		5.374000000000024	0_sub-pilot041_SVR_EEG_block1-2.protocol.csv	step21	2717	269.719	STIMULATE	46.9	46.9	46.9	46.9	46.9	21	284.286
278.414	0	139207	20/Hi	4	0	0	0	0	9.0	0.0	9.0	0.0						375.9110901000095	381.2885659000021	381.2885659000021	5.0	['5', 'return']	[2.4054599999799393, 3.325366400007624]	5.37	5.85	1.0	20hz	high_pain	46.9			sub-041	250	41	45.6	46.9	COM11	COM15	COM3	2024-06-17_14h10.16.310	001-EEG_SVR_Officel	2022.2.5	143.8298435188121		5.849999999999966	0_sub-pilot041_SVR_EEG_block1-2.protocol.csv	step21	2717	269.719	STIMULATE	46.9	46.9	46.9	46.9	46.9	21	284.286
288.158	0	144079	wait	20	0	0	0	0	10.0	0.0	10.0	0.0						397.62863320001634	404.2023171000183	404.2023171000183	4.5	['4', 'a', '5', 'return']	[2.3900187000399455, 2.621147600002587, 2.813950499985367, 3.589131199987605]	6.57	5.2	2.0	controle	low_pain	45.6			sub-041	250	41	45.6	46.9	COM11	COM15	COM3	2024-06-17_14h10.16.310	001-EEG_SVR_Officel	2022.2.5	143.8298435188121		10.494000000000028	0_sub-pilot041_SVR_EEG_block1-2.protocol.csv	step23	2941	291.937	STIMULATE	45.5	45.5	45.5	45.6	45.6	23	306.504
294.726	0	147363	CNhz	12	0	0	0	0	10.0	0.0	10.0	0.0						397.62863320001634	404.2023171000183	404.2023171000183	4.5	['4', 'a', '5', 'return']	[2.3900187000399455, 2.621147600002587, 2.813950499985367, 3.589131199987605]	6.57	5.2	2.0	controle	low_pain	45.6			sub-041	250	41	45.6	46.9	COM11	COM15	COM3	2024-06-17_14h10.16.310	001-EEG_SVR_Officel	2022.2.5	143.8298435188121		6.567999999999984	0_sub-pilot041_SVR_EEG_block1-2.protocol.csv	step23	2941	291.937	STIMULATE	45.5	45.5	45.5	45.6	45.6	23	306.504
300.674	0	150337	CN/Lo	11	0	0	0	0	10.0	0.0	10.0	0.0						397.62863320001634	404.2023171000183	404.2023171000183	4.5	['4', 'a', '5', 'return']	[2.3900187000399455, 2.621147600002587, 2.813950499985367, 3.589131199987605]	6.57	5.2	2.0	controle	low_pain	45.6			sub-041	250	41	45.6	46.9	COM11	COM15	COM3	2024-06-17_14h10.16.310	001-EEG_SVR_Officel	2022.2.5	143.8298435188121		5.197999999999979	0_sub-pilot041_SVR_EEG_block1-2.protocol.csv	step23	2941	291.937	STIMULATE	45.5	45.5	45.5	45.6	45.6	23	306.504
311.334	0	155667	wait	20	0	0	0	0	11.0	0.0	11.0	0.0						420.8049991999869	426.1282396999886	426.1282396999886	6.0	['6', 'return']	[2.0955082000000402, 2.639073800004553]	5.32	6.48	3.0	20hz	high_pain	46.9			sub-041	250	41	45.6	46.9	COM11	COM15	COM3	2024-06-17_14h10.16.310	001-EEG_SVR_Officel	2022.2.5	143.8298435188121		11.410000000000025	0_sub-pilot041_SVR_EEG_block1-2.protocol.csv	step25	3176	315.211	STIMULATE	47.0	46.9	46.9	46.9	46.9	25	329.778
316.652	0	158326	20hz	6	0	0	0	0	11.0	0.0	11.0	0.0						420.8049991999869	426.1282396999886	426.1282396999886	6.0	['6', 'return']	[2.0955082000000402, 2.639073800004553]	5.32	6.48	3.0	20hz	high_pain	46.9			sub-041	250	41	45.6	46.9	COM11	COM15	COM3	2024-06-17_14h10.16.310	001-EEG_SVR_Officel	2022.2.5	143.8298435188121		5.317999999999984	0_sub-pilot041_SVR_EEG_block1-2.protocol.csv	step25	3176	315.211	STIMULATE	47.0	46.9	46.9	46.9	46.9	25	329.778
323.884	0	161942	20/Hi	4	0	0	0	0	11.0	0.0	11.0	0.0						420.8049991999869	426.1282396999886	426.1282396999886	6.0	['6', 'return']	[2.0955082000000402, 2.639073800004553]	5.32	6.48	3.0	20hz	high_pain	46.9			sub-041	250	41	45.6	46.9	COM11	COM15	COM3	2024-06-17_14h10.16.310	001-EEG_SVR_Officel	2022.2.5	143.8298435188121		6.482000000000028	0_sub-pilot041_SVR_EEG_block1-2.protocol.csv	step25	3176	315.211	STIMULATE	47.0	46.9	46.9	46.9	46.9	25	329.778
332.308	0	166154	wait	20	0	0	0	0	12.0	0.0	12.0	0.0						441.7800878999988	448.81895919999806	448.81895919999806	4.0	['4', 'return']	[2.2366757999989204, 3.0444548000232317]	7.03	5.49	0.0	10hz	low_pain	45.6			sub-041	250	41	45.6	46.9	COM11	COM15	COM3	2024-06-17_14h10.16.310	001-EEG_SVR_Officel	2022.2.5	143.8298435188121		9.173999999999978	0_sub-pilot041_SVR_EEG_block1-2.protocol.csv	step27	3394	336.871	STIMULATE	45.6	45.5	45.5	45.6	45.6	27	351.438
339.342	0	169671	10hz	3	0	0	0	0	12.0	0.0	12.0	0.0						441.7800878999988	448.81895919999806	448.81895919999806	4.0	['4', 'return']	[2.2366757999989204, 3.0444548000232317]	7.03	5.49	0.0	10hz	low_pain	45.6			sub-041	250	41	45.6	46.9	COM11	COM15	COM3	2024-06-17_14h10.16.310	001-EEG_SVR_Officel	2022.2.5	143.8298435188121		7.033999999999992	0_sub-pilot041_SVR_EEG_block1-2.protocol.csv	step27	3394	336.871	STIMULATE	45.6	45.5	45.5	45.6	45.6	27	351.438
345.58	0	172790	10/Lo	2	0	0	0	0	12.0	0.0	12.0	0.0						441.7800878999988	448.81895919999806	448.81895919999806	4.0	['4', 'return']	[2.2366757999989204, 3.0444548000232317]	7.03	5.49	0.0	10hz	low_pain	45.6			sub-041	250	41	45.6	46.9	COM11	COM15	COM3	2024-06-17_14h10.16.310	001-EEG_SVR_Officel	2022.2.5	143.8298435188121		5.4879999999999995	0_sub-pilot041_SVR_EEG_block1-2.protocol.csv	step27	3394	336.871	STIMULATE	45.6	45.5	45.5	45.6	45.6	27	351.438
355.408	0	177704	wait	20	0	0	0	0	13.0	0.0	13.0	0.0						464.8797926999978	471.5151349999942	471.5151349999942	4.0	['4', 'return']	[2.2439906999934465, 2.908554399968125]	6.63	5.09	1.0	40hz	low_pain	45.6			sub-041	250	41	45.6	46.9	COM11	COM15	COM3	2024-06-17_14h10.16.310	001-EEG_SVR_Officel	2022.2.5	143.8298435188121		10.578000000000031	0_sub-pilot041_SVR_EEG_block1-2.protocol.csv	step29	3619	359.191	STIMULATE	45.6	45.5	45.6	45.6	45.6	29	373.758
362.038	0	181019	40hz	9	0	0	0	0	13.0	0.0	13.0	0.0						464.8797926999978	471.5151349999942	471.5151349999942	4.0	['4', 'return']	[2.2439906999934465, 2.908554399968125]	6.63	5.09	1.0	40hz	low_pain	45.6			sub-041	250	41	45.6	46.9	COM11	COM15	COM3	2024-06-17_14h10.16.310	001-EEG_SVR_Officel	2022.2.5	143.8298435188121		6.6299999999999955	0_sub-pilot041_SVR_EEG_block1-2.protocol.csv	step29	3619	359.191	STIMULATE	45.6	45.5	45.6	45.6	45.6	29	373.758
367.874	0	183937	40/Lo	8	0	0	0	0	13.0	0.0	13.0	0.0						464.8797926999978	471.5151349999942	471.5151349999942	4.0	['4', 'return']	[2.2439906999934465, 2.908554399968125]	6.63	5.09	1.0	40hz	low_pain	45.6			sub-041	250	41	45.6	46.9	COM11	COM15	COM3	2024-06-17_14h10.16.310	001-EEG_SVR_Officel	2022.2.5	143.8298435188121		5.086000000000013	0_sub-pilot041_SVR_EEG_block1-2.protocol.csv	step29	3619	359.191	STIMULATE	45.6	45.5	45.6	45.6	45.6	29	373.758
377.966	0	188983	wait	20	0	0	0	0	14.0	0.0	14.0	0.0						487.4380254999851	493.6343174999929	493.6343174999929	5.0	['5', 'return']	[2.339252200035844, 2.9303664000472054]	6.19	5.96	2.0	20hz	high_pain	46.9			sub-041	250	41	45.6	46.9	COM11	COM15	COM3	2024-06-17_14h10.16.310	001-EEG_SVR_Officel	2022.2.5	143.8298435188121		10.841999999999985	0_sub-pilot041_SVR_EEG_block1-2.protocol.csv	step31	3851	382.123	STIMULATE	47.0	46.9	46.9	46.9	46.9	31	396.69
384.158	0	192079	20hz	6	0	0	0	0	14.0	0.0	14.0	0.0						487.4380254999851	493.6343174999929	493.6343174999929	5.0	['5', 'return']	[2.339252200035844, 2.9303664000472054]	6.19	5.96	2.0	20hz	high_pain	46.9			sub-041	250	41	45.6	46.9	COM11	COM15	COM3	2024-06-17_14h10.16.310	001-EEG_SVR_Officel	2022.2.5	143.8298435188121		6.192000000000007	0_sub-pilot041_SVR_EEG_block1-2.protocol.csv	step31	3851	382.123	STIMULATE	47.0	46.9	46.9	46.9	46.9	31	396.69
390.872	0	195436	20/Hi	4	0	0	0	0	14.0	0.0	14.0	0.0						487.4380254999851	493.6343174999929	493.6343174999929	5.0	['5', 'return']	[2.339252200035844, 2.9303664000472054]	6.19	5.96	2.0	20hz	high_pain	46.9			sub-041	250	41	45.6	46.9	COM11	COM15	COM3	2024-06-17_14h10.16.310	001-EEG_SVR_Officel	2022.2.5	143.8298435188121		5.963999999999999	0_sub-pilot041_SVR_EEG_block1-2.protocol.csv	step31	3851	382.123	STIMULATE	47.0	46.9	46.9	46.9	46.9	31	396.69
400.108	0	200054	wait	20	0	0	0	0	15.0	0.0	15.0	0.0						509.5797713000211	516.7927354000276	516.7927354000276	3.5	['3', 'a', '5', 'return']	[2.3505417000269517, 2.75089810002828, 2.9513022000319324, 3.6386724000331014]	7.21	6.3	3.0	40hz	low_pain	45.6			sub-041	250	41	45.6	46.9	COM11	COM15	COM3	2024-06-17_14h10.16.310	001-EEG_SVR_Officel	2022.2.5	143.8298435188121		9.98599999999999	0_sub-pilot041_SVR_EEG_block1-2.protocol.csv	step33	4088	405.681	STIMULATE	45.7	45.5	45.5	45.6	45.6	33	420.248
407.316	0	203658	40hz	9	0	0	0	0	15.0	0.0	15.0	0.0						509.5797713000211	516.7927354000276	516.7927354000276	3.5	['3', 'a', '5', 'return']	[2.3505417000269517, 2.75089810002828, 2.9513022000319324, 3.6386724000331014]	7.21	6.3	3.0	40hz	low_pain	45.6			sub-041	250	41	45.6	46.9	COM11	COM15	COM3	2024-06-17_14h10.16.310	001-EEG_SVR_Officel	2022.2.5	143.8298435188121		7.20799999999997	0_sub-pilot041_SVR_EEG_block1-2.protocol.csv	step33	4088	405.681	STIMULATE	45.7	45.5	45.5	45.6	45.6	33	420.248
414.368	0	207184	40/Lo	8	0	0	0	0	15.0	0.0	15.0	0.0						509.5797713000211	516.7927354000276	516.7927354000276	3.5	['3', 'a', '5', 'return']	[2.3505417000269517, 2.75089810002828, 2.9513022000319324, 3.6386724000331014]	7.21	6.3	3.0	40hz	low_pain	45.6			sub-041	250	41	45.6	46.9	COM11	COM15	COM3	2024-06-17_14h10.16.310	001-EEG_SVR_Officel	2022.2.5	143.8298435188121		6.302000000000021	0_sub-pilot041_SVR_EEG_block1-2.protocol.csv	step33	4088	405.681	STIMULATE	45.7	45.5	45.5	45.6	45.6	33	420.248
484.834	0	242417	wait	20	1	0	1	0	0.0	0.0	0.0	0.0				p	0.7654501000070013	594.3052346000331	602.0724482000223	602.0724482000223	5.5	['5', 'a', '5', 'return']	[1.9430532000260428, 2.1341920000268146, 2.302244000020437, 2.9745770000154153]	7.76	6.22	0.0	20hz	high_pain	46.9			sub-041	250	41	45.6	46.9	COM11	COM15	COM3	2024-06-17_14h10.16.310	001-EEG_SVR_Officel	2022.2.5	143.8298435188121		71.21600000000001	0_sub-pilot041_SVR_EEG_block1-2.protocol.csv	step35	4942	490.821	STIMULATE	46.9	46.8	46.8	46.9	47.0	35	505.34700000000004
492.594	0	246297	20hz	6	1	0	1	0	0.0	0.0	0.0	0.0				p	0.7654501000070013	594.3052346000331	602.0724482000223	602.0724482000223	5.5	['5', 'a', '5', 'return']	[1.9430532000260428, 2.1341920000268146, 2.302244000020437, 2.9745770000154153]	7.76	6.22	0.0	20hz	high_pain	46.9			sub-041	250	41	45.6	46.9	COM11	COM15	COM3	2024-06-17_14h10.16.310	001-EEG_SVR_Officel	2022.2.5	143.8298435188121		7.759999999999991	0_sub-pilot041_SVR_EEG_block1-2.protocol.csv	step35	4942	490.821	STIMULATE	46.9	46.8	46.8	46.9	47.0	35	505.34700000000004
499.564	0	249782	20/Hi	4	1	0	1	0	0.0	0.0	0.0	0.0				p	0.7654501000070013	594.3052346000331	602.0724482000223	602.0724482000223	5.5	['5', 'a', '5', 'return']	[1.9430532000260428, 2.1341920000268146, 2.302244000020437, 2.9745770000154153]	7.76	6.22	0.0	20hz	high_pain	46.9			sub-041	250	41	45.6	46.9	COM11	COM15	COM3	2024-06-17_14h10.16.310	001-EEG_SVR_Officel	2022.2.5	143.8298435188121		6.220000000000027	0_sub-pilot041_SVR_EEG_block1-2.protocol.csv	step35	4942	490.821	STIMULATE	46.9	46.8	46.8	46.9	47.0	35	505.34700000000004
508.592	0	254296	wait	20	1	0	1	0	1.0	0.0	1.0	0.0						618.0655543000321	623.8184434000286	623.8184434000286	4.0	['4', 'return']	[1.7481078000273556, 2.7013481999747455]	5.75	5.21	1.0	10hz	low_pain	45.6			sub-041	250	41	45.6	46.9	COM11	COM15	COM3	2024-06-17_14h10.16.310	001-EEG_SVR_Officel	2022.2.5	143.8298435188121		9.777999999999963	0_sub-pilot041_SVR_EEG_block1-2.protocol.csv	step37	5152	511.665	STIMULATE	45.6	45.5	45.5	45.5	45.6	37	526.191
514.342	0	257171	10hz	3	1	0	1	0	1.0	0.0	1.0	0.0						618.0655543000321	623.8184434000286	623.8184434000286	4.0	['4', 'return']	[1.7481078000273556, 2.7013481999747455]	5.75	5.21	1.0	10hz	low_pain	45.6			sub-041	250	41	45.6	46.9	COM11	COM15	COM3	2024-06-17_14h10.16.310	001-EEG_SVR_Officel	2022.2.5	143.8298435188121		5.75	0_sub-pilot041_SVR_EEG_block1-2.protocol.csv	step37	5152	511.665	STIMULATE	45.6	45.5	45.5	45.5	45.6	37	526.191
520.302	0	260151	10/Lo	2	1	0	1	0	1.0	0.0	1.0	0.0						618.0655543000321	623.8184434000286	623.8184434000286	4.0	['4', 'return']	[1.7481078000273556, 2.7013481999747455]	5.75	5.21	1.0	10hz	low_pain	45.6			sub-041	250	41	45.6	46.9	COM11	COM15	COM3	2024-06-17_14h10.16.310	001-EEG_SVR_Officel	2022.2.5	143.8298435188121		5.210000000000036	0_sub-pilot041_SVR_EEG_block1-2.protocol.csv	step37	5152	511.665	STIMULATE	45.6	45.5	45.5	45.5	45.6	37	526.191
530.068	0	265034	wait	20	1	0	1	0	2.0	0.0	2.0	0.0						639.5398803999997	644.5760698000086	644.5760698000086	2.0	['2', 'return']	[2.004966200038325, 2.581640500051435]	5.03	6.48	2.0	10hz	low_pain	45.6			sub-041	250	41	45.6	46.9	COM11	COM15	COM3	2024-06-17_14h10.16.310	001-EEG_SVR_Officel	2022.2.5	143.8298435188121		10.515999999999963	0_sub-pilot041_SVR_EEG_block1-2.protocol.csv	step39	5374	533.697	STIMULATE	45.6	45.5	45.5	45.5	45.6	39	548.223
535.1	0	267550	10hz	3	1	0	1	0	2.0	0.0	2.0	0.0						639.5398803999997	644.5760698000086	644.5760698000086	2.0	['2', 'return']	[2.004966200038325, 2.581640500051435]	5.03	6.48	2.0	10hz	low_pain	45.6			sub-041	250	41	45.6	46.9	COM11	COM15	COM3	2024-06-17_14h10.16.310	001-EEG_SVR_Officel	2022.2.5	143.8298435188121		5.032000000000039	0_sub-pilot041_SVR_EEG_block1-2.protocol.csv	step39	5374	533.697	STIMULATE	45.6	45.5	45.5	45.5	45.6	39	548.223
542.326	0	271163	10/Lo	2	1	0	1	0	2.0	0.0	2.0	0.0						639.5398803999997	644.5760698000086	644.5760698000086	2.0	['2', 'return']	[2.004966200038325, 2.581640500051435]	5.03	6.48	2.0	10hz	low_pain	45.6			sub-041	250	41	45.6	46.9	COM11	COM15	COM3	2024-06-17_14h10.16.310	001-EEG_SVR_Officel	2022.2.5	143.8298435188121		6.475999999999999	0_sub-pilot041_SVR_EEG_block1-2.protocol.csv	step39	5374	533.697	STIMULATE	45.6	45.5	45.5	45.5	45.6	39	548.223
550.702	0	275351	wait	20	1	0	1	0	3.0	0.0	3.0	0.0						660.1743121999898	666.6910105000134	666.6910105000134	4.5	['4', 'a', '5', 'return']	[1.8906547999940813, 2.075392099970486, 2.2583578000194393, 2.9154431999777444]	6.51	5.59	3.0	20hz	low_pain	45.6			sub-041	250	41	45.6	46.9	COM11	COM15	COM3	2024-06-17_14h10.16.310	001-EEG_SVR_Officel	2022.2.5	143.8298435188121		9.125999999999976	0_sub-pilot041_SVR_EEG_block1-2.protocol.csv	step41	5588	554.849	STIMULATE	45.6	45.5	45.6	45.5	45.6	41	569.375
557.214	0	278607	20hz	6	1	0	1	0	3.0	0.0	3.0	0.0						660.1743121999898	666.6910105000134	666.6910105000134	4.5	['4', 'a', '5', 'return']	[1.8906547999940813, 2.075392099970486, 2.2583578000194393, 2.9154431999777444]	6.51	5.59	3.0	20hz	low_pain	45.6			sub-041	250	41	45.6	46.9	COM11	COM15	COM3	2024-06-17_14h10.16.310	001-EEG_SVR_Officel	2022.2.5	143.8298435188121		6.512000000000057	0_sub-pilot041_SVR_EEG_block1-2.protocol.csv	step41	5588	554.849	STIMULATE	45.6	45.5	45.6	45.5	45.6	41	569.375
563.552	0	281776	20/Lo	5	1	0	1	0	3.0	0.0	3.0	0.0						660.1743121999898	666.6910105000134	666.6910105000134	4.5	['4', 'a', '5', 'return']	[1.8906547999940813, 2.075392099970486, 2.2583578000194393, 2.9154431999777444]	6.51	5.59	3.0	20hz	low_pain	45.6			sub-041	250	41	45.6	46.9	COM11	COM15	COM3	2024-06-17_14h10.16.310	001-EEG_SVR_Officel	2022.2.5	143.8298435188121		5.587999999999965	0_sub-pilot041_SVR_EEG_block1-2.protocol.csv	step41	5588	554.849	STIMULATE	45.6	45.5	45.6	45.5	45.6	41	569.375
573.148	0	286574	wait	20	1	0	1	0	4.0	0.0	4.0	0.0						682.6214653999778	687.9633001000038	687.9633001000038	5.0	['5', 'return']	[2.5135973999858834, 3.193197299959138]	5.34	5.84	0.0	controle	high_pain	46.9			sub-041	250	41	45.6	46.9	COM11	COM15	COM3	2024-06-17_14h10.16.310	001-EEG_SVR_Officel	2022.2.5	143.8298435188121		10.346000000000004	0_sub-pilot041_SVR_EEG_block1-2.protocol.csv	step43	5806	576.46	STIMULATE	46.9	46.8	46.9	46.9	46.9	43	590.9860000000001
578.486	0	289243	CNhz	12	1	0	1	0	4.0	0.0	4.0	0.0						682.6214653999778	687.9633001000038	687.9633001000038	5.0	['5', 'return']	[2.5135973999858834, 3.193197299959138]	5.34	5.84	0.0	controle	high_pain	46.9			sub-041	250	41	45.6	46.9	COM11	COM15	COM3	2024-06-17_14h10.16.310	001-EEG_SVR_Officel	2022.2.5	143.8298435188121		5.337999999999965	0_sub-pilot041_SVR_EEG_block1-2.protocol.csv	step43	5806	576.46	STIMULATE	46.9	46.8	46.9	46.9	46.9	43	590.9860000000001
585.074	0	292537	CN/Hi	10	1	0	1	0	4.0	0.0	4.0	0.0						682.6214653999778	687.9633001000038	687.9633001000038	5.0	['5', 'return']	[2.5135973999858834, 3.193197299959138]	5.34	5.84	0.0	controle	high_pain	46.9			sub-041	250	41	45.6	46.9	COM11	COM15	COM3	2024-06-17_14h10.16.310	001-EEG_SVR_Officel	2022.2.5	143.8298435188121		5.837999999999965	0_sub-pilot041_SVR_EEG_block1-2.protocol.csv	step43	5806	576.46	STIMULATE	46.9	46.8	46.9	46.9	46.9	43	590.9860000000001
594.7	0	297350	wait	20	1	0	1	0	5.0	0.0	5.0	0.0						704.1726108000148	711.3992631000001	711.3992631000001	5.5	['5', 'a', '5', 'return']	[2.0133809999679215, 2.2376170000061393, 2.413600599975325, 3.102591799979564]	7.22	6.1	1.0	40hz	high_pain	46.9			sub-041	250	41	45.6	46.9	COM11	COM15	COM3	2024-06-17_14h10.16.310	001-EEG_SVR_Officel	2022.2.5	143.8298435188121		10.37600000000009	0_sub-pilot041_SVR_EEG_block1-2.protocol.csv	step45	6045	600.192	STIMULATE	46.9	46.9	46.8	46.9	46.9	45	614.7180000000001
601.92	0	300960	40hz	9	1	0	1	0	5.0	0.0	5.0	0.0						704.1726108000148	711.3992631000001	711.3992631000001	5.5	['5', 'a', '5', 'return']	[2.0133809999679215, 2.2376170000061393, 2.413600599975325, 3.102591799979564]	7.22	6.1	1.0	40hz	high_pain	46.9			sub-041	250	41	45.6	46.9	COM11	COM15	COM3	2024-06-17_14h10.16.310	001-EEG_SVR_Officel	2022.2.5	143.8298435188121		7.219999999999914	0_sub-pilot041_SVR_EEG_block1-2.protocol.csv	step45	6045	600.192	STIMULATE	46.9	46.9	46.8	46.9	46.9	45	614.7180000000001
608.77	0	304385	40/Hi	7	1	0	1	0	5.0	0.0	5.0	0.0						704.1726108000148	711.3992631000001	711.3992631000001	5.5	['5', 'a', '5', 'return']	[2.0133809999679215, 2.2376170000061393, 2.413600599975325, 3.102591799979564]	7.22	6.1	1.0	40hz	high_pain	46.9			sub-041	250	41	45.6	46.9	COM11	COM15	COM3	2024-06-17_14h10.16.310	001-EEG_SVR_Officel	2022.2.5	143.8298435188121		6.100000000000023	0_sub-pilot041_SVR_EEG_block1-2.protocol.csv	step45	6045	600.192	STIMULATE	46.9	46.9	46.8	46.9	46.9	45	614.7180000000001
618.05	0	309025	wait	20	1	0	1	0	6.0	0.0	6.0	0.0						727.5227411999949	733.1786956000142	733.1786956000142	2.5	['2', 'a', '5', 'return']	[2.6516179000027478, 3.1959296999848448, 3.571035299974028, 4.444000599964056]	5.65	5.13	2.0	20hz	low_pain	45.6			sub-041	250	41	45.6	46.9	COM11	COM15	COM3	2024-06-17_14h10.16.310	001-EEG_SVR_Officel	2022.2.5	143.8298435188121		10.029999999999973	0_sub-pilot041_SVR_EEG_block1-2.protocol.csv	step47	6255	620.914	STIMULATE	45.6	45.5	45.5	45.5	45.6	47	635.44
623.702	0	311851	20hz	6	1	0	1	0	6.0	0.0	6.0	0.0						727.5227411999949	733.1786956000142	733.1786956000142	2.5	['2', 'a', '5', 'return']	[2.6516179000027478, 3.1959296999848448, 3.571035299974028, 4.444000599964056]	5.65	5.13	2.0	20hz	low_pain	45.6			sub-041	250	41	45.6	46.9	COM11	COM15	COM3	2024-06-17_14h10.16.310	001-EEG_SVR_Officel	2022.2.5	143.8298435188121		5.652000000000044	0_sub-pilot041_SVR_EEG_block1-2.protocol.csv	step47	6255	620.914	STIMULATE	45.6	45.5	45.5	45.5	45.6	47	635.44
629.58	0	314790	20/Lo	5	1	0	1	0	6.0	0.0	6.0	0.0						727.5227411999949	733.1786956000142	733.1786956000142	2.5	['2', 'a', '5', 'return']	[2.6516179000027478, 3.1959296999848448, 3.571035299974028, 4.444000599964056]	5.65	5.13	2.0	20hz	low_pain	45.6			sub-041	250	41	45.6	46.9	COM11	COM15	COM3	2024-06-17_14h10.16.310	001-EEG_SVR_Officel	2022.2.5	143.8298435188121		5.128000000000043	0_sub-pilot041_SVR_EEG_block1-2.protocol.csv	step47	6255	620.914	STIMULATE	45.6	45.5	45.5	45.5	45.6	47	635.44
641.164	0	320582	wait	20	1	0	1	0	7.0	0.0	7.0	0.0						750.6372136999853	758.3344143999857	758.3344143999857	6.0	['6', 'return']	[2.1609431999968365, 2.8003483000211418]	7.69	5.59	3.0	10hz	high_pain	46.9			sub-041	250	41	45.6	46.9	COM11	COM15	COM3	2024-06-17_14h10.16.310	001-EEG_SVR_Officel	2022.2.5	143.8298435188121		12.333999999999946	0_sub-pilot041_SVR_EEG_block1-2.protocol.csv	step49	6513	646.545	STIMULATE	47.0	46.8	46.9	46.9	46.9	49	661.0709999999999
648.856	0	324428	10hz	3	1	0	1	0	7.0	0.0	7.0	0.0						750.6372136999853	758.3344143999857	758.3344143999857	6.0	['6', 'return']	[2.1609431999968365, 2.8003483000211418]	7.69	5.59	3.0	10hz	high_pain	46.9			sub-041	250	41	45.6	46.9	COM11	COM15	COM3	2024-06-17_14h10.16.310	001-EEG_SVR_Officel	2022.2.5	143.8298435188121		7.692000000000007	0_sub-pilot041_SVR_EEG_block1-2.protocol.csv	step49	6513	646.545	STIMULATE	47.0	46.8	46.9	46.9	46.9	49	661.0709999999999
655.194	0	327597	10/Hi	1	1	0	1	0	7.0	0.0	7.0	0.0						750.6372136999853	758.3344143999857	758.3344143999857	6.0	['6', 'return']	[2.1609431999968365, 2.8003483000211418]	7.69	5.59	3.0	10hz	high_pain	46.9			sub-041	250	41	45.6	46.9	COM11	COM15	COM3	2024-06-17_14h10.16.310	001-EEG_SVR_Officel	2022.2.5	143.8298435188121		5.587999999999965	0_sub-pilot041_SVR_EEG_block1-2.protocol.csv	step49	6513	646.545	STIMULATE	47.0	46.8	46.9	46.9	46.9	49	661.0709999999999
664.68	0	332340	wait	20	1	0	1	0	8.0	0.0	8.0	0.0						774.1537103999872	779.3161219999893	779.3161219999893	2.0	['2', 'return']	[2.5786463000113145, 3.387545500008855]	5.16	5.41	0.0	20hz	low_pain	45.6			sub-041	250	41	45.6	46.9	COM11	COM15	COM3	2024-06-17_14h10.16.310	001-EEG_SVR_Officel	2022.2.5	143.8298435188121		10.23599999999999	0_sub-pilot041_SVR_EEG_block1-2.protocol.csv	step51	6724	667.413	STIMULATE	45.6	45.5	45.5	45.6	45.6	51	681.9390000000001
669.838	0	334919	20hz	6	1	0	1	0	8.0	0.0	8.0	0.0						774.1537103999872	779.3161219999893	779.3161219999893	2.0	['2', 'return']	[2.5786463000113145, 3.387545500008855]	5.16	5.41	0.0	20hz	low_pain	45.6			sub-041	250	41	45.6	46.9	COM11	COM15	COM3	2024-06-17_14h10.16.310	001-EEG_SVR_Officel	2022.2.5	143.8298435188121		5.1580000000000155	0_sub-pilot041_SVR_EEG_block1-2.protocol.csv	step51	6724	667.413	STIMULATE	45.6	45.5	45.5	45.6	45.6	51	681.9390000000001
675.994	0	337997	20/Lo	5	1	0	1	0	8.0	0.0	8.0	0.0						774.1537103999872	779.3161219999893	779.3161219999893	2.0	['2', 'return']	[2.5786463000113145, 3.387545500008855]	5.16	5.41	0.0	20hz	low_pain	45.6			sub-041	250	41	45.6	46.9	COM11	COM15	COM3	2024-06-17_14h10.16.310	001-EEG_SVR_Officel	2022.2.5	143.8298435188121		5.406000000000063	0_sub-pilot041_SVR_EEG_block1-2.protocol.csv	step51	6724	667.413	STIMULATE	45.6	45.5	45.5	45.6	45.6	51	681.9390000000001
686.244	0	343122	wait	20	1	0	1	0	9.0	0.0	9.0	0.0						795.7184463000158	800.9179258000222	800.9179258000222	6.0	['6', 'return']	[1.9620985999936238, 2.5383040999877267]	5.19	5.2	1.0	10hz	high_pain	46.9			sub-041	250	41	45.6	46.9	COM11	COM15	COM3	2024-06-17_14h10.16.310	001-EEG_SVR_Officel	2022.2.5	143.8298435188121		11.0	0_sub-pilot041_SVR_EEG_block1-2.protocol.csv	step53	6939	688.787	STIMULATE	46.9	46.9	46.9	46.9	47.1	53	703.3130000000001
691.434	0	345717	10hz	3	1	0	1	0	9.0	0.0	9.0	0.0						795.7184463000158	800.9179258000222	800.9179258000222	6.0	['6', 'return']	[1.9620985999936238, 2.5383040999877267]	5.19	5.2	1.0	10hz	high_pain	46.9			sub-041	250	41	45.6	46.9	COM11	COM15	COM3	2024-06-17_14h10.16.310	001-EEG_SVR_Officel	2022.2.5	143.8298435188121		5.189999999999941	0_sub-pilot041_SVR_EEG_block1-2.protocol.csv	step53	6939	688.787	STIMULATE	46.9	46.9	46.9	46.9	47.1	53	703.3130000000001
697.384	0	348692	10/Hi	1	1	0	1	0	9.0	0.0	9.0	0.0						795.7184463000158	800.9179258000222	800.9179258000222	6.0	['6', 'return']	[1.9620985999936238, 2.5383040999877267]	5.19	5.2	1.0	10hz	high_pain	46.9			sub-041	250	41	45.6	46.9	COM11	COM15	COM3	2024-06-17_14h10.16.310	001-EEG_SVR_Officel	2022.2.5	143.8298435188121		5.2000000000000455	0_sub-pilot041_SVR_EEG_block1-2.protocol.csv	step53	6939	688.787	STIMULATE	46.9	46.9	46.9	46.9	47.1	53	703.3130000000001
706.996	0	353498	wait	20	1	0	1	0	10.0	0.0	10.0	0.0						816.4710830000113	821.6834669000236	821.6834669000236	4.5	['4', 'a', '5', 'return']	[2.314775999984704, 2.5308228000067174, 2.746781199995894, 3.4345892000128515]	5.21	5.24	2.0	40hz	low_pain	45.6			sub-041	250	41	45.6	46.9	COM11	COM15	COM3	2024-06-17_14h10.16.310	001-EEG_SVR_Officel	2022.2.5	143.8298435188121		10.361999999999966	0_sub-pilot041_SVR_EEG_block1-2.protocol.csv	step55	7150	709.623	STIMULATE	45.6	45.5	45.5	45.5	45.6	55	724.1490000000001
712.204	0	356102	40hz	9	1	0	1	0	10.0	0.0	10.0	0.0						816.4710830000113	821.6834669000236	821.6834669000236	4.5	['4', 'a', '5', 'return']	[2.314775999984704, 2.5308228000067174, 2.746781199995894, 3.4345892000128515]	5.21	5.24	2.0	40hz	low_pain	45.6			sub-041	250	41	45.6	46.9	COM11	COM15	COM3	2024-06-17_14h10.16.310	001-EEG_SVR_Officel	2022.2.5	143.8298435188121		5.20799999999997	0_sub-pilot041_SVR_EEG_block1-2.protocol.csv	step55	7150	709.623	STIMULATE	45.6	45.5	45.5	45.5	45.6	55	724.1490000000001
718.192	0	359096	40/Lo	8	1	0	1	0	10.0	0.0	10.0	0.0						816.4710830000113	821.6834669000236	821.6834669000236	4.5	['4', 'a', '5', 'return']	[2.314775999984704, 2.5308228000067174, 2.746781199995894, 3.4345892000128515]	5.21	5.24	2.0	40hz	low_pain	45.6			sub-041	250	41	45.6	46.9	COM11	COM15	COM3	2024-06-17_14h10.16.310	001-EEG_SVR_Officel	2022.2.5	143.8298435188121		5.238000000000056	0_sub-pilot041_SVR_EEG_block1-2.protocol.csv	step55	7150	709.623	STIMULATE	45.6	45.5	45.5	45.5	45.6	55	724.1490000000001
728.658	0	364329	wait	20	1	0	1	0	11.0	0.0	11.0	0.0						838.1331266000052	845.8249168000184	845.8249168000184	4.5	['4', 'a', '5', 'return']	[2.2866136000375263, 2.5101207999978215, 2.7103067000280134, 3.390772700018715]	7.69	5.67	3.0	controle	low_pain	45.6			sub-041	250	41	45.6	46.9	COM11	COM15	COM3	2024-06-17_14h10.16.310	001-EEG_SVR_Officel	2022.2.5	143.8298435188121		11.216000000000008	0_sub-pilot041_SVR_EEG_block1-2.protocol.csv	step57	7396	734.075	STIMULATE	45.8	45.5	45.5	45.6	45.6	57	748.6010000000001
736.346	0	368173	CNhz	12	1	0	1	0	11.0	0.0	11.0	0.0						838.1331266000052	845.8249168000184	845.8249168000184	4.5	['4', 'a', '5', 'return']	[2.2866136000375263, 2.5101207999978215, 2.7103067000280134, 3.390772700018715]	7.69	5.67	3.0	controle	low_pain	45.6			sub-041	250	41	45.6	46.9	COM11	COM15	COM3	2024-06-17_14h10.16.310	001-EEG_SVR_Officel	2022.2.5	143.8298435188121		7.687999999999988	0_sub-pilot041_SVR_EEG_block1-2.protocol.csv	step57	7396	734.075	STIMULATE	45.8	45.5	45.5	45.6	45.6	57	748.6010000000001
742.766	0	371383	CN/Lo	11	1	0	1	0	11.0	0.0	11.0	0.0						838.1331266000052	845.8249168000184	845.8249168000184	4.5	['4', 'a', '5', 'return']	[2.2866136000375263, 2.5101207999978215, 2.7103067000280134, 3.390772700018715]	7.69	5.67	3.0	controle	low_pain	45.6			sub-041	250	41	45.6	46.9	COM11	COM15	COM3	2024-06-17_14h10.16.310	001-EEG_SVR_Officel	2022.2.5	143.8298435188121		5.669999999999959	0_sub-pilot041_SVR_EEG_block1-2.protocol.csv	step57	7396	734.075	STIMULATE	45.8	45.5	45.5	45.6	45.6	57	748.6010000000001
752.76	0	376380	wait	20	1	0	1	0	12.0	0.0	12.0	0.0						862.233164299978	867.7708240000065	867.7708240000065	6.0	['6', 'return']	[2.2435758000356145, 2.859022799995728]	5.53	5.01	0.0	40hz	high_pain	46.9			sub-041	250	41	45.6	46.9	COM11	COM15	COM3	2024-06-17_14h10.16.310	001-EEG_SVR_Officel	2022.2.5	143.8298435188121		10.744000000000028	0_sub-pilot041_SVR_EEG_block1-2.protocol.csv	step59	7611	755.43	STIMULATE	47.0	46.8	46.9	46.9	46.9	59	769.9559999999999
758.292	0	379146	40hz	9	1	0	1	0	12.0	0.0	12.0	0.0						862.233164299978	867.7708240000065	867.7708240000065	6.0	['6', 'return']	[2.2435758000356145, 2.859022799995728]	5.53	5.01	0.0	40hz	high_pain	46.9			sub-041	250	41	45.6	46.9	COM11	COM15	COM3	2024-06-17_14h10.16.310	001-EEG_SVR_Officel	2022.2.5	143.8298435188121		5.532000000000039	0_sub-pilot041_SVR_EEG_block1-2.protocol.csv	step59	7611	755.43	STIMULATE	47.0	46.8	46.9	46.9	46.9	59	769.9559999999999
764.052	0	382026	40/Hi	7	1	0	1	0	12.0	0.0	12.0	0.0						862.233164299978	867.7708240000065	867.7708240000065	6.0	['6', 'return']	[2.2435758000356145, 2.859022799995728]	5.53	5.01	0.0	40hz	high_pain	46.9			sub-041	250	41	45.6	46.9	COM11	COM15	COM3	2024-06-17_14h10.16.310	001-EEG_SVR_Officel	2022.2.5	143.8298435188121		5.009999999999991	0_sub-pilot041_SVR_EEG_block1-2.protocol.csv	step59	7611	755.43	STIMULATE	47.0	46.8	46.9	46.9	46.9	59	769.9559999999999
774.172	0	387086	wait	20	1	0	1	0	13.0	0.0	13.0	0.0						883.6459479000187	889.2148419999867	889.2148419999867	0.0	['0', 'return']	[3.762862799980212, 4.563213299959898]	5.56	5.35	1.0	controle	low_pain	45.6			sub-041	250	41	45.6	46.9	COM11	COM15	COM3	2024-06-17_14h10.16.310	001-EEG_SVR_Officel	2022.2.5	143.8298435188121		10.870000000000005	0_sub-pilot041_SVR_EEG_block1-2.protocol.csv	step61	7830	777.133	STIMULATE	45.7	45.5	45.5	45.6	45.6	61	791.6590000000001
779.734	0	389867	CNhz	12	1	0	1	0	13.0	0.0	13.0	0.0						883.6459479000187	889.2148419999867	889.2148419999867	0.0	['0', 'return']	[3.762862799980212, 4.563213299959898]	5.56	5.35	1.0	controle	low_pain	45.6			sub-041	250	41	45.6	46.9	COM11	COM15	COM3	2024-06-17_14h10.16.310	001-EEG_SVR_Officel	2022.2.5	143.8298435188121		5.562000000000012	0_sub-pilot041_SVR_EEG_block1-2.protocol.csv	step61	7830	777.133	STIMULATE	45.7	45.5	45.5	45.6	45.6	61	791.6590000000001
785.832	0	392916	CN/Lo	11	1	0	1	0	13.0	0.0	13.0	0.0						883.6459479000187	889.2148419999867	889.2148419999867	0.0	['0', 'return']	[3.762862799980212, 4.563213299959898]	5.56	5.35	1.0	controle	low_pain	45.6			sub-041	250	41	45.6	46.9	COM11	COM15	COM3	2024-06-17_14h10.16.310	001-EEG_SVR_Officel	2022.2.5	143.8298435188121		5.347999999999956	0_sub-pilot041_SVR_EEG_block1-2.protocol.csv	step61	7830	777.133	STIMULATE	45.7	45.5	45.5	45.6	45.6	61	791.6590000000001
797.314	0	398657	wait	20	1	0	1	0	14.0	0.0	14.0	0.0						906.7874729000032	914.0177309000284	914.0177309000284	6.0	['6', 'return']	[1.9145828000037, 2.394471999956295]	7.23	5.5	2.0	controle	high_pain	46.9			sub-041	250	41	45.6	46.9	COM11	COM15	COM3	2024-06-17_14h10.16.310	001-EEG_SVR_Officel	2022.2.5	143.8298435188121		12.231999999999971	0_sub-pilot041_SVR_EEG_block1-2.protocol.csv	step63	8078	802.107	STIMULATE	46.9	46.9	46.9	46.9	46.8	63	816.633
804.538	0	402269	CNhz	12	1	0	1	0	14.0	0.0	14.0	0.0						906.7874729000032	914.0177309000284	914.0177309000284	6.0	['6', 'return']	[1.9145828000037, 2.394471999956295]	7.23	5.5	2.0	controle	high_pain	46.9			sub-041	250	41	45.6	46.9	COM11	COM15	COM3	2024-06-17_14h10.16.310	001-EEG_SVR_Officel	2022.2.5	143.8298435188121		7.224000000000046	0_sub-pilot041_SVR_EEG_block1-2.protocol.csv	step63	8078	802.107	STIMULATE	46.9	46.9	46.9	46.9	46.8	63	816.633
810.786	0	405393	CN/Hi	10	1	0	1	0	14.0	0.0	14.0	0.0						906.7874729000032	914.0177309000284	914.0177309000284	6.0	['6', 'return']	[1.9145828000037, 2.394471999956295]	7.23	5.5	2.0	controle	high_pain	46.9			sub-041	250	41	45.6	46.9	COM11	COM15	COM3	2024-06-17_14h10.16.310	001-EEG_SVR_Officel	2022.2.5	143.8298435188121		5.497999999999934	0_sub-pilot041_SVR_EEG_block1-2.protocol.csv	step63	8078	802.107	STIMULATE	46.9	46.9	46.9	46.9	46.8	63	816.633
819.954	0	409977	wait	20	1	0	1	0	15.0	0.0	15.0	0.0						929.4287113000172	935.6412662999936	935.6412662999936	2.0	['2', 'return']	[2.3346169000142254, 2.9034563999739476]	6.21	5.41	3.0	10hz	low_pain	45.6			sub-041	250	41	45.6	46.9	COM11	COM15	COM3	2024-06-17_14h10.16.310	001-EEG_SVR_Officel	2022.2.5	143.8298435188121		9.918000000000006	0_sub-pilot041_SVR_EEG_block1-2.protocol.csv	step65	8288	823.712	STIMULATE	45.7	45.5	45.5	45.6	45.6	65	838.238
826.162	0	413081	10hz	3	1	0	1	0	15.0	0.0	15.0	0.0						929.4287113000172	935.6412662999936	935.6412662999936	2.0	['2', 'return']	[2.3346169000142254, 2.9034563999739476]	6.21	5.41	3.0	10hz	low_pain	45.6			sub-041	250	41	45.6	46.9	COM11	COM15	COM3	2024-06-17_14h10.16.310	001-EEG_SVR_Officel	2022.2.5	143.8298435188121		6.208000000000084	0_sub-pilot041_SVR_EEG_block1-2.protocol.csv	step65	8288	823.712	STIMULATE	45.7	45.5	45.5	45.6	45.6	65	838.238
832.324	0	416162	10/Lo	2	1	0	1	0	15.0	0.0	15.0	0.0						929.4287113000172	935.6412662999936	935.6412662999936	2.0	['2', 'return']	[2.3346169000142254, 2.9034563999739476]	6.21	5.41	3.0	10hz	low_pain	45.6			sub-041	250	41	45.6	46.9	COM11	COM15	COM3	2024-06-17_14h10.16.310	001-EEG_SVR_Officel	2022.2.5	143.8298435188121		5.411999999999921	0_sub-pilot041_SVR_EEG_block1-2.protocol.csv	step65	8288	823.712	STIMULATE	45.7	45.5	45.5	45.6	45.6	65	838.238
913.708	0	456854	wait	20	2	0	2	0	0.0	0.0	0.0	0.0				p	0.5325001999735832	1023.1824359000312	1029.276466100011	1029.276466100011	5.5	['5', 'a', '5', 'return']	[1.9697073999559507, 2.1696525999577716, 2.339217800006736, 3.0018622999778017]	6.09	6.07	0.0	10hz	high_pain	46.9			sub-041	250	41	45.6	46.9	COM11	COM15	COM3	2024-06-17_14h10.16.310	001-EEG_SVR_Officel	2022.2.5	143.8298435188121		82.13400000000001	1_sub-pilot041_SVR_EEG_block3-4.protocol.csv	step3	835	83.358	STIMULATE	46.9	46.8	46.9	46.9	46.9	3	932.479
919.796	0	459898	10hz	3	2	0	2	0	0.0	0.0	0.0	0.0				p	0.5325001999735832	1023.1824359000312	1029.276466100011	1029.276466100011	5.5	['5', 'a', '5', 'return']	[1.9697073999559507, 2.1696525999577716, 2.339217800006736, 3.0018622999778017]	6.09	6.07	0.0	10hz	high_pain	46.9			sub-041	250	41	45.6	46.9	COM11	COM15	COM3	2024-06-17_14h10.16.310	001-EEG_SVR_Officel	2022.2.5	143.8298435188121		6.088000000000079	1_sub-pilot041_SVR_EEG_block3-4.protocol.csv	step3	835	83.358	STIMULATE	46.9	46.8	46.9	46.9	46.9	3	932.479
926.62	0	463310	10/Hi	1	2	0	2	0	0.0	0.0	0.0	0.0				p	0.5325001999735832	1023.1824359000312	1029.276466100011	1029.276466100011	5.5	['5', 'a', '5', 'return']	[1.9697073999559507, 2.1696525999577716, 2.339217800006736, 3.0018622999778017]	6.09	6.07	0.0	10hz	high_pain	46.9			sub-041	250	41	45.6	46.9	COM11	COM15	COM3	2024-06-17_14h10.16.310	001-EEG_SVR_Officel	2022.2.5	143.8298435188121		6.073999999999955	1_sub-pilot041_SVR_EEG_block3-4.protocol.csv	step3	835	83.358	STIMULATE	46.9	46.8	46.9	46.9	46.9	3	932.479
935.822	0	467911	wait	20	2	0	2	0	1.0	0.0	1.0	0.0						1045.296545099991	1052.8908424000256	1052.8908424000256	6.0	['6', 'return']	[1.9483300999854691, 2.5404193000285886]	7.59	5.96	1.0	40hz	high_pain	46.9			sub-041	250	41	45.6	46.9	COM11	COM15	COM3	2024-06-17_14h10.16.310	001-EEG_SVR_Officel	2022.2.5	143.8298435188121		9.951999999999998	1_sub-pilot041_SVR_EEG_block3-4.protocol.csv	step5	1072	106.848	STIMULATE	46.9	46.8	46.9	46.9	46.9	5	955.969
943.41	0	471705	40hz	9	2	0	2	0	1.0	0.0	1.0	0.0						1045.296545099991	1052.8908424000256	1052.8908424000256	6.0	['6', 'return']	[1.9483300999854691, 2.5404193000285886]	7.59	5.96	1.0	40hz	high_pain	46.9			sub-041	250	41	45.6	46.9	COM11	COM15	COM3	2024-06-17_14h10.16.310	001-EEG_SVR_Officel	2022.2.5	143.8298435188121		7.587999999999965	1_sub-pilot041_SVR_EEG_block3-4.protocol.csv	step5	1072	106.848	STIMULATE	46.9	46.8	46.9	46.9	46.9	5	955.969
950.122	0	475061	40/Hi	7	2	0	2	0	1.0	0.0	1.0	0.0						1045.296545099991	1052.8908424000256	1052.8908424000256	6.0	['6', 'return']	[1.9483300999854691, 2.5404193000285886]	7.59	5.96	1.0	40hz	high_pain	46.9			sub-041	250	41	45.6	46.9	COM11	COM15	COM3	2024-06-17_14h10.16.310	001-EEG_SVR_Officel	2022.2.5	143.8298435188121		5.961999999999989	1_sub-pilot041_SVR_EEG_block3-4.protocol.csv	step5	1072	106.848	STIMULATE	46.9	46.8	46.9	46.9	46.9	5	955.969
958.97	0	479485	wait	20	2	0	2	0	2.0	0.0	2.0	0.0						1068.445099000004	1076.380303199985	1076.380303199985	6.0	['6', 'return']	[1.9953197999857366, 2.5232731999712996]	7.93	5.45	2.0	40hz	high_pain	46.9			sub-041	250	41	45.6	46.9	COM11	COM15	COM3	2024-06-17_14h10.16.310	001-EEG_SVR_Officel	2022.2.5	143.8298435188121		9.59800000000007	1_sub-pilot041_SVR_EEG_block3-4.protocol.csv	step7	1304	129.871	STIMULATE	46.9	46.8	46.9	46.9	46.9	7	978.992
966.898	0	483449	40hz	9	2	0	2	0	2.0	0.0	2.0	0.0						1068.445099000004	1076.380303199985	1076.380303199985	6.0	['6', 'return']	[1.9953197999857366, 2.5232731999712996]	7.93	5.45	2.0	40hz	high_pain	46.9			sub-041	250	41	45.6	46.9	COM11	COM15	COM3	2024-06-17_14h10.16.310	001-EEG_SVR_Officel	2022.2.5	143.8298435188121		7.927999999999997	1_sub-pilot041_SVR_EEG_block3-4.protocol.csv	step7	1304	129.871	STIMULATE	46.9	46.8	46.9	46.9	46.9	7	978.992
973.096	0	486548	40/Hi	7	2	0	2	0	2.0	0.0	2.0	0.0						1068.445099000004	1076.380303199985	1076.380303199985	6.0	['6', 'return']	[1.9953197999857366, 2.5232731999712996]	7.93	5.45	2.0	40hz	high_pain	46.9			sub-041	250	41	45.6	46.9	COM11	COM15	COM3	2024-06-17_14h10.16.310	001-EEG_SVR_Officel	2022.2.5	143.8298435188121		5.447999999999979	1_sub-pilot041_SVR_EEG_block3-4.protocol.csv	step7	1304	129.871	STIMULATE	46.9	46.8	46.9	46.9	46.9	7	978.992
982.444	0	491222	wait	20	2	0	2	0	3.0	0.0	3.0	0.0						1091.919984999986	1097.326847999997	1097.326847999997	5.0	['5', 'return']	[2.168274099996779, 2.728301700029988]	5.4	5.9	3.0	controle	low_pain	45.6			sub-041	250	41	45.6	46.9	COM11	COM15	COM3	2024-06-17_14h10.16.310	001-EEG_SVR_Officel	2022.2.5	143.8298435188121		10.097999999999956	1_sub-pilot041_SVR_EEG_block3-4.protocol.csv	step9	1520	151.254	STIMULATE	45.6	45.5	45.5	45.5	45.6	9	1000.375
987.846	0	493923	CNhz	12	2	0	2	0	3.0	0.0	3.0	0.0						1091.919984999986	1097.326847999997	1097.326847999997	5.0	['5', 'return']	[2.168274099996779, 2.728301700029988]	5.4	5.9	3.0	controle	low_pain	45.6			sub-041	250	41	45.6	46.9	COM11	COM15	COM3	2024-06-17_14h10.16.310	001-EEG_SVR_Officel	2022.2.5	143.8298435188121		5.402000000000044	1_sub-pilot041_SVR_EEG_block3-4.protocol.csv	step9	1520	151.254	STIMULATE	45.6	45.5	45.5	45.5	45.6	9	1000.375
994.494	0	497247	CN/Lo	11	2	0	2	0	3.0	0.0	3.0	0.0						1091.919984999986	1097.326847999997	1097.326847999997	5.0	['5', 'return']	[2.168274099996779, 2.728301700029988]	5.4	5.9	3.0	controle	low_pain	45.6			sub-041	250	41	45.6	46.9	COM11	COM15	COM3	2024-06-17_14h10.16.310	001-EEG_SVR_Officel	2022.2.5	143.8298435188121		5.898000000000025	1_sub-pilot041_SVR_EEG_block3-4.protocol.csv	step9	1520	151.254	STIMULATE	45.6	45.5	45.5	45.5	45.6	9	1000.375
1003.592	0	501796	wait	20	2	0	2	0	4.0	0.0	4.0	0.0						1113.06834290002	1118.5175825000042	1118.5175825000042	6.0	['6', 'return']	[2.25796660000924, 3.2186343999928795]	5.44	5.2	0.0	20hz	high_pain	46.9			sub-041	250	41	45.6	46.9	COM11	COM15	COM3	2024-06-17_14h10.16.310	001-EEG_SVR_Officel	2022.2.5	143.8298435188121		9.847999999999956	1_sub-pilot041_SVR_EEG_block3-4.protocol.csv	step11	1727	171.706	STIMULATE	46.9	46.9	46.9	46.9	46.9	11	1020.827
1009.036	0	504518	20hz	6	2	0	2	0	4.0	0.0	4.0	0.0						1113.06834290002	1118.5175825000042	1118.5175825000042	6.0	['6', 'return']	[2.25796660000924, 3.2186343999928795]	5.44	5.2	0.0	20hz	high_pain	46.9			sub-041	250	41	45.6	46.9	COM11	COM15	COM3	2024-06-17_14h10.16.310	001-EEG_SVR_Officel	2022.2.5	143.8298435188121		5.44399999999996	1_sub-pilot041_SVR_EEG_block3-4.protocol.csv	step11	1727	171.706	STIMULATE	46.9	46.9	46.9	46.9	46.9	11	1020.827
1014.984	0	507492	20/Hi	4	2	0	2	0	4.0	0.0	4.0	0.0						1113.06834290002	1118.5175825000042	1118.5175825000042	6.0	['6', 'return']	[2.25796660000924, 3.2186343999928795]	5.44	5.2	0.0	20hz	high_pain	46.9			sub-041	250	41	45.6	46.9	COM11	COM15	COM3	2024-06-17_14h10.16.310	001-EEG_SVR_Officel	2022.2.5	143.8298435188121		5.198000000000093	1_sub-pilot041_SVR_EEG_block3-4.protocol.csv	step11	1727	171.706	STIMULATE	46.9	46.9	46.9	46.9	46.9	11	1020.827
1025.276	0	512638	wait	20	2	0	2	0	5.0	0.0	5.0	0.0						1134.751522400009	1141.2694227999891	1141.2694227999891	4.0	['4', 'return']	[2.1465116000035778, 2.8189448000048287]	6.51	5.78	1.0	10hz	low_pain	45.6			sub-041	250	41	45.6	46.9	COM11	COM15	COM3	2024-06-17_14h10.16.310	001-EEG_SVR_Officel	2022.2.5	143.8298435188121		11.04200000000003	1_sub-pilot041_SVR_EEG_block3-4.protocol.csv	step13	1962	195.072	STIMULATE	45.6	45.5	45.6	45.6	45.6	13	1044.193
1031.788	0	515894	10hz	3	2	0	2	0	5.0	0.0	5.0	0.0						1134.751522400009	1141.2694227999891	1141.2694227999891	4.0	['4', 'return']	[2.1465116000035778, 2.8189448000048287]	6.51	5.78	1.0	10hz	low_pain	45.6			sub-041	250	41	45.6	46.9	COM11	COM15	COM3	2024-06-17_14h10.16.310	001-EEG_SVR_Officel	2022.2.5	143.8298435188121		6.511999999999944	1_sub-pilot041_SVR_EEG_block3-4.protocol.csv	step13	1962	195.072	STIMULATE	45.6	45.5	45.6	45.6	45.6	13	1044.193
1038.314	0	519157	10/Lo	2	2	0	2	0	5.0	0.0	5.0	0.0						1134.751522400009	1141.2694227999891	1141.2694227999891	4.0	['4', 'return']	[2.1465116000035778, 2.8189448000048287]	6.51	5.78	1.0	10hz	low_pain	45.6			sub-041	250	41	45.6	46.9	COM11	COM15	COM3	2024-06-17_14h10.16.310	001-EEG_SVR_Officel	2022.2.5	143.8298435188121		5.776000000000067	1_sub-pilot041_SVR_EEG_block3-4.protocol.csv	step13	1962	195.072	STIMULATE	45.6	45.5	45.6	45.6	45.6	13	1044.193
1047.626	0	523813	wait	20	2	0	2	0	6.0	0.0	6.0	0.0						1157.1012948999996	1163.2636657999828	1163.2636657999828	3.0	['3', 'return']	[2.2549829999916255, 3.0943192999693565]	6.16	5.0	2.0	20hz	low_pain	45.6			sub-041	250	41	45.6	46.9	COM11	COM15	COM3	2024-06-17_14h10.16.310	001-EEG_SVR_Officel	2022.2.5	143.8298435188121		10.061999999999898	1_sub-pilot041_SVR_EEG_block3-4.protocol.csv	step15	2176	216.284	STIMULATE	45.6	45.5	45.5	45.6	45.6	15	1065.405
1053.784	0	526892	20hz	6	2	0	2	0	6.0	0.0	6.0	0.0						1157.1012948999996	1163.2636657999828	1163.2636657999828	3.0	['3', 'return']	[2.2549829999916255, 3.0943192999693565]	6.16	5.0	2.0	20hz	low_pain	45.6			sub-041	250	41	45.6	46.9	COM11	COM15	COM3	2024-06-17_14h10.16.310	001-EEG_SVR_Officel	2022.2.5	143.8298435188121		6.158000000000129	1_sub-pilot041_SVR_EEG_block3-4.protocol.csv	step15	2176	216.284	STIMULATE	45.6	45.5	45.5	45.6	45.6	15	1065.405
1059.53	0	529765	20/Lo	5	2	0	2	0	6.0	0.0	6.0	0.0						1157.1012948999996	1163.2636657999828	1163.2636657999828	3.0	['3', 'return']	[2.2549829999916255, 3.0943192999693565]	6.16	5.0	2.0	20hz	low_pain	45.6			sub-041	250	41	45.6	46.9	COM11	COM15	COM3	2024-06-17_14h10.16.310	001-EEG_SVR_Officel	2022.2.5	143.8298435188121		4.995999999999867	1_sub-pilot041_SVR_EEG_block3-4.protocol.csv	step15	2176	216.284	STIMULATE	45.6	45.5	45.5	45.6	45.6	15	1065.405
1069.898	0	534949	wait	20	2	0	2	0	7.0	0.0	7.0	0.0						1179.3745733000103	1187.1194176999852	1187.1194176999852	6.5	['6', 'a', '5', 'return']	[2.3256660000188276, 2.598020000034012, 2.9416688000201248, 3.8865542000276037]	7.74	5.09	3.0	40hz	high_pain	46.9			sub-041	250	41	45.6	46.9	COM11	COM15	COM3	2024-06-17_14h10.16.310	001-EEG_SVR_Officel	2022.2.5	143.8298435188121		11.117999999999938	1_sub-pilot041_SVR_EEG_block3-4.protocol.csv	step17	2417	240.107	STIMULATE	46.9	46.9	46.9	46.9	46.9	17	1089.228
1077.638	0	538819	40hz	9	2	0	2	0	7.0	0.0	7.0	0.0						1179.3745733000103	1187.1194176999852	1187.1194176999852	6.5	['6', 'a', '5', 'return']	[2.3256660000188276, 2.598020000034012, 2.9416688000201248, 3.8865542000276037]	7.74	5.09	3.0	40hz	high_pain	46.9			sub-041	250	41	45.6	46.9	COM11	COM15	COM3	2024-06-17_14h10.16.310	001-EEG_SVR_Officel	2022.2.5	143.8298435188121		7.740000000000009	1_sub-pilot041_SVR_EEG_block3-4.protocol.csv	step17	2417	240.107	STIMULATE	46.9	46.9	46.9	46.9	46.9	17	1089.228
1083.476	0	541738	40/Hi	7	2	0	2	0	7.0	0.0	7.0	0.0						1179.3745733000103	1187.1194176999852	1187.1194176999852	6.5	['6', 'a', '5', 'return']	[2.3256660000188276, 2.598020000034012, 2.9416688000201248, 3.8865542000276037]	7.74	5.09	3.0	40hz	high_pain	46.9			sub-041	250	41	45.6	46.9	COM11	COM15	COM3	2024-06-17_14h10.16.310	001-EEG_SVR_Officel	2022.2.5	143.8298435188121		5.088000000000193	1_sub-pilot041_SVR_EEG_block3-4.protocol.csv	step17	2417	240.107	STIMULATE	46.9	46.9	46.9	46.9	46.9	17	1089.228
1094.548	0	547274	wait	20	2	0	2	0	8.0	0.0	8.0	0.0						1204.024139599991	1210.9539166000322	1210.9539166000322	4.0	['4', 'return']	[2.1196957000065595, 2.7277879000175744]	6.92	6.19	0.0	controle	low_pain	45.6			sub-041	250	41	45.6	46.9	COM11	COM15	COM3	2024-06-17_14h10.16.310	001-EEG_SVR_Officel	2022.2.5	143.8298435188121		11.821999999999889	1_sub-pilot041_SVR_EEG_block3-4.protocol.csv	step19	2669	265.176	STIMULATE	45.6	45.5	45.5	45.6	45.6	19	1114.297
1101.47	0	550735	CNhz	12	2	0	2	0	8.0	0.0	8.0	0.0						1204.024139599991	1210.9539166000322	1210.9539166000322	4.0	['4', 'return']	[2.1196957000065595, 2.7277879000175744]	6.92	6.19	0.0	controle	low_pain	45.6			sub-041	250	41	45.6	46.9	COM11	COM15	COM3	2024-06-17_14h10.16.310	001-EEG_SVR_Officel	2022.2.5	143.8298435188121		6.9220000000000255	1_sub-pilot041_SVR_EEG_block3-4.protocol.csv	step19	2669	265.176	STIMULATE	45.6	45.5	45.5	45.6	45.6	19	1114.297
1108.41	0	554205	CN/Lo	11	2	0	2	0	8.0	0.0	8.0	0.0						1204.024139599991	1210.9539166000322	1210.9539166000322	4.0	['4', 'return']	[2.1196957000065595, 2.7277879000175744]	6.92	6.19	0.0	controle	low_pain	45.6			sub-041	250	41	45.6	46.9	COM11	COM15	COM3	2024-06-17_14h10.16.310	001-EEG_SVR_Officel	2022.2.5	143.8298435188121		6.190000000000055	1_sub-pilot041_SVR_EEG_block3-4.protocol.csv	step19	2669	265.176	STIMULATE	45.6	45.5	45.5	45.6	45.6	19	1114.297
1117.22	0	558610	wait	20	2	0	2	0	9.0	0.0	9.0	0.0						1226.6971268000198	1232.3486074000248	1232.3486074000248	6.0	['6', 'return']	[3.5774420000379905, 4.857609099999536]	5.65	5.21	1.0	controle	high_pain	46.9			sub-041	250	41	45.6	46.9	COM11	COM15	COM3	2024-06-17_14h10.16.310	001-EEG_SVR_Officel	2022.2.5	143.8298435188121		9.559999999999945	1_sub-pilot041_SVR_EEG_block3-4.protocol.csv	step21	2876	285.654	STIMULATE	46.9	46.9	46.9	46.9	46.8	21	1134.775
1122.866	0	561433	CNhz	12	2	0	2	0	9.0	0.0	9.0	0.0						1226.6971268000198	1232.3486074000248	1232.3486074000248	6.0	['6', 'return']	[3.5774420000379905, 4.857609099999536]	5.65	5.21	1.0	controle	high_pain	46.9			sub-041	250	41	45.6	46.9	COM11	COM15	COM3	2024-06-17_14h10.16.310	001-EEG_SVR_Officel	2022.2.5	143.8298435188121		5.645999999999958	1_sub-pilot041_SVR_EEG_block3-4.protocol.csv	step21	2876	285.654	STIMULATE	46.9	46.9	46.9	46.9	46.8	21	1134.775
1128.828	0	564414	CN/Hi	10	2	0	2	0	9.0	0.0	9.0	0.0						1226.6971268000198	1232.3486074000248	1232.3486074000248	6.0	['6', 'return']	[3.5774420000379905, 4.857609099999536]	5.65	5.21	1.0	controle	high_pain	46.9			sub-041	250	41	45.6	46.9	COM11	COM15	COM3	2024-06-17_14h10.16.310	001-EEG_SVR_Officel	2022.2.5	143.8298435188121		5.211999999999989	1_sub-pilot041_SVR_EEG_block3-4.protocol.csv	step21	2876	285.654	STIMULATE	46.9	46.9	46.9	46.9	46.8	21	1134.775
1140.746	0	570373	wait	20	2	0	2	0	10.0	0.0	10.0	0.0						1250.2234471000263	1257.4284483999943	1257.4284483999943	5.0	['5', 'return']	[2.7075314999674447, 3.331810600007884]	7.2	5.1	2.0	10hz	low_pain	45.6			sub-041	250	41	45.6	46.9	COM11	COM15	COM3	2024-06-17_14h10.16.310	001-EEG_SVR_Officel	2022.2.5	143.8298435188121		12.66800000000012	1_sub-pilot041_SVR_EEG_block3-4.protocol.csv	step23	3127	310.576	STIMULATE	45.6	45.5	45.5	45.6	45.6	23	1159.6970000000001
1147.946	0	573973	10hz	3	2	0	2	0	10.0	0.0	10.0	0.0						1250.2234471000263	1257.4284483999943	1257.4284483999943	5.0	['5', 'return']	[2.7075314999674447, 3.331810600007884]	7.2	5.1	2.0	10hz	low_pain	45.6			sub-041	250	41	45.6	46.9	COM11	COM15	COM3	2024-06-17_14h10.16.310	001-EEG_SVR_Officel	2022.2.5	143.8298435188121		7.199999999999818	1_sub-pilot041_SVR_EEG_block3-4.protocol.csv	step23	3127	310.576	STIMULATE	45.6	45.5	45.5	45.6	45.6	23	1159.6970000000001
1153.798	0	576899	10/Lo	2	2	0	2	0	10.0	0.0	10.0	0.0						1250.2234471000263	1257.4284483999943	1257.4284483999943	5.0	['5', 'return']	[2.7075314999674447, 3.331810600007884]	7.2	5.1	2.0	10hz	low_pain	45.6			sub-041	250	41	45.6	46.9	COM11	COM15	COM3	2024-06-17_14h10.16.310	001-EEG_SVR_Officel	2022.2.5	143.8298435188121		5.102000000000089	1_sub-pilot041_SVR_EEG_block3-4.protocol.csv	step23	3127	310.576	STIMULATE	45.6	45.5	45.5	45.6	45.6	23	1159.6970000000001
1164.298	0	582149	wait	20	2	0	2	0	11.0	0.0	11.0	0.0						1273.7747484000283	1280.9806079000118	1280.9806079000118	4.5	['4', 'a', '5', 'return']	[2.403523300017696, 2.7154721000115387, 2.922957700036932, 3.8992766000446863]	7.2	5.76	3.0	40hz	low_pain	45.6			sub-041	250	41	45.6	46.9	COM11	COM15	COM3	2024-06-17_14h10.16.310	001-EEG_SVR_Officel	2022.2.5	143.8298435188121		11.25	1_sub-pilot041_SVR_EEG_block3-4.protocol.csv	step25	3371	334.766	STIMULATE	45.6	45.5	45.6	45.6	45.6	25	1183.8870000000002
1171.498	0	585749	40hz	9	2	0	2	0	11.0	0.0	11.0	0.0						1273.7747484000283	1280.9806079000118	1280.9806079000118	4.5	['4', 'a', '5', 'return']	[2.403523300017696, 2.7154721000115387, 2.922957700036932, 3.8992766000446863]	7.2	5.76	3.0	40hz	low_pain	45.6			sub-041	250	41	45.6	46.9	COM11	COM15	COM3	2024-06-17_14h10.16.310	001-EEG_SVR_Officel	2022.2.5	143.8298435188121		7.2000000000000455	1_sub-pilot041_SVR_EEG_block3-4.protocol.csv	step25	3371	334.766	STIMULATE	45.6	45.5	45.6	45.6	45.6	25	1183.8870000000002
1178.008	0	589004	40/Lo	8	2	0	2	0	11.0	0.0	11.0	0.0						1273.7747484000283	1280.9806079000118	1280.9806079000118	4.5	['4', 'a', '5', 'return']	[2.403523300017696, 2.7154721000115387, 2.922957700036932, 3.8992766000446863]	7.2	5.76	3.0	40hz	low_pain	45.6			sub-041	250	41	45.6	46.9	COM11	COM15	COM3	2024-06-17_14h10.16.310	001-EEG_SVR_Officel	2022.2.5	143.8298435188121		5.759999999999991	1_sub-pilot041_SVR_EEG_block3-4.protocol.csv	step25	3371	334.766	STIMULATE	45.6	45.5	45.6	45.6	45.6	25	1183.8870000000002
1188.42	0	594210	wait	20	2	0	2	0	12.0	0.0	12.0	0.0						1297.8955930999946	1303.8917227999773	1303.8917227999773	5.5	['5', 'a', '5', 'return']	[2.6368585000163876, 2.835812800040003, 3.0120050000259653, 3.6846078000380658]	5.95	5.46	0.0	controle	high_pain	46.9			sub-041	250	41	45.6	46.9	COM11	COM15	COM3	2024-06-17_14h10.16.310	001-EEG_SVR_Officel	2022.2.5	143.8298435188121		11.162000000000035	1_sub-pilot041_SVR_EEG_block3-4.protocol.csv	step27	3599	357.326	STIMULATE	46.9	46.8	46.9	46.9	46.9	27	1206.4470000000001
1194.37	0	597185	CNhz	12	2	0	2	0	12.0	0.0	12.0	0.0						1297.8955930999946	1303.8917227999773	1303.8917227999773	5.5	['5', 'a', '5', 'return']	[2.6368585000163876, 2.835812800040003, 3.0120050000259653, 3.6846078000380658]	5.95	5.46	0.0	controle	high_pain	46.9			sub-041	250	41	45.6	46.9	COM11	COM15	COM3	2024-06-17_14h10.16.310	001-EEG_SVR_Officel	2022.2.5	143.8298435188121		5.949999999999818	1_sub-pilot041_SVR_EEG_block3-4.protocol.csv	step27	3599	357.326	STIMULATE	46.9	46.8	46.9	46.9	46.9	27	1206.4470000000001
1200.58	0	600290	CN/Hi	10	2	0	2	0	12.0	0.0	12.0	0.0						1297.8955930999946	1303.8917227999773	1303.8917227999773	5.5	['5', 'a', '5', 'return']	[2.6368585000163876, 2.835812800040003, 3.0120050000259653, 3.6846078000380658]	5.95	5.46	0.0	controle	high_pain	46.9			sub-041	250	41	45.6	46.9	COM11	COM15	COM3	2024-06-17_14h10.16.310	001-EEG_SVR_Officel	2022.2.5	143.8298435188121		5.460000000000036	1_sub-pilot041_SVR_EEG_block3-4.protocol.csv	step27	3599	357.326	STIMULATE	46.9	46.8	46.9	46.9	46.9	27	1206.4470000000001
1211.074	0	605537	wait	20	2	0	2	0	13.0	0.0	13.0	0.0						1320.5510556999943	1327.4425019000191	1327.4425019000191	5.0	['5', 'return']	[2.3717409999808297, 3.003213499963749]	6.89	6.43	1.0	20hz	high_pain	46.9			sub-041	250	41	45.6	46.9	COM11	COM15	COM3	2024-06-17_14h10.16.310	001-EEG_SVR_Officel	2022.2.5	143.8298435188121		11.244000000000142	1_sub-pilot041_SVR_EEG_block3-4.protocol.csv	step29	3846	381.824	STIMULATE	46.9	46.9	46.9	46.9	46.9	29	1230.9450000000002
1217.962	0	608981	20hz	6	2	0	2	0	13.0	0.0	13.0	0.0						1320.5510556999943	1327.4425019000191	1327.4425019000191	5.0	['5', 'return']	[2.3717409999808297, 3.003213499963749]	6.89	6.43	1.0	20hz	high_pain	46.9			sub-041	250	41	45.6	46.9	COM11	COM15	COM3	2024-06-17_14h10.16.310	001-EEG_SVR_Officel	2022.2.5	143.8298435188121		6.88799999999992	1_sub-pilot041_SVR_EEG_block3-4.protocol.csv	step29	3846	381.824	STIMULATE	46.9	46.9	46.9	46.9	46.9	29	1230.9450000000002
1225.138	0	612569	20/Hi	4	2	0	2	0	13.0	0.0	13.0	0.0						1320.5510556999943	1327.4425019000191	1327.4425019000191	5.0	['5', 'return']	[2.3717409999808297, 3.003213499963749]	6.89	6.43	1.0	20hz	high_pain	46.9			sub-041	250	41	45.6	46.9	COM11	COM15	COM3	2024-06-17_14h10.16.310	001-EEG_SVR_Officel	2022.2.5	143.8298435188121		6.425999999999931	1_sub-pilot041_SVR_EEG_block3-4.protocol.csv	step29	3846	381.824	STIMULATE	46.9	46.9	46.9	46.9	46.9	29	1230.9450000000002
1233.986	0	616993	wait	20	2	0	2	0	14.0	0.0	14.0	0.0						1343.463521400001	1350.2107991999949	1350.2107991999949	4.5	['4', 'a', '5', 'return']	[2.901265799999237, 3.1405804000096396, 3.324497799971141, 4.06093699997291]	6.74	6.29	2.0	controle	low_pain	45.6			sub-041	250	41	45.6	46.9	COM11	COM15	COM3	2024-06-17_14h10.16.310	001-EEG_SVR_Officel	2022.2.5	143.8298435188121		9.598000000000184	1_sub-pilot041_SVR_EEG_block3-4.protocol.csv	step31	4075	404.545	STIMULATE	45.6	45.5	45.5	45.6	45.6	31	1253.6660000000002
1240.728	0	620364	CNhz	12	2	0	2	0	14.0	0.0	14.0	0.0						1343.463521400001	1350.2107991999949	1350.2107991999949	4.5	['4', 'a', '5', 'return']	[2.901265799999237, 3.1405804000096396, 3.324497799971141, 4.06093699997291]	6.74	6.29	2.0	controle	low_pain	45.6			sub-041	250	41	45.6	46.9	COM11	COM15	COM3	2024-06-17_14h10.16.310	001-EEG_SVR_Officel	2022.2.5	143.8298435188121		6.741999999999962	1_sub-pilot041_SVR_EEG_block3-4.protocol.csv	step31	4075	404.545	STIMULATE	45.6	45.5	45.5	45.6	45.6	31	1253.6660000000002
1247.766	0	623883	CN/Lo	11	2	0	2	0	14.0	0.0	14.0	0.0						1343.463521400001	1350.2107991999949	1350.2107991999949	4.5	['4', 'a', '5', 'return']	[2.901265799999237, 3.1405804000096396, 3.324497799971141, 4.06093699997291]	6.74	6.29	2.0	controle	low_pain	45.6			sub-041	250	41	45.6	46.9	COM11	COM15	COM3	2024-06-17_14h10.16.310	001-EEG_SVR_Officel	2022.2.5	143.8298435188121		6.288000000000011	1_sub-pilot041_SVR_EEG_block3-4.protocol.csv	step31	4075	404.545	STIMULATE	45.6	45.5	45.5	45.6	45.6	31	1253.6660000000002
1257.81	0	628905	wait	20	2	0	2	0	15.0	0.0	15.0	0.0						1367.286106000014	1372.648619299987	1372.648619299987	6.0	['6', 'return']	[2.2372991000302136, 2.7580980000202544]	5.36	6.05	3.0	10hz	high_pain	46.9			sub-041	250	41	45.6	46.9	COM11	COM15	COM3	2024-06-17_14h10.16.310	001-EEG_SVR_Officel	2022.2.5	143.8298435188121		10.793999999999869	1_sub-pilot041_SVR_EEG_block3-4.protocol.csv	step33	4298	426.618	STIMULATE	46.9	46.8	46.9	46.9	46.9	33	1275.739
1263.166	0	631583	10hz	3	2	0	2	0	15.0	0.0	15.0	0.0						1367.286106000014	1372.648619299987	1372.648619299987	6.0	['6', 'return']	[2.2372991000302136, 2.7580980000202544]	5.36	6.05	3.0	10hz	high_pain	46.9			sub-041	250	41	45.6	46.9	COM11	COM15	COM3	2024-06-17_14h10.16.310	001-EEG_SVR_Officel	2022.2.5	143.8298435188121		5.3559999999999945	1_sub-pilot041_SVR_EEG_block3-4.protocol.csv	step33	4298	426.618	STIMULATE	46.9	46.8	46.9	46.9	46.9	33	1275.739
1269.97	0	634985	10/Hi	1	2	0	2	0	15.0	0.0	15.0	0.0						1367.286106000014	1372.648619299987	1372.648619299987	6.0	['6', 'return']	[2.2372991000302136, 2.7580980000202544]	5.36	6.05	3.0	10hz	high_pain	46.9			sub-041	250	41	45.6	46.9	COM11	COM15	COM3	2024-06-17_14h10.16.310	001-EEG_SVR_Officel	2022.2.5	143.8298435188121		6.054000000000087	1_sub-pilot041_SVR_EEG_block3-4.protocol.csv	step33	4298	426.618	STIMULATE	46.9	46.8	46.9	46.9	46.9	33	1275.739
1337.2	0	668600	wait	20	3	0	3	0	0.0	0.0	0.0	0.0				p	0.5485926999826916	1446.6769357000012	1452.0838370000129	1452.0838370000129	3.0	['3', 'return']	[1.9783155000186525, 2.6421777000068687]	5.4	6.14	0.0	20hz	low_pain	45.6			sub-041	250	41	45.6	46.9	COM11	COM15	COM3	2024-06-17_14h10.16.310	001-EEG_SVR_Officel	2022.2.5	143.8298435188121		67.98000000000002	1_sub-pilot041_SVR_EEG_block3-4.protocol.csv	step35	5096	506.271	STIMULATE	45.7	45.5	45.5	45.6	45.6	35	1355.339
1342.6	0	671300	20hz	6	3	0	3	0	0.0	0.0	0.0	0.0				p	0.5485926999826916	1446.6769357000012	1452.0838370000129	1452.0838370000129	3.0	['3', 'return']	[1.9783155000186525, 2.6421777000068687]	5.4	6.14	0.0	20hz	low_pain	45.6			sub-041	250	41	45.6	46.9	COM11	COM15	COM3	2024-06-17_14h10.16.310	001-EEG_SVR_Officel	2022.2.5	143.8298435188121		5.399999999999864	1_sub-pilot041_SVR_EEG_block3-4.protocol.csv	step35	5096	506.271	STIMULATE	45.7	45.5	45.5	45.6	45.6	35	1355.339
1349.492	0	674746	20/Lo	5	3	0	3	0	0.0	0.0	0.0	0.0				p	0.5485926999826916	1446.6769357000012	1452.0838370000129	1452.0838370000129	3.0	['3', 'return']	[1.9783155000186525, 2.6421777000068687]	5.4	6.14	0.0	20hz	low_pain	45.6			sub-041	250	41	45.6	46.9	COM11	COM15	COM3	2024-06-17_14h10.16.310	001-EEG_SVR_Officel	2022.2.5	143.8298435188121		6.142000000000053	1_sub-pilot041_SVR_EEG_block3-4.protocol.csv	step35	5096	506.271	STIMULATE	45.7	45.5	45.5	45.6	45.6	35	1355.339
1358.264	0	679132	wait	20	3	0	3	0	1.0	0.0	1.0	0.0						1467.741926799994	1474.4249035000105	1474.4249035000105	3.0	['3', 'return']	[1.9955179000389762, 2.650464300008025]	6.68	5.75	1.0	20hz	low_pain	45.6			sub-041	250	41	45.6	46.9	COM11	COM15	COM3	2024-06-17_14h10.16.310	001-EEG_SVR_Officel	2022.2.5	143.8298435188121		9.521999999999935	1_sub-pilot041_SVR_EEG_block3-4.protocol.csv	step37	5317	528.188	STIMULATE	45.8	45.5	45.5	45.6	45.6	37	1377.2559999999999
1364.942	0	682471	20hz	6	3	0	3	0	1.0	0.0	1.0	0.0						1467.741926799994	1474.4249035000105	1474.4249035000105	3.0	['3', 'return']	[1.9955179000389762, 2.650464300008025]	6.68	5.75	1.0	20hz	low_pain	45.6			sub-041	250	41	45.6	46.9	COM11	COM15	COM3	2024-06-17_14h10.16.310	001-EEG_SVR_Officel	2022.2.5	143.8298435188121		6.678000000000111	1_sub-pilot041_SVR_EEG_block3-4.protocol.csv	step37	5317	528.188	STIMULATE	45.8	45.5	45.5	45.6	45.6	37	1377.2559999999999
1371.44	0	685720	20/Lo	5	3	0	3	0	1.0	0.0	1.0	0.0						1467.741926799994	1474.4249035000105	1474.4249035000105	3.0	['3', 'return']	[1.9955179000389762, 2.650464300008025]	6.68	5.75	1.0	20hz	low_pain	45.6			sub-041	250	41	45.6	46.9	COM11	COM15	COM3	2024-06-17_14h10.16.310	001-EEG_SVR_Officel	2022.2.5	143.8298435188121		5.748000000000047	1_sub-pilot041_SVR_EEG_block3-4.protocol.csv	step37	5317	528.188	STIMULATE	45.8	45.5	45.5	45.6	45.6	37	1377.2559999999999
1380.614	0	690307	wait	20	3	0	3	0	2.0	0.0	2.0	0.0						1490.091756800015	1497.3864068000112	1497.3864068000112	6.0	['6', 'return']	[2.1551970999571495, 2.724316399951931]	7.29	5.74	2.0	10hz	high_pain	46.9			sub-041	250	41	45.6	46.9	COM11	COM15	COM3	2024-06-17_14h10.16.310	001-EEG_SVR_Officel	2022.2.5	143.8298435188121		9.923999999999978	1_sub-pilot041_SVR_EEG_block3-4.protocol.csv	step39	5550	551.246	STIMULATE	47.0	46.9	46.8	46.9	46.9	39	1400.3139999999999
1387.904	0	693952	10hz	3	3	0	3	0	2.0	0.0	2.0	0.0						1490.091756800015	1497.3864068000112	1497.3864068000112	6.0	['6', 'return']	[2.1551970999571495, 2.724316399951931]	7.29	5.74	2.0	10hz	high_pain	46.9			sub-041	250	41	45.6	46.9	COM11	COM15	COM3	2024-06-17_14h10.16.310	001-EEG_SVR_Officel	2022.2.5	143.8298435188121		7.289999999999964	1_sub-pilot041_SVR_EEG_block3-4.protocol.csv	step39	5550	551.246	STIMULATE	47.0	46.9	46.8	46.9	46.9	39	1400.3139999999999
1394.392	0	697196	10/Hi	1	3	0	3	0	2.0	0.0	2.0	0.0						1490.091756800015	1497.3864068000112	1497.3864068000112	6.0	['6', 'return']	[2.1551970999571495, 2.724316399951931]	7.29	5.74	2.0	10hz	high_pain	46.9			sub-041	250	41	45.6	46.9	COM11	COM15	COM3	2024-06-17_14h10.16.310	001-EEG_SVR_Officel	2022.2.5	143.8298435188121		5.738000000000056	1_sub-pilot041_SVR_EEG_block3-4.protocol.csv	step39	5550	551.246	STIMULATE	47.0	46.9	46.8	46.9	46.9	39	1400.3139999999999
1403.652	0	701826	wait	20	3	0	3	0	3.0	0.0	3.0	0.0						1513.1292465000297	1518.2579151000243	1518.2579151000243	6.0	['6', 'return']	[2.7249453999684192, 3.3256511999643408]	5.12	5.47	3.0	controle	high_pain	46.9			sub-041	250	41	45.6	46.9	COM11	COM15	COM3	2024-06-17_14h10.16.310	001-EEG_SVR_Officel	2022.2.5	143.8298435188121		10.009999999999991	1_sub-pilot041_SVR_EEG_block3-4.protocol.csv	step41	5757	571.782	STIMULATE	46.9	46.8	46.9	46.9	46.8	41	1420.85
1408.774	0	704387	CNhz	12	3	0	3	0	3.0	0.0	3.0	0.0						1513.1292465000297	1518.2579151000243	1518.2579151000243	6.0	['6', 'return']	[2.7249453999684192, 3.3256511999643408]	5.12	5.47	3.0	controle	high_pain	46.9			sub-041	250	41	45.6	46.9	COM11	COM15	COM3	2024-06-17_14h10.16.310	001-EEG_SVR_Officel	2022.2.5	143.8298435188121		5.121999999999844	1_sub-pilot041_SVR_EEG_block3-4.protocol.csv	step41	5757	571.782	STIMULATE	46.9	46.8	46.9	46.9	46.8	41	1420.85
1414.992	0	707496	CN/Hi	10	3	0	3	0	3.0	0.0	3.0	0.0						1513.1292465000297	1518.2579151000243	1518.2579151000243	6.0	['6', 'return']	[2.7249453999684192, 3.3256511999643408]	5.12	5.47	3.0	controle	high_pain	46.9			sub-041	250	41	45.6	46.9	COM11	COM15	COM3	2024-06-17_14h10.16.310	001-EEG_SVR_Officel	2022.2.5	143.8298435188121		5.468000000000075	1_sub-pilot041_SVR_EEG_block3-4.protocol.csv	step41	5757	571.782	STIMULATE	46.9	46.8	46.9	46.9	46.8	41	1420.85
1425.118	0	712559	wait	20	3	0	3	0	4.0	0.0	4.0	0.0						1534.5970237000147	1539.8991145000327	1539.8991145000327	3.5	['3', 'a', '5', 'return']	[2.316256499965675, 2.5956766000017524, 2.8276665000012144, 3.4916441999957897]	5.3	6.46	0.0	40hz	low_pain	45.6			sub-041	250	41	45.6	46.9	COM11	COM15	COM3	2024-06-17_14h10.16.310	001-EEG_SVR_Officel	2022.2.5	143.8298435188121		10.875999999999976	1_sub-pilot041_SVR_EEG_block3-4.protocol.csv	step43	5985	594.415	STIMULATE	45.6	45.5	45.5	45.6	45.6	43	1443.483
1430.414	0	715207	40hz	9	3	0	3	0	4.0	0.0	4.0	0.0						1534.5970237000147	1539.8991145000327	1539.8991145000327	3.5	['3', 'a', '5', 'return']	[2.316256499965675, 2.5956766000017524, 2.8276665000012144, 3.4916441999957897]	5.3	6.46	0.0	40hz	low_pain	45.6			sub-041	250	41	45.6	46.9	COM11	COM15	COM3	2024-06-17_14h10.16.310	001-EEG_SVR_Officel	2022.2.5	143.8298435188121		5.296000000000049	1_sub-pilot041_SVR_EEG_block3-4.protocol.csv	step43	5985	594.415	STIMULATE	45.6	45.5	45.5	45.6	45.6	43	1443.483
1437.626	0	718813	40/Lo	8	3	0	3	0	4.0	0.0	4.0	0.0						1534.5970237000147	1539.8991145000327	1539.8991145000327	3.5	['3', 'a', '5', 'return']	[2.316256499965675, 2.5956766000017524, 2.8276665000012144, 3.4916441999957897]	5.3	6.46	0.0	40hz	low_pain	45.6			sub-041	250	41	45.6	46.9	COM11	COM15	COM3	2024-06-17_14h10.16.310	001-EEG_SVR_Officel	2022.2.5	143.8298435188121		6.461999999999989	1_sub-pilot041_SVR_EEG_block3-4.protocol.csv	step43	5985	594.415	STIMULATE	45.6	45.5	45.5	45.6	45.6	43	1443.483
1446.928	0	723464	wait	20	3	0	3	0	5.0	0.0	5.0	0.0						1556.4051253999933	1562.1730541000145	1562.1730541000145	2.0	['2', 'return']	[2.753919099981431, 3.354394699970726]	5.76	5.79	1.0	controle	low_pain	45.6			sub-041	250	41	45.6	46.9	COM11	COM15	COM3	2024-06-17_14h10.16.310	001-EEG_SVR_Officel	2022.2.5	143.8298435188121		10.052000000000135	1_sub-pilot041_SVR_EEG_block3-4.protocol.csv	step45	6205	616.111	STIMULATE	45.5	45.5	45.6	45.6	45.5	45	1465.179
1452.69	0	726345	CNhz	12	3	0	3	0	5.0	0.0	5.0	0.0						1556.4051253999933	1562.1730541000145	1562.1730541000145	2.0	['2', 'return']	[2.753919099981431, 3.354394699970726]	5.76	5.79	1.0	controle	low_pain	45.6			sub-041	250	41	45.6	46.9	COM11	COM15	COM3	2024-06-17_14h10.16.310	001-EEG_SVR_Officel	2022.2.5	143.8298435188121		5.761999999999944	1_sub-pilot041_SVR_EEG_block3-4.protocol.csv	step45	6205	616.111	STIMULATE	45.5	45.5	45.6	45.6	45.5	45	1465.179
1459.228	0	729614	CN/Lo	11	3	0	3	0	5.0	0.0	5.0	0.0						1556.4051253999933	1562.1730541000145	1562.1730541000145	2.0	['2', 'return']	[2.753919099981431, 3.354394699970726]	5.76	5.79	1.0	controle	low_pain	45.6			sub-041	250	41	45.6	46.9	COM11	COM15	COM3	2024-06-17_14h10.16.310	001-EEG_SVR_Officel	2022.2.5	143.8298435188121		5.788000000000011	1_sub-pilot041_SVR_EEG_block3-4.protocol.csv	step45	6205	616.111	STIMULATE	45.5	45.5	45.6	45.6	45.5	45	1465.179
1469.064	0	734532	wait	20	3	0	3	0	6.0	0.0	6.0	0.0						1578.5427789000096	1585.0583403999915	1585.0583403999915	6.0	['6', 'return']	[2.1179462000145577, 2.5811037000385113]	6.51	5.27	2.0	controle	high_pain	46.9			sub-041	250	41	45.6	46.9	COM11	COM15	COM3	2024-06-17_14h10.16.310	001-EEG_SVR_Officel	2022.2.5	143.8298435188121		10.586000000000013	1_sub-pilot041_SVR_EEG_block3-4.protocol.csv	step47	6430	638.409	STIMULATE	47.0	46.9	46.9	46.9	46.9	47	1487.4769999999999
1475.574	0	737787	CNhz	12	3	0	3	0	6.0	0.0	6.0	0.0						1578.5427789000096	1585.0583403999915	1585.0583403999915	6.0	['6', 'return']	[2.1179462000145577, 2.5811037000385113]	6.51	5.27	2.0	controle	high_pain	46.9			sub-041	250	41	45.6	46.9	COM11	COM15	COM3	2024-06-17_14h10.16.310	001-EEG_SVR_Officel	2022.2.5	143.8298435188121		6.509999999999991	1_sub-pilot041_SVR_EEG_block3-4.protocol.csv	step47	6430	638.409	STIMULATE	47.0	46.9	46.9	46.9	46.9	47	1487.4769999999999
1481.59	0	740795	CN/Hi	10	3	0	3	0	6.0	0.0	6.0	0.0						1578.5427789000096	1585.0583403999915	1585.0583403999915	6.0	['6', 'return']	[2.1179462000145577, 2.5811037000385113]	6.51	5.27	2.0	controle	high_pain	46.9			sub-041	250	41	45.6	46.9	COM11	COM15	COM3	2024-06-17_14h10.16.310	001-EEG_SVR_Officel	2022.2.5	143.8298435188121		5.265999999999849	1_sub-pilot041_SVR_EEG_block3-4.protocol.csv	step47	6430	638.409	STIMULATE	47.0	46.9	46.9	46.9	46.9	47	1487.4769999999999
1491.178	0	745589	wait	20	3	0	3	0	7.0	0.0	7.0	0.0						1600.656491599977	1606.622814000002	1606.622814000002	4.0	['4', 'return']	[2.152483299956657, 2.728704300010577]	5.96	5.13	3.0	10hz	low_pain	45.6			sub-041	250	41	45.6	46.9	COM11	COM15	COM3	2024-06-17_14h10.16.310	001-EEG_SVR_Officel	2022.2.5	143.8298435188121		10.338000000000193	1_sub-pilot041_SVR_EEG_block3-4.protocol.csv	step49	6646	659.789	STIMULATE	45.6	45.5	45.5	45.6	45.6	49	1508.857
1497.14	0	748570	10hz	3	3	0	3	0	7.0	0.0	7.0	0.0						1600.656491599977	1606.622814000002	1606.622814000002	4.0	['4', 'return']	[2.152483299956657, 2.728704300010577]	5.96	5.13	3.0	10hz	low_pain	45.6			sub-041	250	41	45.6	46.9	COM11	COM15	COM3	2024-06-17_14h10.16.310	001-EEG_SVR_Officel	2022.2.5	143.8298435188121		5.961999999999989	1_sub-pilot041_SVR_EEG_block3-4.protocol.csv	step49	6646	659.789	STIMULATE	45.6	45.5	45.5	45.6	45.6	49	1508.857
1503.018	0	751509	10/Lo	2	3	0	3	0	7.0	0.0	7.0	0.0						1600.656491599977	1606.622814000002	1606.622814000002	4.0	['4', 'return']	[2.152483299956657, 2.728704300010577]	5.96	5.13	3.0	10hz	low_pain	45.6			sub-041	250	41	45.6	46.9	COM11	COM15	COM3	2024-06-17_14h10.16.310	001-EEG_SVR_Officel	2022.2.5	143.8298435188121		5.127999999999929	1_sub-pilot041_SVR_EEG_block3-4.protocol.csv	step49	6646	659.789	STIMULATE	45.6	45.5	45.5	45.6	45.6	49	1508.857
1512.886	0	756443	wait	20	3	0	3	0	8.0	0.0	8.0	0.0						1622.364240200026	1630.1793001000187	1630.1793001000187	5.5	['5', 'a', '5', 'return']	[2.441819699946791, 2.674477999971714, 2.8827186999842525, 4.361996399995405]	7.81	6.19	0.0	40hz	high_pain	46.9			sub-041	250	41	45.6	46.9	COM11	COM15	COM3	2024-06-17_14h10.16.310	001-EEG_SVR_Officel	2022.2.5	143.8298435188121		10.617999999999938	1_sub-pilot041_SVR_EEG_block3-4.protocol.csv	step51	6894	684.473	STIMULATE	46.9	46.9	46.9	46.9	46.9	51	1533.541
1520.696	0	760348	40hz	9	3	0	3	0	8.0	0.0	8.0	0.0						1622.364240200026	1630.1793001000187	1630.1793001000187	5.5	['5', 'a', '5', 'return']	[2.441819699946791, 2.674477999971714, 2.8827186999842525, 4.361996399995405]	7.81	6.19	0.0	40hz	high_pain	46.9			sub-041	250	41	45.6	46.9	COM11	COM15	COM3	2024-06-17_14h10.16.310	001-EEG_SVR_Officel	2022.2.5	143.8298435188121		7.809999999999945	1_sub-pilot041_SVR_EEG_block3-4.protocol.csv	step51	6894	684.473	STIMULATE	46.9	46.9	46.9	46.9	46.9	51	1533.541
1527.638	0	763819	40/Hi	7	3	0	3	0	8.0	0.0	8.0	0.0						1622.364240200026	1630.1793001000187	1630.1793001000187	5.5	['5', 'a', '5', 'return']	[2.441819699946791, 2.674477999971714, 2.8827186999842525, 4.361996399995405]	7.81	6.19	0.0	40hz	high_pain	46.9			sub-041	250	41	45.6	46.9	COM11	COM15	COM3	2024-06-17_14h10.16.310	001-EEG_SVR_Officel	2022.2.5	143.8298435188121		6.192000000000007	1_sub-pilot041_SVR_EEG_block3-4.protocol.csv	step51	6894	684.473	STIMULATE	46.9	46.9	46.9	46.9	46.9	51	1533.541
1538.084	0	769042	wait	20	3	0	3	0	9.0	0.0	9.0	0.0						1647.5616491999826	1655.0115806999966	1655.0115806999966	5.5	['5', 'a', '5', 'return']	[2.612790599989239, 2.821083999995608, 2.9968725999933667, 3.53409820003435]	7.44	5.65	1.0	10hz	high_pain	46.9			sub-041	250	41	45.6	46.9	COM11	COM15	COM3	2024-06-17_14h10.16.310	001-EEG_SVR_Officel	2022.2.5	143.8298435188121		11.19600000000014	1_sub-pilot041_SVR_EEG_block3-4.protocol.csv	step53	7138	708.678	STIMULATE	46.9	46.9	46.9	46.9	46.9	53	1557.746
1545.526	0	772763	10hz	3	3	0	3	0	9.0	0.0	9.0	0.0						1647.5616491999826	1655.0115806999966	1655.0115806999966	5.5	['5', 'a', '5', 'return']	[2.612790599989239, 2.821083999995608, 2.9968725999933667, 3.53409820003435]	7.44	5.65	1.0	10hz	high_pain	46.9			sub-041	250	41	45.6	46.9	COM11	COM15	COM3	2024-06-17_14h10.16.310	001-EEG_SVR_Officel	2022.2.5	143.8298435188121		7.442000000000007	1_sub-pilot041_SVR_EEG_block3-4.protocol.csv	step53	7138	708.678	STIMULATE	46.9	46.9	46.9	46.9	46.9	53	1557.746
1551.924	0	775962	10/Hi	1	3	0	3	0	9.0	0.0	9.0	0.0						1647.5616491999826	1655.0115806999966	1655.0115806999966	5.5	['5', 'a', '5', 'return']	[2.612790599989239, 2.821083999995608, 2.9968725999933667, 3.53409820003435]	7.44	5.65	1.0	10hz	high_pain	46.9			sub-041	250	41	45.6	46.9	COM11	COM15	COM3	2024-06-17_14h10.16.310	001-EEG_SVR_Officel	2022.2.5	143.8298435188121		5.647999999999911	1_sub-pilot041_SVR_EEG_block3-4.protocol.csv	step53	7138	708.678	STIMULATE	46.9	46.9	46.9	46.9	46.9	53	1557.746
1562.078	0	781039	wait	20	3	0	3	0	10.0	0.0	10.0	0.0						1671.5576060999883	1679.179166199989	1679.179166199989	4.0	['4', 'return']	[2.148246700002346, 2.6680155000067316]	7.62	6.27	2.0	40hz	low_pain	45.6			sub-041	250	41	45.6	46.9	COM11	COM15	COM3	2024-06-17_14h10.16.310	001-EEG_SVR_Officel	2022.2.5	143.8298435188121		10.903999999999996	1_sub-pilot041_SVR_EEG_block3-4.protocol.csv	step55	7389	733.567	STIMULATE	45.6	45.5	45.5	45.6	45.5	55	1582.635
1569.696	0	784848	40hz	9	3	0	3	0	10.0	0.0	10.0	0.0						1671.5576060999883	1679.179166199989	1679.179166199989	4.0	['4', 'return']	[2.148246700002346, 2.6680155000067316]	7.62	6.27	2.0	40hz	low_pain	45.6			sub-041	250	41	45.6	46.9	COM11	COM15	COM3	2024-06-17_14h10.16.310	001-EEG_SVR_Officel	2022.2.5	143.8298435188121		7.617999999999938	1_sub-pilot041_SVR_EEG_block3-4.protocol.csv	step55	7389	733.567	STIMULATE	45.6	45.5	45.5	45.6	45.5	55	1582.635
1576.714	0	788357	40/Lo	8	3	0	3	0	10.0	0.0	10.0	0.0						1671.5576060999883	1679.179166199989	1679.179166199989	4.0	['4', 'return']	[2.148246700002346, 2.6680155000067316]	7.62	6.27	2.0	40hz	low_pain	45.6			sub-041	250	41	45.6	46.9	COM11	COM15	COM3	2024-06-17_14h10.16.310	001-EEG_SVR_Officel	2022.2.5	143.8298435188121		6.268000000000029	1_sub-pilot041_SVR_EEG_block3-4.protocol.csv	step55	7389	733.567	STIMULATE	45.6	45.5	45.5	45.6	45.5	55	1582.635
1585.388	0	792694	wait	20	3	0	3	0	11.0	0.0	11.0	0.0						1694.8658715999918	1700.439229600015	1700.439229600015	6.5	['6', 'a', '5', 'return']	[2.0156325999996625, 2.231656300020404, 2.456033100024797, 3.6795977000147104]	5.57	5.33	3.0	20hz	high_pain	46.9			sub-041	250	41	45.6	46.9	COM11	COM15	COM3	2024-06-17_14h10.16.310	001-EEG_SVR_Officel	2022.2.5	143.8298435188121		9.423999999999978	1_sub-pilot041_SVR_EEG_block3-4.protocol.csv	step57	7593	753.855	STIMULATE	46.9	46.9	46.9	46.9	46.9	57	1602.923
1590.956	0	795478	20hz	6	3	0	3	0	11.0	0.0	11.0	0.0						1694.8658715999918	1700.439229600015	1700.439229600015	6.5	['6', 'a', '5', 'return']	[2.0156325999996625, 2.231656300020404, 2.456033100024797, 3.6795977000147104]	5.57	5.33	3.0	20hz	high_pain	46.9			sub-041	250	41	45.6	46.9	COM11	COM15	COM3	2024-06-17_14h10.16.310	001-EEG_SVR_Officel	2022.2.5	143.8298435188121		5.567999999999984	1_sub-pilot041_SVR_EEG_block3-4.protocol.csv	step57	7593	753.855	STIMULATE	46.9	46.9	46.9	46.9	46.9	57	1602.923
1597.034	0	798517	20/Hi	4	3	0	3	0	11.0	0.0	11.0	0.0						1694.8658715999918	1700.439229600015	1700.439229600015	6.5	['6', 'a', '5', 'return']	[2.0156325999996625, 2.231656300020404, 2.456033100024797, 3.6795977000147104]	5.57	5.33	3.0	20hz	high_pain	46.9			sub-041	250	41	45.6	46.9	COM11	COM15	COM3	2024-06-17_14h10.16.310	001-EEG_SVR_Officel	2022.2.5	143.8298435188121		5.328000000000202	1_sub-pilot041_SVR_EEG_block3-4.protocol.csv	step57	7593	753.855	STIMULATE	46.9	46.9	46.9	46.9	46.9	57	1602.923
1607.654	0	803827	wait	20	3	0	3	0	12.0	0.0	12.0	0.0						1717.1323746999842	1723.9047406000318	1723.9047406000318	3.0	['3', 'return']	[2.5479074000031687, 3.1402311000274494]	6.77	5.22	0.0	10hz	low_pain	45.6			sub-041	250	41	45.6	46.9	COM11	COM15	COM3	2024-06-17_14h10.16.310	001-EEG_SVR_Officel	2022.2.5	143.8298435188121		11.36999999999989	1_sub-pilot041_SVR_EEG_block3-4.protocol.csv	step59	7825	777.259	STIMULATE	45.6	45.5	45.5	45.6	45.6	59	1626.327
1614.422	0	807211	10hz	3	3	0	3	0	12.0	0.0	12.0	0.0						1717.1323746999842	1723.9047406000318	1723.9047406000318	3.0	['3', 'return']	[2.5479074000031687, 3.1402311000274494]	6.77	5.22	0.0	10hz	low_pain	45.6			sub-041	250	41	45.6	46.9	COM11	COM15	COM3	2024-06-17_14h10.16.310	001-EEG_SVR_Officel	2022.2.5	143.8298435188121		6.768000000000029	1_sub-pilot041_SVR_EEG_block3-4.protocol.csv	step59	7825	777.259	STIMULATE	45.6	45.5	45.5	45.6	45.6	59	1626.327
1620.39	0	810195	10/Lo	2	3	0	3	0	12.0	0.0	12.0	0.0						1717.1323746999842	1723.9047406000318	1723.9047406000318	3.0	['3', 'return']	[2.5479074000031687, 3.1402311000274494]	6.77	5.22	0.0	10hz	low_pain	45.6			sub-041	250	41	45.6	46.9	COM11	COM15	COM3	2024-06-17_14h10.16.310	001-EEG_SVR_Officel	2022.2.5	143.8298435188121		5.218000000000075	1_sub-pilot041_SVR_EEG_block3-4.protocol.csv	step59	7825	777.259	STIMULATE	45.6	45.5	45.5	45.6	45.6	59	1626.327
1630.586	0	815293	wait	20	3	0	3	0	13.0	0.0	13.0	0.0						1740.0656143000233	1747.1717330000247	1747.1717330000247	1.5	['1', 'a', '5', 'return']	[2.6261909999884665, 2.961315700027626, 3.2022421000292525, 3.849279900023248]	7.1	6.35	1.0	40hz	low_pain	45.6			sub-041	250	41	45.6	46.9	COM11	COM15	COM3	2024-06-17_14h10.16.310	001-EEG_SVR_Officel	2022.2.5	143.8298435188121		10.945999999999913	1_sub-pilot041_SVR_EEG_block3-4.protocol.csv	step61	8062	801.613	STIMULATE	45.6	45.5	45.6	45.6	45.6	61	1650.681
1637.688	0	818844	40hz	9	3	0	3	0	13.0	0.0	13.0	0.0						1740.0656143000233	1747.1717330000247	1747.1717330000247	1.5	['1', 'a', '5', 'return']	[2.6261909999884665, 2.961315700027626, 3.2022421000292525, 3.849279900023248]	7.1	6.35	1.0	40hz	low_pain	45.6			sub-041	250	41	45.6	46.9	COM11	COM15	COM3	2024-06-17_14h10.16.310	001-EEG_SVR_Officel	2022.2.5	143.8298435188121		7.102000000000089	1_sub-pilot041_SVR_EEG_block3-4.protocol.csv	step61	8062	801.613	STIMULATE	45.6	45.5	45.6	45.6	45.6	61	1650.681
1644.79	0	822395	40/Lo	8	3	0	3	0	13.0	0.0	13.0	0.0						1740.0656143000233	1747.1717330000247	1747.1717330000247	1.5	['1', 'a', '5', 'return']	[2.6261909999884665, 2.961315700027626, 3.2022421000292525, 3.849279900023248]	7.1	6.35	1.0	40hz	low_pain	45.6			sub-041	250	41	45.6	46.9	COM11	COM15	COM3	2024-06-17_14h10.16.310	001-EEG_SVR_Officel	2022.2.5	143.8298435188121		6.351999999999862	1_sub-pilot041_SVR_EEG_block3-4.protocol.csv	step61	8062	801.613	STIMULATE	45.6	45.5	45.6	45.6	45.6	61	1650.681
1654.56	0	827280	wait	20	3	0	3	0	14.0	0.0	14.0	0.0						1764.0405745999888	1771.552723700006	1771.552723700006	6.0	['6', 'return']	[2.271220299997367, 2.984076399996411]	7.51	5.33	2.0	20hz	high_pain	46.9			sub-041	250	41	45.6	46.9	COM11	COM15	COM3	2024-06-17_14h10.16.310	001-EEG_SVR_Officel	2022.2.5	143.8298435188121		10.519999999999982	1_sub-pilot041_SVR_EEG_block3-4.protocol.csv	step63	8287	824.983	STIMULATE	46.9	46.8	46.8	46.9	46.9	63	1674.051
1662.066	0	831033	20hz	6	3	0	3	0	14.0	0.0	14.0	0.0						1764.0405745999888	1771.552723700006	1771.552723700006	6.0	['6', 'return']	[2.271220299997367, 2.984076399996411]	7.51	5.33	2.0	20hz	high_pain	46.9			sub-041	250	41	45.6	46.9	COM11	COM15	COM3	2024-06-17_14h10.16.310	001-EEG_SVR_Officel	2022.2.5	143.8298435188121		7.5060000000000855	1_sub-pilot041_SVR_EEG_block3-4.protocol.csv	step63	8287	824.983	STIMULATE	46.9	46.8	46.8	46.9	46.9	63	1674.051
1668.146	0	834073	20/Hi	4	3	0	3	0	14.0	0.0	14.0	0.0						1764.0405745999888	1771.552723700006	1771.552723700006	6.0	['6', 'return']	[2.271220299997367, 2.984076399996411]	7.51	5.33	2.0	20hz	high_pain	46.9			sub-041	250	41	45.6	46.9	COM11	COM15	COM3	2024-06-17_14h10.16.310	001-EEG_SVR_Officel	2022.2.5	143.8298435188121		5.329999999999927	1_sub-pilot041_SVR_EEG_block3-4.protocol.csv	step63	8287	824.983	STIMULATE	46.9	46.8	46.8	46.9	46.9	63	1674.051
1678.07	0	839035	wait	20	3	0	3	0	15.0	0.0	15.0	0.0						1787.550792700029	1795.123294399993	1795.123294399993	4.5	['4', 'a', '5', 'return']	[2.316235999984201, 2.7633646999602206, 3.17988409998361, 4.0516525999992155]	7.57	5.07	3.0	20hz	low_pain	45.6			sub-041	250	41	45.6	46.9	COM11	COM15	COM3	2024-06-17_14h10.16.310	001-EEG_SVR_Officel	2022.2.5	143.8298435188121		10.673999999999978	1_sub-pilot041_SVR_EEG_block3-4.protocol.csv	step65	8509	848.261	STIMULATE	45.6	45.5	45.6	45.6	45.6	65	1697.329
1685.638	0	842819	20hz	6	3	0	3	0	15.0	0.0	15.0	0.0						1787.550792700029	1795.123294399993	1795.123294399993	4.5	['4', 'a', '5', 'return']	[2.316235999984201, 2.7633646999602206, 3.17988409998361, 4.0516525999992155]	7.57	5.07	3.0	20hz	low_pain	45.6			sub-041	250	41	45.6	46.9	COM11	COM15	COM3	2024-06-17_14h10.16.310	001-EEG_SVR_Officel	2022.2.5	143.8298435188121		7.567999999999984	1_sub-pilot041_SVR_EEG_block3-4.protocol.csv	step65	8509	848.261	STIMULATE	45.6	45.5	45.6	45.6	45.6	65	1697.329
1691.454	0	845727	20/Lo	5	3	0	3	0	15.0	0.0	15.0	0.0						1787.550792700029	1795.123294399993	1795.123294399993	4.5	['4', 'a', '5', 'return']	[2.316235999984201, 2.7633646999602206, 3.17988409998361, 4.0516525999992155]	7.57	5.07	3.0	20hz	low_pain	45.6			sub-041	250	41	45.6	46.9	COM11	COM15	COM3	2024-06-17_14h10.16.310	001-EEG_SVR_Officel	2022.2.5	143.8298435188121		5.066000000000031	1_sub-pilot041_SVR_EEG_block3-4.protocol.csv	step65	8509	848.261	STIMULATE	45.6	45.5	45.6	45.6	45.6	65	1697.329
1761.906	0	880953	wait	20	4	0	4	0	0.0	0.0	0.0	0.0				p	1.0637281999806874	1871.386960200034	1877.7033864000116	1877.7033864000116	5.0	['5', 'return']	[2.7522747999755666, 3.449222099967301]	6.31	5.64	0.0	40hz	low_pain	45.6			sub-041	250	41	45.6	46.9	COM11	COM15	COM3	2024-06-17_14h10.16.310	001-EEG_SVR_Officel	2022.2.5	143.8298435188121		71.202	2_sub-pilot041_SVR_EEG_block5-6.protocol.csv	step3	706	70.404	STIMULATE	45.5	45.5	45.5	45.5	45.6	3	1780.37
1768.218	0	884109	40hz	9	4	0	4	0	0.0	0.0	0.0	0.0				p	1.0637281999806874	1871.386960200034	1877.7033864000116	1877.7033864000116	5.0	['5', 'return']	[2.7522747999755666, 3.449222099967301]	6.31	5.64	0.0	40hz	low_pain	45.6			sub-041	250	41	45.6	46.9	COM11	COM15	COM3	2024-06-17_14h10.16.310	001-EEG_SVR_Officel	2022.2.5	143.8298435188121		6.3120000000001255	2_sub-pilot041_SVR_EEG_block5-6.protocol.csv	step3	706	70.404	STIMULATE	45.5	45.5	45.5	45.5	45.6	3	1780.37
1774.61	0	887305	40/Lo	8	4	0	4	0	0.0	0.0	0.0	0.0				p	1.0637281999806874	1871.386960200034	1877.7033864000116	1877.7033864000116	5.0	['5', 'return']	[2.7522747999755666, 3.449222099967301]	6.31	5.64	0.0	40hz	low_pain	45.6			sub-041	250	41	45.6	46.9	COM11	COM15	COM3	2024-06-17_14h10.16.310	001-EEG_SVR_Officel	2022.2.5	143.8298435188121		5.641999999999825	2_sub-pilot041_SVR_EEG_block5-6.protocol.csv	step3	706	70.404	STIMULATE	45.5	45.5	45.5	45.5	45.6	3	1780.37
1784.686	0	892343	wait	20	4	0	4	0	1.0	0.0	1.0	0.0						1894.166953600012	1901.0949580000013	1901.0949580000013	5.5	['5', 'a', '5', 'return']	[3.2089521999587305, 3.42394049995346, 3.6402400999795645, 4.496454499952961]	6.92	6.46	1.0	40hz	low_pain	45.6			sub-041	250	41	45.6	46.9	COM11	COM15	COM3	2024-06-17_14h10.16.310	001-EEG_SVR_Officel	2022.2.5	143.8298435188121		10.826000000000022	2_sub-pilot041_SVR_EEG_block5-6.protocol.csv	step5	950	94.601	STIMULATE	45.6	45.5	45.5	45.6	45.6	5	1804.567
1791.608	0	895804	40hz	9	4	0	4	0	1.0	0.0	1.0	0.0						1894.166953600012	1901.0949580000013	1901.0949580000013	5.5	['5', 'a', '5', 'return']	[3.2089521999587305, 3.42394049995346, 3.6402400999795645, 4.496454499952961]	6.92	6.46	1.0	40hz	low_pain	45.6			sub-041	250	41	45.6	46.9	COM11	COM15	COM3	2024-06-17_14h10.16.310	001-EEG_SVR_Officel	2022.2.5	143.8298435188121		6.9220000000000255	2_sub-pilot041_SVR_EEG_block5-6.protocol.csv	step5	950	94.601	STIMULATE	45.6	45.5	45.5	45.6	45.6	5	1804.567
1798.82	0	899410	40/Lo	8	4	0	4	0	1.0	0.0	1.0	0.0						1894.166953600012	1901.0949580000013	1901.0949580000013	5.5	['5', 'a', '5', 'return']	[3.2089521999587305, 3.42394049995346, 3.6402400999795645, 4.496454499952961]	6.92	6.46	1.0	40hz	low_pain	45.6			sub-041	250	41	45.6	46.9	COM11	COM15	COM3	2024-06-17_14h10.16.310	001-EEG_SVR_Officel	2022.2.5	143.8298435188121		6.461999999999989	2_sub-pilot041_SVR_EEG_block5-6.protocol.csv	step5	950	94.601	STIMULATE	45.6	45.5	45.5	45.6	45.6	5	1804.567
1809.126	0	904563	wait	20	4	0	4	0	2.0	0.0	2.0	0.0						1918.607312100008	1926.228326099983	1926.228326099983	6.5	['6', 'a', '5', 'return']	[2.025664400018286, 2.241394600016065, 2.425693900033366, 3.0417640000232495]	7.62	6.33	2.0	20hz	high_pain	46.9			sub-041	250	41	45.6	46.9	COM11	COM15	COM3	2024-06-17_14h10.16.310	001-EEG_SVR_Officel	2022.2.5	143.8298435188121		11.05600000000004	2_sub-pilot041_SVR_EEG_block5-6.protocol.csv	step7	1202	119.622	STIMULATE	46.9	46.9	46.9	46.9	46.9	7	1829.588
1816.742	0	908371	20hz	6	4	0	4	0	2.0	0.0	2.0	0.0						1918.607312100008	1926.228326099983	1926.228326099983	6.5	['6', 'a', '5', 'return']	[2.025664400018286, 2.241394600016065, 2.425693900033366, 3.0417640000232495]	7.62	6.33	2.0	20hz	high_pain	46.9			sub-041	250	41	45.6	46.9	COM11	COM15	COM3	2024-06-17_14h10.16.310	001-EEG_SVR_Officel	2022.2.5	143.8298435188121		7.6159999999999854	2_sub-pilot041_SVR_EEG_block5-6.protocol.csv	step7	1202	119.622	STIMULATE	46.9	46.9	46.9	46.9	46.9	7	1829.588
1823.822	0	911911	20/Hi	4	4	0	4	0	2.0	0.0	2.0	0.0						1918.607312100008	1926.228326099983	1926.228326099983	6.5	['6', 'a', '5', 'return']	[2.025664400018286, 2.241394600016065, 2.425693900033366, 3.0417640000232495]	7.62	6.33	2.0	20hz	high_pain	46.9			sub-041	250	41	45.6	46.9	COM11	COM15	COM3	2024-06-17_14h10.16.310	001-EEG_SVR_Officel	2022.2.5	143.8298435188121		6.329999999999927	2_sub-pilot041_SVR_EEG_block5-6.protocol.csv	step7	1202	119.622	STIMULATE	46.9	46.9	46.9	46.9	46.9	7	1829.588
1832.81	0	916405	wait	20	4	0	4	0	3.0	0.0	3.0	0.0						1942.290717000025	1948.4341980000029	1948.4341980000029	4.0	['4', 'return']	[3.5667116999975406, 4.2937313000438735]	6.14	5.98	3.0	controle	low_pain	45.6			sub-041	250	41	45.6	46.9	COM11	COM15	COM3	2024-06-17_14h10.16.310	001-EEG_SVR_Officel	2022.2.5	143.8298435188121		9.738000000000056	2_sub-pilot041_SVR_EEG_block5-6.protocol.csv	step9	1423	141.574	STIMULATE	45.6	45.5	45.5	45.6	45.6	9	1851.54
1838.946	0	919473	CNhz	12	4	0	4	0	3.0	0.0	3.0	0.0						1942.290717000025	1948.4341980000029	1948.4341980000029	4.0	['4', 'return']	[3.5667116999975406, 4.2937313000438735]	6.14	5.98	3.0	controle	low_pain	45.6			sub-041	250	41	45.6	46.9	COM11	COM15	COM3	2024-06-17_14h10.16.310	001-EEG_SVR_Officel	2022.2.5	143.8298435188121		6.135999999999967	2_sub-pilot041_SVR_EEG_block5-6.protocol.csv	step9	1423	141.574	STIMULATE	45.6	45.5	45.5	45.6	45.6	9	1851.54
1845.68	0	922840	CN/Lo	11	4	0	4	0	3.0	0.0	3.0	0.0						1942.290717000025	1948.4341980000029	1948.4341980000029	4.0	['4', 'return']	[3.5667116999975406, 4.2937313000438735]	6.14	5.98	3.0	controle	low_pain	45.6			sub-041	250	41	45.6	46.9	COM11	COM15	COM3	2024-06-17_14h10.16.310	001-EEG_SVR_Officel	2022.2.5	143.8298435188121		5.984000000000151	2_sub-pilot041_SVR_EEG_block5-6.protocol.csv	step9	1423	141.574	STIMULATE	45.6	45.5	45.5	45.6	45.6	9	1851.54
1856.264	0	928132	wait	20	4	0	4	0	4.0	0.0	4.0	0.0						1965.7448520000328	1972.2061849000163	1972.2061849000163	5.0	['5', 'return']	[2.5444396999664605, 3.2651136000058614]	6.46	5.76	0.0	40hz	high_pain	46.9			sub-041	250	41	45.6	46.9	COM11	COM15	COM3	2024-06-17_14h10.16.310	001-EEG_SVR_Officel	2022.2.5	143.8298435188121		11.333999999999833	2_sub-pilot041_SVR_EEG_block5-6.protocol.csv	step11	1661	165.174	STIMULATE	46.9	46.9	46.9	46.9	46.9	11	1875.1399999999999
1862.72	0	931360	40hz	9	4	0	4	0	4.0	0.0	4.0	0.0						1965.7448520000328	1972.2061849000163	1972.2061849000163	5.0	['5', 'return']	[2.5444396999664605, 3.2651136000058614]	6.46	5.76	0.0	40hz	high_pain	46.9			sub-041	250	41	45.6	46.9	COM11	COM15	COM3	2024-06-17_14h10.16.310	001-EEG_SVR_Officel	2022.2.5	143.8298435188121		6.456000000000131	2_sub-pilot041_SVR_EEG_block5-6.protocol.csv	step11	1661	165.174	STIMULATE	46.9	46.9	46.9	46.9	46.9	11	1875.1399999999999
1869.23	0	934615	40/Hi	7	4	0	4	0	4.0	0.0	4.0	0.0						1965.7448520000328	1972.2061849000163	1972.2061849000163	5.0	['5', 'return']	[2.5444396999664605, 3.2651136000058614]	6.46	5.76	0.0	40hz	high_pain	46.9			sub-041	250	41	45.6	46.9	COM11	COM15	COM3	2024-06-17_14h10.16.310	001-EEG_SVR_Officel	2022.2.5	143.8298435188121		5.759999999999991	2_sub-pilot041_SVR_EEG_block5-6.protocol.csv	step11	1661	165.174	STIMULATE	46.9	46.9	46.9	46.9	46.9	11	1875.1399999999999
1879.01	0	939505	wait	20	4	0	4	0	5.0	0.0	5.0	0.0						1988.4910576000111	1996.2909816000029	1996.2909816000029	1.0	['1', 'return']	[2.6978286000085063, 3.40979539998807]	7.8	6.19	1.0	10hz	low_pain	45.6			sub-041	250	41	45.6	46.9	COM11	COM15	COM3	2024-06-17_14h10.16.310	001-EEG_SVR_Officel	2022.2.5	143.8298435188121		10.529999999999973	2_sub-pilot041_SVR_EEG_block5-6.protocol.csv	step13	1908	189.683	STIMULATE	45.6	45.5	45.5	45.6	45.6	13	1899.649
1886.806	0	943403	10hz	3	4	0	4	0	5.0	0.0	5.0	0.0						1988.4910576000111	1996.2909816000029	1996.2909816000029	1.0	['1', 'return']	[2.6978286000085063, 3.40979539998807]	7.8	6.19	1.0	10hz	low_pain	45.6			sub-041	250	41	45.6	46.9	COM11	COM15	COM3	2024-06-17_14h10.16.310	001-EEG_SVR_Officel	2022.2.5	143.8298435188121		7.796000000000049	2_sub-pilot041_SVR_EEG_block5-6.protocol.csv	step13	1908	189.683	STIMULATE	45.6	45.5	45.5	45.6	45.6	13	1899.649
1893.746	0	946873	10/Lo	2	4	0	4	0	5.0	0.0	5.0	0.0						1988.4910576000111	1996.2909816000029	1996.2909816000029	1.0	['1', 'return']	[2.6978286000085063, 3.40979539998807]	7.8	6.19	1.0	10hz	low_pain	45.6			sub-041	250	41	45.6	46.9	COM11	COM15	COM3	2024-06-17_14h10.16.310	001-EEG_SVR_Officel	2022.2.5	143.8298435188121		6.190000000000055	2_sub-pilot041_SVR_EEG_block5-6.protocol.csv	step13	1908	189.683	STIMULATE	45.6	45.5	45.5	45.6	45.6	13	1899.649
1903.234	0	951617	wait	20	4	0	4	0	6.0	0.0	6.0	0.0						2012.7155487000127	2018.7823988000164	2018.7823988000164	3.0	['3', 'return']	[2.001597499998752, 2.666045199963264]	6.06	5.84	2.0	40hz	low_pain	45.6			sub-041	250	41	45.6	46.9	COM11	COM15	COM3	2024-06-17_14h10.16.310	001-EEG_SVR_Officel	2022.2.5	143.8298435188121		10.237999999999829	2_sub-pilot041_SVR_EEG_block5-6.protocol.csv	step15	2132	211.814	STIMULATE	45.6	45.5	45.5	45.6	45.6	15	1921.78
