onset	duration	sample	trial_type	value	block.thisRepN	block.thisTrialN	block.thisN	block.thisIndex	reps.thisRepN	reps.thisTrialN	reps.thisN	reps.thisIndex	afrec_start	rec_start	key_resp.keys	key_resp.rt	wait_time_text.started	wait_time_text.stopped	therm_loca_text.started	subResponse	keyResp.keys	keyResp.rt	ITI_wait	wait_trigger	loca_thermode	Hz_condition	temp_condition	temp_valeur	therm_loca_text.stopped	text.started	text.stopped	participant	brightness	num_part	low	high	com_svr	com_thermode	com_eeg	date	expName	psychopyVersion	frameRate	Unnamed: 39	distance_from_previous	file	step	index	time	type	temp1	temp2	temp3	temp4	temp5	step_num	time_sync
85.016	0	85016	wait	10004	0	0	0	0	0.0	0.0	0.0	0.0	40.48643689999881	40.39414390000093	p	84.91073450000113	125.42209759999967	133.0719785000001	133.0719785000001	6.0	['6', 'return']	[10.533466200002294, 11.66115980000177]	7.64	5.62	0.0	20hz	high_pain	48.5				sub-046	250	46	46.6	48.5	COM5	COM15	COM3	2024-10-01_15h18.57.810	001-EEG_SVR_Officel	2022.2.5	60.58472743726854		85.016	0_sub-pilot046_SVR_EEG_block1-2.protocol.csv	step3	2076	207.466	STIMULATE	48.7	48.4	48.4	48.5	48.5	3	104.852
92.65	0	92650	20hz	10003	0	0	0	0	0.0	0.0	0.0	0.0	40.48643689999881	40.39414390000093	p	84.91073450000113	125.42209759999967	133.0719785000001	133.0719785000001	6.0	['6', 'return']	[10.533466200002294, 11.66115980000177]	7.64	5.62	0.0	20hz	high_pain	48.5				sub-046	250	46	46.6	48.5	COM5	COM15	COM3	2024-10-01_15h18.57.810	001-EEG_SVR_Officel	2022.2.5	60.58472743726854		7.634	0_sub-pilot046_SVR_EEG_block1-2.protocol.csv	step3	2076	207.466	STIMULATE	48.7	48.4	48.4	48.5	48.5	3	104.852
99.031	0	99031	20/Hi	10001	0	0	0	0	0.0	0.0	0.0	0.0	40.48643689999881	40.39414390000093	p	84.91073450000113	125.42209759999967	133.0719785000001	133.0719785000001	6.0	['6', 'return']	[10.533466200002294, 11.66115980000177]	7.64	5.62	0.0	20hz	high_pain	48.5				sub-046	250	46	46.6	48.5	COM5	COM15	COM3	2024-10-01_15h18.57.810	001-EEG_SVR_Officel	2022.2.5	60.58472743726854		5.631	0_sub-pilot046_SVR_EEG_block1-2.protocol.csv	step3	2076	207.466	STIMULATE	48.7	48.4	48.4	48.5	48.5	3	104.852
117.366	0	117366	wait	10004	0	0	0	0	1.0	0.0	1.0	0.0					157.77177709999887	165.1384025999978	165.1384025999978	5.0	['5', 'return']	[3.2590467000009085, 3.706211100001383]	7.35	5.58	1.0	controle	low_pain	46.6	178.13838709999982			sub-046	250	46	46.6	48.5	COM5	COM15	COM3	2024-10-01_15h18.57.810	001-EEG_SVR_Officel	2022.2.5	60.58472743726854		19.084999999999994	0_sub-pilot046_SVR_EEG_block1-2.protocol.csv	step5	2399	239.526	STIMULATE	46.6	46.5	46.5	46.5	46.5	5	136.912
124.716	0	124716	CNhz	10003	0	0	0	0	1.0	0.0	1.0	0.0					157.77177709999887	165.1384025999978	165.1384025999978	5.0	['5', 'return']	[3.2590467000009085, 3.706211100001383]	7.35	5.58	1.0	controle	low_pain	46.6	178.13838709999982			sub-046	250	46	46.6	48.5	COM5	COM15	COM3	2024-10-01_15h18.57.810	001-EEG_SVR_Officel	2022.2.5	60.58472743726854		7.349999999999994	0_sub-pilot046_SVR_EEG_block1-2.protocol.csv	step5	2399	239.526	STIMULATE	46.6	46.5	46.5	46.5	46.5	5	136.912
131.049	0	131049	CN/Lo	10001	0	0	0	0	1.0	0.0	1.0	0.0					157.77177709999887	165.1384025999978	165.1384025999978	5.0	['5', 'return']	[3.2590467000009085, 3.706211100001383]	7.35	5.58	1.0	controle	low_pain	46.6	178.13838709999982			sub-046	250	46	46.6	48.5	COM5	COM15	COM3	2024-10-01_15h18.57.810	001-EEG_SVR_Officel	2022.2.5	60.58472743726854		5.583000000000013	0_sub-pilot046_SVR_EEG_block1-2.protocol.csv	step5	2399	239.526	STIMULATE	46.6	46.5	46.5	46.5	46.5	5	136.912
141.48	0	141480	wait	10004	0	0	0	0	2.0	0.0	2.0	0.0					181.88634009999805	188.7715055000008	188.7715055000008	5.0	['5', 'return']	[6.619160800000827, 7.355665200000658]	6.88	5.52	2.0	20hz	low_pain	46.6				sub-046	250	46	46.6	48.5	COM5	COM15	COM3	2024-10-01_15h18.57.810	001-EEG_SVR_Officel	2022.2.5	60.58472743726854		11.180999999999983	0_sub-pilot046_SVR_EEG_block1-2.protocol.csv	step7	2636	263.069	STIMULATE	46.7	46.5	46.5	46.5	46.6	7	160.455
148.349	0	148349	20hz	10003	0	0	0	0	2.0	0.0	2.0	0.0					181.88634009999805	188.7715055000008	188.7715055000008	5.0	['5', 'return']	[6.619160800000827, 7.355665200000658]	6.88	5.52	2.0	20hz	low_pain	46.6				sub-046	250	46	46.6	48.5	COM5	COM15	COM3	2024-10-01_15h18.57.810	001-EEG_SVR_Officel	2022.2.5	60.58472743726854		6.869	0_sub-pilot046_SVR_EEG_block1-2.protocol.csv	step7	2636	263.069	STIMULATE	46.7	46.5	46.5	46.5	46.6	7	160.455
154.632	0	154632	20/Lo	10001	0	0	0	0	2.0	0.0	2.0	0.0					181.88634009999805	188.7715055000008	188.7715055000008	5.0	['5', 'return']	[6.619160800000827, 7.355665200000658]	6.88	5.52	2.0	20hz	low_pain	46.6				sub-046	250	46	46.6	48.5	COM5	COM15	COM3	2024-10-01_15h18.57.810	001-EEG_SVR_Officel	2022.2.5	60.58472743726854		5.5330000000000155	0_sub-pilot046_SVR_EEG_block1-2.protocol.csv	step7	2636	263.069	STIMULATE	46.7	46.5	46.5	46.5	46.6	7	160.455
168.78	0	168780	wait	10004	0	0	0	0	3.0	0.0	3.0	0.0					209.18623099999968	216.1880308	216.1880308	7.0	['7', 'return']	[3.2495001000024786, 3.7131879000007757]	7.0	6.1	3.0	20hz	high_pain	48.5	229.1877786999976			sub-046	250	46	46.6	48.5	COM5	COM15	COM3	2024-10-01_15h18.57.810	001-EEG_SVR_Officel	2022.2.5	60.58472743726854		14.897999999999996	0_sub-pilot046_SVR_EEG_block1-2.protocol.csv	step9	2918	291.075	STIMULATE	48.7	48.4	48.5	48.5	48.5	9	188.46099999999998
175.766	0	175766	20hz	10003	0	0	0	0	3.0	0.0	3.0	0.0					209.18623099999968	216.1880308	216.1880308	7.0	['7', 'return']	[3.2495001000024786, 3.7131879000007757]	7.0	6.1	3.0	20hz	high_pain	48.5	229.1877786999976			sub-046	250	46	46.6	48.5	COM5	COM15	COM3	2024-10-01_15h18.57.810	001-EEG_SVR_Officel	2022.2.5	60.58472743726854		6.98599999999999	0_sub-pilot046_SVR_EEG_block1-2.protocol.csv	step9	2918	291.075	STIMULATE	48.7	48.4	48.5	48.5	48.5	9	188.46099999999998
182.632	0	182632	20/Hi	10001	0	0	0	0	3.0	0.0	3.0	0.0					209.18623099999968	216.1880308	216.1880308	7.0	['7', 'return']	[3.2495001000024786, 3.7131879000007757]	7.0	6.1	3.0	20hz	high_pain	48.5	229.1877786999976			sub-046	250	46	46.6	48.5	COM5	COM15	COM3	2024-10-01_15h18.57.810	001-EEG_SVR_Officel	2022.2.5	60.58472743726854		6.116000000000014	0_sub-pilot046_SVR_EEG_block1-2.protocol.csv	step9	2918	291.075	STIMULATE	48.7	48.4	48.5	48.5	48.5	9	188.46099999999998
192.53	0	192530	wait	10004	0	0	0	0	4.0	0.0	4.0	0.0					232.93590499999848	240.9025299999994	240.9025299999994	5.5	['5', 'a', '5', 'return']	[3.148120199999539, 3.5727047999971546, 3.748790399997233, 4.781802899997274]	7.96	5.24	0.0	controle	low_pain	46.6				sub-046	250	46	46.6	48.5	COM5	COM15	COM3	2024-10-01_15h18.57.810	001-EEG_SVR_Officel	2022.2.5	60.58472743726854		10.647999999999996	0_sub-pilot046_SVR_EEG_block1-2.protocol.csv	step11	3159	314.935	STIMULATE	46.6	46.5	46.5	46.5	46.7	11	212.321
200.48	0	200480	CNhz	10003	0	0	0	0	4.0	0.0	4.0	0.0					232.93590499999848	240.9025299999994	240.9025299999994	5.5	['5', 'a', '5', 'return']	[3.148120199999539, 3.5727047999971546, 3.748790399997233, 4.781802899997274]	7.96	5.24	0.0	controle	low_pain	46.6				sub-046	250	46	46.6	48.5	COM5	COM15	COM3	2024-10-01_15h18.57.810	001-EEG_SVR_Officel	2022.2.5	60.58472743726854		7.949999999999989	0_sub-pilot046_SVR_EEG_block1-2.protocol.csv	step11	3159	314.935	STIMULATE	46.6	46.5	46.5	46.5	46.7	11	212.321
206.482	0	206482	CN/Lo	10001	0	0	0	0	4.0	0.0	4.0	0.0					232.93590499999848	240.9025299999994	240.9025299999994	5.5	['5', 'a', '5', 'return']	[3.148120199999539, 3.5727047999971546, 3.748790399997233, 4.781802899997274]	7.96	5.24	0.0	controle	low_pain	46.6				sub-046	250	46	46.6	48.5	COM5	COM15	COM3	2024-10-01_15h18.57.810	001-EEG_SVR_Officel	2022.2.5	60.58472743726854		5.2520000000000095	0_sub-pilot046_SVR_EEG_block1-2.protocol.csv	step11	3159	314.935	STIMULATE	46.6	46.5	46.5	46.5	46.7	11	212.321
218.313	0	218313	wait	10004	0	0	0	0	5.0	0.0	5.0	0.0					258.7188349999997	266.35221850000016	266.35221850000016	8.0	['8', 'return']	[2.908630300000368, 3.492273899999418]	7.63	5.64	1.0	40hz	high_pain	48.5				sub-046	250	46	46.6	48.5	COM5	COM15	COM3	2024-10-01_15h18.57.810	001-EEG_SVR_Officel	2022.2.5	60.58472743726854		12.580999999999989	0_sub-pilot046_SVR_EEG_block1-2.protocol.csv	step13	3419	340.774	STIMULATE	48.7	48.5	48.4	48.5	48.5	13	238.16
225.93	0	225930	40hz	10003	0	0	0	0	5.0	0.0	5.0	0.0					258.7188349999997	266.35221850000016	266.35221850000016	8.0	['8', 'return']	[2.908630300000368, 3.492273899999418]	7.63	5.64	1.0	40hz	high_pain	48.5				sub-046	250	46	46.6	48.5	COM5	COM15	COM3	2024-10-01_15h18.57.810	001-EEG_SVR_Officel	2022.2.5	60.58472743726854		7.617000000000019	0_sub-pilot046_SVR_EEG_block1-2.protocol.csv	step13	3419	340.774	STIMULATE	48.7	48.5	48.4	48.5	48.5	13	238.16
232.331	0	232331	40/Hi	10001	0	0	0	0	5.0	0.0	5.0	0.0					258.7188349999997	266.35221850000016	266.35221850000016	8.0	['8', 'return']	[2.908630300000368, 3.492273899999418]	7.63	5.64	1.0	40hz	high_pain	48.5				sub-046	250	46	46.6	48.5	COM5	COM15	COM3	2024-10-01_15h18.57.810	001-EEG_SVR_Officel	2022.2.5	60.58472743726854		5.650999999999982	0_sub-pilot046_SVR_EEG_block1-2.protocol.csv	step13	3419	340.774	STIMULATE	48.7	48.5	48.4	48.5	48.5	13	238.16
242.486	0	242486	wait	10004	0	0	0	0	6.0	0.0	6.0	0.0					282.8915669999988	288.25185710000005	288.25185710000005	8.0	['8', 'return']	[3.5286589999996067, 4.209142700001394]	5.36	5.09	2.0	10hz	high_pain	48.5	301.2520904999983			sub-046	250	46	46.6	48.5	COM5	COM15	COM3	2024-10-01_15h18.57.810	001-EEG_SVR_Officel	2022.2.5	60.58472743726854		10.905000000000001	0_sub-pilot046_SVR_EEG_block1-2.protocol.csv	step15	3634	362.014	STIMULATE	48.6	48.5	48.4	48.5	48.5	15	259.4
247.83	0	247830	10hz	10003	0	0	0	0	6.0	0.0	6.0	0.0					282.8915669999988	288.25185710000005	288.25185710000005	8.0	['8', 'return']	[3.5286589999996067, 4.209142700001394]	5.36	5.09	2.0	10hz	high_pain	48.5	301.2520904999983			sub-046	250	46	46.6	48.5	COM5	COM15	COM3	2024-10-01_15h18.57.810	001-EEG_SVR_Officel	2022.2.5	60.58472743726854		5.3440000000000225	0_sub-pilot046_SVR_EEG_block1-2.protocol.csv	step15	3634	362.014	STIMULATE	48.6	48.5	48.4	48.5	48.5	15	259.4
253.68	0	253680	10/Hi	10001	0	0	0	0	6.0	0.0	6.0	0.0					282.8915669999988	288.25185710000005	288.25185710000005	8.0	['8', 'return']	[3.5286589999996067, 4.209142700001394]	5.36	5.09	2.0	10hz	high_pain	48.5	301.2520904999983			sub-046	250	46	46.6	48.5	COM5	COM15	COM3	2024-10-01_15h18.57.810	001-EEG_SVR_Officel	2022.2.5	60.58472743726854		5.099999999999994	0_sub-pilot046_SVR_EEG_block1-2.protocol.csv	step15	3634	362.014	STIMULATE	48.6	48.5	48.4	48.5	48.5	15	259.4
265.096	0	265096	wait	10004	0	0	0	0	7.0	0.0	7.0	0.0					305.50199040000007	312.6019688999986	312.6019688999986	8.5	['8', 'a', '5', 'return']	[2.162975199997163, 2.4110291999968467, 2.7709761999976763, 3.6115433999984816]	7.09	5.07	3.0	10hz	high_pain	48.5				sub-046	250	46	46.6	48.5	COM5	COM15	COM3	2024-10-01_15h18.57.810	001-EEG_SVR_Officel	2022.2.5	60.58472743726854		12.165999999999997	0_sub-pilot046_SVR_EEG_block1-2.protocol.csv	step17	3880	386.465	STIMULATE	48.6	48.5	48.5	48.5	48.5	17	283.851
272.18	0	272180	10hz	10003	0	0	0	0	7.0	0.0	7.0	0.0					305.50199040000007	312.6019688999986	312.6019688999986	8.5	['8', 'a', '5', 'return']	[2.162975199997163, 2.4110291999968467, 2.7709761999976763, 3.6115433999984816]	7.09	5.07	3.0	10hz	high_pain	48.5				sub-046	250	46	46.6	48.5	COM5	COM15	COM3	2024-10-01_15h18.57.810	001-EEG_SVR_Officel	2022.2.5	60.58472743726854		7.084000000000003	0_sub-pilot046_SVR_EEG_block1-2.protocol.csv	step17	3880	386.465	STIMULATE	48.6	48.5	48.5	48.5	48.5	17	283.851
278.013	0	278013	10/Hi	10001	0	0	0	0	7.0	0.0	7.0	0.0					305.50199040000007	312.6019688999986	312.6019688999986	8.5	['8', 'a', '5', 'return']	[2.162975199997163, 2.4110291999968467, 2.7709761999976763, 3.6115433999984816]	7.09	5.07	3.0	10hz	high_pain	48.5				sub-046	250	46	46.6	48.5	COM5	COM15	COM3	2024-10-01_15h18.57.810	001-EEG_SVR_Officel	2022.2.5	60.58472743726854		5.08299999999997	0_sub-pilot046_SVR_EEG_block1-2.protocol.csv	step17	3880	386.465	STIMULATE	48.6	48.5	48.5	48.5	48.5	17	283.851
288.846	0	288846	wait	10004	0	0	0	0	8.0	0.0	8.0	0.0					329.2518651999999	334.8914182999979	334.8914182999979	4.0	['4', 'return']	[2.4391661000008753, 3.094848299999285]	5.64	5.27	0.0	40hz	low_pain	46.6				sub-046	250	46	46.6	48.5	COM5	COM15	COM3	2024-10-01_15h18.57.810	001-EEG_SVR_Officel	2022.2.5	60.58472743726854		11.583000000000027	0_sub-pilot046_SVR_EEG_block1-2.protocol.csv	step19	4107	408.954	STIMULATE	46.7	46.5	46.5	46.5	46.6	19	306.34000000000003
294.469	0	294469	40hz	10003	0	0	0	0	8.0	0.0	8.0	0.0					329.2518651999999	334.8914182999979	334.8914182999979	4.0	['4', 'return']	[2.4391661000008753, 3.094848299999285]	5.64	5.27	0.0	40hz	low_pain	46.6				sub-046	250	46	46.6	48.5	COM5	COM15	COM3	2024-10-01_15h18.57.810	001-EEG_SVR_Officel	2022.2.5	60.58472743726854		5.6229999999999905	0_sub-pilot046_SVR_EEG_block1-2.protocol.csv	step19	4107	408.954	STIMULATE	46.7	46.5	46.5	46.5	46.6	19	306.34000000000003
300.496	0	300496	40/Lo	10001	0	0	0	0	8.0	0.0	8.0	0.0					329.2518651999999	334.8914182999979	334.8914182999979	4.0	['4', 'return']	[2.4391661000008753, 3.094848299999285]	5.64	5.27	0.0	40hz	low_pain	46.6				sub-046	250	46	46.6	48.5	COM5	COM15	COM3	2024-10-01_15h18.57.810	001-EEG_SVR_Officel	2022.2.5	60.58472743726854		5.276999999999987	0_sub-pilot046_SVR_EEG_block1-2.protocol.csv	step19	4107	408.954	STIMULATE	46.7	46.5	46.5	46.5	46.6	19	306.34000000000003
310.638	0	310638	wait	10004	0	0	0	0	9.0	0.0	9.0	0.0					351.04360409999936	356.9907490000005	356.9907490000005	6.0	['6', 'return']	[5.587372800000594, 6.202965700002096]	5.94	5.1	1.0	20hz	high_pain	48.5				sub-046	250	46	46.6	48.5	COM5	COM15	COM3	2024-10-01_15h18.57.810	001-EEG_SVR_Officel	2022.2.5	60.58472743726854		10.891999999999996	0_sub-pilot046_SVR_EEG_block1-2.protocol.csv	step21	4329	430.938	STIMULATE	48.6	48.5	48.5	48.5	48.5	21	328.32399999999996
316.568	0	316568	20hz	10003	0	0	0	0	9.0	0.0	9.0	0.0					351.04360409999936	356.9907490000005	356.9907490000005	6.0	['6', 'return']	[5.587372800000594, 6.202965700002096]	5.94	5.1	1.0	20hz	high_pain	48.5				sub-046	250	46	46.6	48.5	COM5	COM15	COM3	2024-10-01_15h18.57.810	001-EEG_SVR_Officel	2022.2.5	60.58472743726854		5.930000000000007	0_sub-pilot046_SVR_EEG_block1-2.protocol.csv	step21	4329	430.938	STIMULATE	48.6	48.5	48.5	48.5	48.5	21	328.32399999999996
322.429	0	322429	20/Hi	10001	0	0	0	0	9.0	0.0	9.0	0.0					351.04360409999936	356.9907490000005	356.9907490000005	6.0	['6', 'return']	[5.587372800000594, 6.202965700002096]	5.94	5.1	1.0	20hz	high_pain	48.5				sub-046	250	46	46.6	48.5	COM5	COM15	COM3	2024-10-01_15h18.57.810	001-EEG_SVR_Officel	2022.2.5	60.58472743726854		5.11099999999999	0_sub-pilot046_SVR_EEG_block1-2.protocol.csv	step21	4329	430.938	STIMULATE	48.6	48.5	48.5	48.5	48.5	21	328.32399999999996
335.845	0	335845	wait	10004	0	0	0	0	10.0	0.0	10.0	0.0					376.25115729999743	382.8848613000009	382.8848613000009	3.5	['3', 'a', '5', 'return']	[3.624641900001734, 3.9208324999999604, 4.112517300000036, 4.920075400001224]	6.63	6.04	2.0	controle	low_pain	46.6	395.8848574000003			sub-046	250	46	46.6	48.5	COM5	COM15	COM3	2024-10-01_15h18.57.810	001-EEG_SVR_Officel	2022.2.5	60.58472743726854		14.166000000000054	0_sub-pilot046_SVR_EEG_block1-2.protocol.csv	step23	4599	457.765	STIMULATE	46.6	46.5	46.5	46.5	46.5	23	355.151
342.463	0	342463	CNhz	10003	0	0	0	0	10.0	0.0	10.0	0.0					376.25115729999743	382.8848613000009	382.8848613000009	3.5	['3', 'a', '5', 'return']	[3.624641900001734, 3.9208324999999604, 4.112517300000036, 4.920075400001224]	6.63	6.04	2.0	controle	low_pain	46.6	395.8848574000003			sub-046	250	46	46.6	48.5	COM5	COM15	COM3	2024-10-01_15h18.57.810	001-EEG_SVR_Officel	2022.2.5	60.58472743726854		6.617999999999995	0_sub-pilot046_SVR_EEG_block1-2.protocol.csv	step23	4599	457.765	STIMULATE	46.6	46.5	46.5	46.5	46.5	23	355.151
349.262	0	349262	CN/Lo	10001	0	0	0	0	10.0	0.0	10.0	0.0					376.25115729999743	382.8848613000009	382.8848613000009	3.5	['3', 'a', '5', 'return']	[3.624641900001734, 3.9208324999999604, 4.112517300000036, 4.920075400001224]	6.63	6.04	2.0	controle	low_pain	46.6	395.8848574000003			sub-046	250	46	46.6	48.5	COM5	COM15	COM3	2024-10-01_15h18.57.810	001-EEG_SVR_Officel	2022.2.5	60.58472743726854		6.048999999999978	0_sub-pilot046_SVR_EEG_block1-2.protocol.csv	step23	4599	457.765	STIMULATE	46.6	46.5	46.5	46.5	46.5	23	355.151
360.447	0	360447	wait	10004	0	0	0	0	11.0	0.0	11.0	0.0					400.8529223999976	408.1340664999989	408.1340664999989	8.0	['8', 'return']	[3.606399299998884, 4.326773699998739]	7.27	5.39	3.0	controle	high_pain	48.5	421.13425579999966			sub-046	250	46	46.6	48.5	COM5	COM15	COM3	2024-10-01_15h18.57.810	001-EEG_SVR_Officel	2022.2.5	60.58472743726854		11.935000000000002	0_sub-pilot046_SVR_EEG_block1-2.protocol.csv	step25	4847	482.346	STIMULATE	48.5	48.5	48.4	48.5	48.4	25	379.732
367.713	0	367713	CNhz	10003	0	0	0	0	11.0	0.0	11.0	0.0					400.8529223999976	408.1340664999989	408.1340664999989	8.0	['8', 'return']	[3.606399299998884, 4.326773699998739]	7.27	5.39	3.0	controle	high_pain	48.5	421.13425579999966			sub-046	250	46	46.6	48.5	COM5	COM15	COM3	2024-10-01_15h18.57.810	001-EEG_SVR_Officel	2022.2.5	60.58472743726854		7.2660000000000196	0_sub-pilot046_SVR_EEG_block1-2.protocol.csv	step25	4847	482.346	STIMULATE	48.5	48.5	48.4	48.5	48.4	25	379.732
373.868	0	373868	CN/Hi	10001	0	0	0	0	11.0	0.0	11.0	0.0					400.8529223999976	408.1340664999989	408.1340664999989	8.0	['8', 'return']	[3.606399299998884, 4.326773699998739]	7.27	5.39	3.0	controle	high_pain	48.5	421.13425579999966			sub-046	250	46	46.6	48.5	COM5	COM15	COM3	2024-10-01_15h18.57.810	001-EEG_SVR_Officel	2022.2.5	60.58472743726854		5.404999999999973	0_sub-pilot046_SVR_EEG_block1-2.protocol.csv	step25	4847	482.346	STIMULATE	48.5	48.5	48.4	48.5	48.4	25	379.732
385.096	0	385096	wait	10004	0	0	0	0	12.0	0.0	12.0	0.0					425.5018873000008	430.6344446999974	430.6344446999974	8.5	['8', 'a', '5', 'return']	[2.3091683000020566, 2.6526025000021036, 2.8849692000003415, 3.6849819000017305]	5.12	5.11	0.0	40hz	high_pain	48.5				sub-046	250	46	46.6	48.5	COM5	COM15	COM3	2024-10-01_15h18.57.810	001-EEG_SVR_Officel	2022.2.5	60.58472743726854		11.978000000000009	0_sub-pilot046_SVR_EEG_block1-2.protocol.csv	step27	5071	504.555	STIMULATE	48.6	48.4	48.5	48.5	48.5	27	401.941
390.213	0	390213	40hz	10003	0	0	0	0	12.0	0.0	12.0	0.0					425.5018873000008	430.6344446999974	430.6344446999974	8.5	['8', 'a', '5', 'return']	[2.3091683000020566, 2.6526025000021036, 2.8849692000003415, 3.6849819000017305]	5.12	5.11	0.0	40hz	high_pain	48.5				sub-046	250	46	46.6	48.5	COM5	COM15	COM3	2024-10-01_15h18.57.810	001-EEG_SVR_Officel	2022.2.5	60.58472743726854		5.117000000000019	0_sub-pilot046_SVR_EEG_block1-2.protocol.csv	step27	5071	504.555	STIMULATE	48.6	48.4	48.5	48.5	48.5	27	401.941
396.078	0	396078	40/Hi	10001	0	0	0	0	12.0	0.0	12.0	0.0					425.5018873000008	430.6344446999974	430.6344446999974	8.5	['8', 'a', '5', 'return']	[2.3091683000020566, 2.6526025000021036, 2.8849692000003415, 3.6849819000017305]	5.12	5.11	0.0	40hz	high_pain	48.5				sub-046	250	46	46.6	48.5	COM5	COM15	COM3	2024-10-01_15h18.57.810	001-EEG_SVR_Officel	2022.2.5	60.58472743726854		5.114999999999952	0_sub-pilot046_SVR_EEG_block1-2.protocol.csv	step27	5071	504.555	STIMULATE	48.6	48.4	48.5	48.5	48.5	27	401.941
406.961	0	406961	wait	10004	0	0	0	0	13.0	0.0	13.0	0.0					447.36741849999817	454.9339256999992	454.9339256999992	8.0	['8', 'return']	[3.9903563000007125, 4.6464603999993415]	7.56	5.03	1.0	controle	high_pain	48.5	467.9343977999997			sub-046	250	46	46.6	48.5	COM5	COM15	COM3	2024-10-01_15h18.57.810	001-EEG_SVR_Officel	2022.2.5	60.58472743726854		11.633000000000038	0_sub-pilot046_SVR_EEG_block1-2.protocol.csv	step29	5316	528.839	STIMULATE	48.6	48.5	48.4	48.4	48.6	29	426.2250000000001
414.512	0	414512	CNhz	10003	0	0	0	0	13.0	0.0	13.0	0.0					447.36741849999817	454.9339256999992	454.9339256999992	8.0	['8', 'return']	[3.9903563000007125, 4.6464603999993415]	7.56	5.03	1.0	controle	high_pain	48.5	467.9343977999997			sub-046	250	46	46.6	48.5	COM5	COM15	COM3	2024-10-01_15h18.57.810	001-EEG_SVR_Officel	2022.2.5	60.58472743726854		7.550999999999988	0_sub-pilot046_SVR_EEG_block1-2.protocol.csv	step29	5316	528.839	STIMULATE	48.6	48.5	48.4	48.4	48.6	29	426.2250000000001
420.295	0	420295	CN/Hi	10001	0	0	0	0	13.0	0.0	13.0	0.0					447.36741849999817	454.9339256999992	454.9339256999992	8.0	['8', 'return']	[3.9903563000007125, 4.6464603999993415]	7.56	5.03	1.0	controle	high_pain	48.5	467.9343977999997			sub-046	250	46	46.6	48.5	COM5	COM15	COM3	2024-10-01_15h18.57.810	001-EEG_SVR_Officel	2022.2.5	60.58472743726854		5.0330000000000155	0_sub-pilot046_SVR_EEG_block1-2.protocol.csv	step29	5316	528.839	STIMULATE	48.6	48.5	48.4	48.4	48.6	29	426.2250000000001
432.213	0	432213	wait	10004	0	0	0	0	14.0	0.0	14.0	0.0					472.6189811999975	479.9024422000002	479.9024422000002	2.0	['2', 'return']	[2.632301399997232, 3.2077159000000393]	7.27	5.59	2.0	40hz	low_pain	46.6				sub-046	250	46	46.6	48.5	COM5	COM15	COM3	2024-10-01_15h18.57.810	001-EEG_SVR_Officel	2022.2.5	60.58472743726854		12.668000000000006	0_sub-pilot046_SVR_EEG_block1-2.protocol.csv	step31	5573	554.369	STIMULATE	46.6	46.5	46.5	46.5	46.6	31	451.75500000000005
439.479	0	439479	40hz	10003	0	0	0	0	14.0	0.0	14.0	0.0					472.6189811999975	479.9024422000002	479.9024422000002	2.0	['2', 'return']	[2.632301399997232, 3.2077159000000393]	7.27	5.59	2.0	40hz	low_pain	46.6				sub-046	250	46	46.6	48.5	COM5	COM15	COM3	2024-10-01_15h18.57.810	001-EEG_SVR_Officel	2022.2.5	60.58472743726854		7.265999999999963	0_sub-pilot046_SVR_EEG_block1-2.protocol.csv	step31	5573	554.369	STIMULATE	46.6	46.5	46.5	46.5	46.6	31	451.75500000000005
445.834	0	445834	40/Lo	10001	0	0	0	0	14.0	0.0	14.0	0.0					472.6189811999975	479.9024422000002	479.9024422000002	2.0	['2', 'return']	[2.632301399997232, 3.2077159000000393]	7.27	5.59	2.0	40hz	low_pain	46.6				sub-046	250	46	46.6	48.5	COM5	COM15	COM3	2024-10-01_15h18.57.810	001-EEG_SVR_Officel	2022.2.5	60.58472743726854		5.605000000000018	0_sub-pilot046_SVR_EEG_block1-2.protocol.csv	step31	5573	554.369	STIMULATE	46.6	46.5	46.5	46.5	46.6	31	451.75500000000005
455.761	0	455761	wait	10004	0	0	0	0	15.0	0.0	15.0	0.0					496.1668729999983	501.9506634999998	501.9506634999998	8.5	['8', 'a', '5', 'return']	[7.495081299999583, 7.726861999999528, 7.990959200000361, 8.879291999997804]	5.78	6.38	3.0	40hz	high_pain	48.5	514.9503382999974			sub-046	250	46	46.6	48.5	COM5	COM15	COM3	2024-10-01_15h18.57.810	001-EEG_SVR_Officel	2022.2.5	60.58472743726854		10.677000000000021	0_sub-pilot046_SVR_EEG_block1-2.protocol.csv	step33	5803	577.177	STIMULATE	48.5	48.4	48.5	48.5	48.5	33	474.56300000000005
461.528	0	461528	40hz	10003	0	0	0	0	15.0	0.0	15.0	0.0					496.1668729999983	501.9506634999998	501.9506634999998	8.5	['8', 'a', '5', 'return']	[7.495081299999583, 7.726861999999528, 7.990959200000361, 8.879291999997804]	5.78	6.38	3.0	40hz	high_pain	48.5	514.9503382999974			sub-046	250	46	46.6	48.5	COM5	COM15	COM3	2024-10-01_15h18.57.810	001-EEG_SVR_Officel	2022.2.5	60.58472743726854		5.766999999999996	0_sub-pilot046_SVR_EEG_block1-2.protocol.csv	step33	5803	577.177	STIMULATE	48.5	48.4	48.5	48.5	48.5	33	474.56300000000005
468.661	0	468661	40/Hi	10001	0	0	0	0	15.0	0.0	15.0	0.0					496.1668729999983	501.9506634999998	501.9506634999998	8.5	['8', 'a', '5', 'return']	[7.495081299999583, 7.726861999999528, 7.990959200000361, 8.879291999997804]	5.78	6.38	3.0	40hz	high_pain	48.5	514.9503382999974			sub-046	250	46	46.6	48.5	COM5	COM15	COM3	2024-10-01_15h18.57.810	001-EEG_SVR_Officel	2022.2.5	60.58472743726854		6.382999999999981	0_sub-pilot046_SVR_EEG_block1-2.protocol.csv	step33	5803	577.177	STIMULATE	48.5	48.4	48.5	48.5	48.5	33	474.56300000000005
542.294	0	542294	wait	10004	1	0	1	0	0.0	0.0	0.0	0.0			p	0.5026580000012473	582.6995709999974	590.3993845000005	590.3993845000005	6.0	['6', 'return']	[3.9814282999977877, 4.549330999998347]	7.69	6.31	0.0	20hz	low_pain	46.6	603.3996638999997			sub-046	250	46	46.6	48.5	COM5	COM15	COM3	2024-10-01_15h18.57.810	001-EEG_SVR_Officel	2022.2.5	60.58472743726854		74.38299999999998	0_sub-pilot046_SVR_EEG_block1-2.protocol.csv	step35	6689	665.554	STIMULATE	46.6	46.5	46.5	46.5	46.6	35	562.944
549.978	0	549978	20hz	10003	1	0	1	0	0.0	0.0	0.0	0.0			p	0.5026580000012473	582.6995709999974	590.3993845000005	590.3993845000005	6.0	['6', 'return']	[3.9814282999977877, 4.549330999998347]	7.69	6.31	0.0	20hz	low_pain	46.6	603.3996638999997			sub-046	250	46	46.6	48.5	COM5	COM15	COM3	2024-10-01_15h18.57.810	001-EEG_SVR_Officel	2022.2.5	60.58472743726854		7.683999999999969	0_sub-pilot046_SVR_EEG_block1-2.protocol.csv	step35	6689	665.554	STIMULATE	46.6	46.5	46.5	46.5	46.6	35	562.944
557.043	0	557043	20/Lo	10001	1	0	1	0	0.0	0.0	0.0	0.0			p	0.5026580000012473	582.6995709999974	590.3993845000005	590.3993845000005	6.0	['6', 'return']	[3.9814282999977877, 4.549330999998347]	7.69	6.31	0.0	20hz	low_pain	46.6	603.3996638999997			sub-046	250	46	46.6	48.5	COM5	COM15	COM3	2024-10-01_15h18.57.810	001-EEG_SVR_Officel	2022.2.5	60.58472743726854		6.315000000000055	0_sub-pilot046_SVR_EEG_block1-2.protocol.csv	step35	6689	665.554	STIMULATE	46.6	46.5	46.5	46.5	46.6	35	562.944
567.576	0	567576	wait	10004	1	0	1	0	1.0	0.0	1.0	0.0					607.9823359000002	615.7676320999999	615.7676320999999	4.5	['4', 'a', '5', 'return']	[3.3058506999987003, 3.528978199999983, 3.9126201999970363, 4.841149199997744]	7.77	6.09	1.0	40hz	low_pain	46.6				sub-046	250	46	46.6	48.5	COM5	COM15	COM3	2024-10-01_15h18.57.810	001-EEG_SVR_Officel	2022.2.5	60.58472743726854		11.283000000000015	0_sub-pilot046_SVR_EEG_block1-2.protocol.csv	step37	6943	690.762	STIMULATE	46.6	46.5	46.5	46.5	46.6	37	588.1519999999999
575.344	0	575344	40hz	10003	1	0	1	0	1.0	0.0	1.0	0.0					607.9823359000002	615.7676320999999	615.7676320999999	4.5	['4', 'a', '5', 'return']	[3.3058506999987003, 3.528978199999983, 3.9126201999970363, 4.841149199997744]	7.77	6.09	1.0	40hz	low_pain	46.6				sub-046	250	46	46.6	48.5	COM5	COM15	COM3	2024-10-01_15h18.57.810	001-EEG_SVR_Officel	2022.2.5	60.58472743726854		7.768000000000029	0_sub-pilot046_SVR_EEG_block1-2.protocol.csv	step37	6943	690.762	STIMULATE	46.6	46.5	46.5	46.5	46.6	37	588.1519999999999
582.194	0	582194	40/Lo	10001	1	0	1	0	1.0	0.0	1.0	0.0					607.9823359000002	615.7676320999999	615.7676320999999	4.5	['4', 'a', '5', 'return']	[3.3058506999987003, 3.528978199999983, 3.9126201999970363, 4.841149199997744]	7.77	6.09	1.0	40hz	low_pain	46.6				sub-046	250	46	46.6	48.5	COM5	COM15	COM3	2024-10-01_15h18.57.810	001-EEG_SVR_Officel	2022.2.5	60.58472743726854		6.099999999999909	0_sub-pilot046_SVR_EEG_block1-2.protocol.csv	step37	6943	690.762	STIMULATE	46.6	46.5	46.5	46.5	46.6	37	588.1519999999999
593.243	0	593243	wait	10004	1	0	1	0	2.0	0.0	2.0	0.0					633.6489541999981	641.6490563999978	641.6490563999978	8.0	['7', 'a', '5', 'backspace', 'backspace', 'backspace', '8', 'return']	[5.283510400000523, 5.707128999998531, 5.979336699998385, 7.436896699997305, 7.58691589999944, 7.876202299998113, 8.651218799997878, 9.171238999999332]	7.99	6.48	2.0	controle	high_pain	48.5				sub-046	250	46	46.6	48.5	COM5	COM15	COM3	2024-10-01_15h18.57.810	001-EEG_SVR_Officel	2022.2.5	60.58472743726854		11.799000000000092	0_sub-pilot046_SVR_EEG_block1-2.protocol.csv	step39	7207	716.985	STIMULATE	48.5	48.4	48.5	48.5	48.5	39	614.375
601.227	0	601227	CNhz	10003	1	0	1	0	2.0	0.0	2.0	0.0					633.6489541999981	641.6490563999978	641.6490563999978	8.0	['7', 'a', '5', 'backspace', 'backspace', 'backspace', '8', 'return']	[5.283510400000523, 5.707128999998531, 5.979336699998385, 7.436896699997305, 7.58691589999944, 7.876202299998113, 8.651218799997878, 9.171238999999332]	7.99	6.48	2.0	controle	high_pain	48.5				sub-046	250	46	46.6	48.5	COM5	COM15	COM3	2024-10-01_15h18.57.810	001-EEG_SVR_Officel	2022.2.5	60.58472743726854		7.983999999999924	0_sub-pilot046_SVR_EEG_block1-2.protocol.csv	step39	7207	716.985	STIMULATE	48.5	48.4	48.5	48.5	48.5	39	614.375
608.46	0	608460	CN/Hi	10001	1	0	1	0	2.0	0.0	2.0	0.0					633.6489541999981	641.6490563999978	641.6490563999978	8.0	['7', 'a', '5', 'backspace', 'backspace', 'backspace', '8', 'return']	[5.283510400000523, 5.707128999998531, 5.979336699998385, 7.436896699997305, 7.58691589999944, 7.876202299998113, 8.651218799997878, 9.171238999999332]	7.99	6.48	2.0	controle	high_pain	48.5				sub-046	250	46	46.6	48.5	COM5	COM15	COM3	2024-10-01_15h18.57.810	001-EEG_SVR_Officel	2022.2.5	60.58472743726854		6.483000000000061	0_sub-pilot046_SVR_EEG_block1-2.protocol.csv	step39	7207	716.985	STIMULATE	48.5	48.4	48.5	48.5	48.5	39	614.375
623.459	0	623459	wait	10004	1	0	1	0	3.0	0.0	3.0	0.0					663.8652237999995	669.0651937000002	669.0651937000002	6.0	['6', 'return']	[2.307905000001483, 2.9329886000014085]	5.2	5.5	3.0	40hz	low_pain	46.6				sub-046	250	46	46.6	48.5	COM5	COM15	COM3	2024-10-01_15h18.57.810	001-EEG_SVR_Officel	2022.2.5	60.58472743726854		15.74899999999991	0_sub-pilot046_SVR_EEG_block1-2.protocol.csv	step41	7473	743.372	STIMULATE	46.5	46.5	46.5	46.5	46.5	41	640.762
628.643	0	628643	40hz	10003	1	0	1	0	3.0	0.0	3.0	0.0					663.8652237999995	669.0651937000002	669.0651937000002	6.0	['6', 'return']	[2.307905000001483, 2.9329886000014085]	5.2	5.5	3.0	40hz	low_pain	46.6				sub-046	250	46	46.6	48.5	COM5	COM15	COM3	2024-10-01_15h18.57.810	001-EEG_SVR_Officel	2022.2.5	60.58472743726854		5.184000000000083	0_sub-pilot046_SVR_EEG_block1-2.protocol.csv	step41	7473	743.372	STIMULATE	46.5	46.5	46.5	46.5	46.5	41	640.762
634.893	0	634893	40/Lo	10001	1	0	1	0	3.0	0.0	3.0	0.0					663.8652237999995	669.0651937000002	669.0651937000002	6.0	['6', 'return']	[2.307905000001483, 2.9329886000014085]	5.2	5.5	3.0	40hz	low_pain	46.6				sub-046	250	46	46.6	48.5	COM5	COM15	COM3	2024-10-01_15h18.57.810	001-EEG_SVR_Officel	2022.2.5	60.58472743726854		5.5	0_sub-pilot046_SVR_EEG_block1-2.protocol.csv	step41	7473	743.372	STIMULATE	46.5	46.5	46.5	46.5	46.5	41	640.762
644.632	0	644632	wait	10004	1	0	1	0	4.0	0.0	4.0	0.0					685.0375349999995	692.3316096999988	692.3316096999988	4.5	['4', 'a', '5', 'return']	[2.3533000999996148, 2.6092982000009215, 2.82450229999813, 3.504588399999193]	7.29	5.68	0.0	10hz	low_pain	46.6	705.3320907999987			sub-046	250	46	46.6	48.5	COM5	COM15	COM3	2024-10-01_15h18.57.810	001-EEG_SVR_Officel	2022.2.5	60.58472743726854		10.488999999999919	0_sub-pilot046_SVR_EEG_block1-2.protocol.csv	step43	7709	766.86	STIMULATE	46.8	46.5	46.5	46.5	46.6	43	664.25
651.91	0	651910	10hz	10003	1	0	1	0	4.0	0.0	4.0	0.0					685.0375349999995	692.3316096999988	692.3316096999988	4.5	['4', 'a', '5', 'return']	[2.3533000999996148, 2.6092982000009215, 2.82450229999813, 3.504588399999193]	7.29	5.68	0.0	10hz	low_pain	46.6	705.3320907999987			sub-046	250	46	46.6	48.5	COM5	COM15	COM3	2024-10-01_15h18.57.810	001-EEG_SVR_Officel	2022.2.5	60.58472743726854		7.27800000000002	0_sub-pilot046_SVR_EEG_block1-2.protocol.csv	step43	7709	766.86	STIMULATE	46.8	46.5	46.5	46.5	46.6	43	664.25
658.343	0	658343	10/Lo	10001	1	0	1	0	4.0	0.0	4.0	0.0					685.0375349999995	692.3316096999988	692.3316096999988	4.5	['4', 'a', '5', 'return']	[2.3533000999996148, 2.6092982000009215, 2.82450229999813, 3.504588399999193]	7.29	5.68	0.0	10hz	low_pain	46.6	705.3320907999987			sub-046	250	46	46.6	48.5	COM5	COM15	COM3	2024-10-01_15h18.57.810	001-EEG_SVR_Officel	2022.2.5	60.58472743726854		5.682999999999993	0_sub-pilot046_SVR_EEG_block1-2.protocol.csv	step43	7709	766.86	STIMULATE	46.8	46.5	46.5	46.5	46.6	43	664.25
668.476	0	668476	wait	10004	1	0	1	0	5.0	0.0	5.0	0.0					708.8817190000009	716.8313662	716.8313662	3.0	['3', 'return']	[7.901113600000826, 8.613444899998285]	7.95	5.79	1.0	20hz	low_pain	46.6	729.8317781999976			sub-046	250	46	46.6	48.5	COM5	COM15	COM3	2024-10-01_15h18.57.810	001-EEG_SVR_Officel	2022.2.5	60.58472743726854		10.883000000000038	0_sub-pilot046_SVR_EEG_block1-2.protocol.csv	step45	7955	791.497	STIMULATE	46.6	46.5	46.5	46.5	46.6	45	688.887
676.41	0	676410	20hz	10003	1	0	1	0	5.0	0.0	5.0	0.0					708.8817190000009	716.8313662	716.8313662	3.0	['3', 'return']	[7.901113600000826, 8.613444899998285]	7.95	5.79	1.0	20hz	low_pain	46.6	729.8317781999976			sub-046	250	46	46.6	48.5	COM5	COM15	COM3	2024-10-01_15h18.57.810	001-EEG_SVR_Officel	2022.2.5	60.58472743726854		7.933999999999969	0_sub-pilot046_SVR_EEG_block1-2.protocol.csv	step45	7955	791.497	STIMULATE	46.6	46.5	46.5	46.5	46.6	45	688.887
682.96	0	682960	20/Lo	10001	1	0	1	0	5.0	0.0	5.0	0.0					708.8817190000009	716.8313662	716.8313662	3.0	['3', 'return']	[7.901113600000826, 8.613444899998285]	7.95	5.79	1.0	20hz	low_pain	46.6	729.8317781999976			sub-046	250	46	46.6	48.5	COM5	COM15	COM3	2024-10-01_15h18.57.810	001-EEG_SVR_Officel	2022.2.5	60.58472743726854		5.800000000000068	0_sub-pilot046_SVR_EEG_block1-2.protocol.csv	step45	7955	791.497	STIMULATE	46.6	46.5	46.5	46.5	46.6	45	688.887
698.075	0	698075	wait	10004	1	0	1	0	6.0	0.0	6.0	0.0					738.4812724000003	746.1646817000001	746.1646817000001	8.5	['8', 'a', '5', 'return']	[2.7191555999997945, 3.1908011000014085, 3.374623799998517, 4.4464838999992935]	7.68	6.3	2.0	20hz	high_pain	48.5	759.1663802000003			sub-046	250	46	46.6	48.5	COM5	COM15	COM3	2024-10-01_15h18.57.810	001-EEG_SVR_Officel	2022.2.5	60.58472743726854		15.865000000000009	0_sub-pilot046_SVR_EEG_block1-2.protocol.csv	step47	8247	821.354	STIMULATE	48.5	48.5	48.5	48.5	48.5	47	718.744
705.743	0	705743	20hz	10003	1	0	1	0	6.0	0.0	6.0	0.0					738.4812724000003	746.1646817000001	746.1646817000001	8.5	['8', 'a', '5', 'return']	[2.7191555999997945, 3.1908011000014085, 3.374623799998517, 4.4464838999992935]	7.68	6.3	2.0	20hz	high_pain	48.5	759.1663802000003			sub-046	250	46	46.6	48.5	COM5	COM15	COM3	2024-10-01_15h18.57.810	001-EEG_SVR_Officel	2022.2.5	60.58472743726854		7.668000000000006	0_sub-pilot046_SVR_EEG_block1-2.protocol.csv	step47	8247	821.354	STIMULATE	48.5	48.5	48.5	48.5	48.5	47	718.744
712.809	0	712809	20/Hi	10001	1	0	1	0	6.0	0.0	6.0	0.0					738.4812724000003	746.1646817000001	746.1646817000001	8.5	['8', 'a', '5', 'return']	[2.7191555999997945, 3.1908011000014085, 3.374623799998517, 4.4464838999992935]	7.68	6.3	2.0	20hz	high_pain	48.5	759.1663802000003			sub-046	250	46	46.6	48.5	COM5	COM15	COM3	2024-10-01_15h18.57.810	001-EEG_SVR_Officel	2022.2.5	60.58472743726854		6.315999999999917	0_sub-pilot046_SVR_EEG_block1-2.protocol.csv	step47	8247	821.354	STIMULATE	48.5	48.5	48.5	48.5	48.5	47	718.744
723.242	0	723242	wait	10004	1	0	1	0	7.0	0.0	7.0	0.0					763.6475250000003	769.9870378999985	769.9870378999985	3.0	['3', 'return']	[4.52753870000015, 5.470695200001501]	6.34	6.25	3.0	10hz	low_pain	46.6				sub-046	250	46	46.6	48.5	COM5	COM15	COM3	2024-10-01_15h18.57.810	001-EEG_SVR_Officel	2022.2.5	60.58472743726854		11.182999999999993	0_sub-pilot046_SVR_EEG_block1-2.protocol.csv	step49	8475	845.118	STIMULATE	46.6	46.5	46.5	46.5	46.5	49	742.508
729.564	0	729564	10hz	10003	1	0	1	0	7.0	0.0	7.0	0.0					763.6475250000003	769.9870378999985	769.9870378999985	3.0	['3', 'return']	[4.52753870000015, 5.470695200001501]	6.34	6.25	3.0	10hz	low_pain	46.6				sub-046	250	46	46.6	48.5	COM5	COM15	COM3	2024-10-01_15h18.57.810	001-EEG_SVR_Officel	2022.2.5	60.58472743726854		6.322000000000003	0_sub-pilot046_SVR_EEG_block1-2.protocol.csv	step49	8475	845.118	STIMULATE	46.6	46.5	46.5	46.5	46.5	49	742.508
736.576	0	736576	10/Lo	10001	1	0	1	0	7.0	0.0	7.0	0.0					763.6475250000003	769.9870378999985	769.9870378999985	3.0	['3', 'return']	[4.52753870000015, 5.470695200001501]	6.34	6.25	3.0	10hz	low_pain	46.6				sub-046	250	46	46.6	48.5	COM5	COM15	COM3	2024-10-01_15h18.57.810	001-EEG_SVR_Officel	2022.2.5	60.58472743726854		6.262000000000057	0_sub-pilot046_SVR_EEG_block1-2.protocol.csv	step49	8475	845.118	STIMULATE	46.6	46.5	46.5	46.5	46.5	49	742.508
748.108	0	748108	wait	10004	1	0	1	0	8.0	0.0	8.0	0.0					788.5139538999974	795.2475371	795.2475371	8.0	['8', 'return']	[3.748762399998668, 4.461402500000986]	6.73	5.99	0.0	10hz	high_pain	48.5	808.2476027999983			sub-046	250	46	46.6	48.5	COM5	COM15	COM3	2024-10-01_15h18.57.810	001-EEG_SVR_Officel	2022.2.5	60.58472743726854		12.281999999999925	0_sub-pilot046_SVR_EEG_block1-2.protocol.csv	step51	8713	870.088	STIMULATE	48.7	48.4	48.4	48.4	48.5	51	767.478
754.826	0	754826	10hz	10003	1	0	1	0	8.0	0.0	8.0	0.0					788.5139538999974	795.2475371	795.2475371	8.0	['8', 'return']	[3.748762399998668, 4.461402500000986]	6.73	5.99	0.0	10hz	high_pain	48.5	808.2476027999983			sub-046	250	46	46.6	48.5	COM5	COM15	COM3	2024-10-01_15h18.57.810	001-EEG_SVR_Officel	2022.2.5	60.58472743726854		6.718000000000075	0_sub-pilot046_SVR_EEG_block1-2.protocol.csv	step51	8713	870.088	STIMULATE	48.7	48.4	48.4	48.4	48.5	51	767.478
761.575	0	761575	10/Hi	10001	1	0	1	0	8.0	0.0	8.0	0.0					788.5139538999974	795.2475371	795.2475371	8.0	['8', 'return']	[3.748762399998668, 4.461402500000986]	6.73	5.99	0.0	10hz	high_pain	48.5	808.2476027999983			sub-046	250	46	46.6	48.5	COM5	COM15	COM3	2024-10-01_15h18.57.810	001-EEG_SVR_Officel	2022.2.5	60.58472743726854		5.999000000000024	0_sub-pilot046_SVR_EEG_block1-2.protocol.csv	step51	8713	870.088	STIMULATE	48.7	48.4	48.4	48.4	48.5	51	767.478
772.341	0	772341	wait	10004	1	0	1	0	9.0	0.0	9.0	0.0					812.7472378999992	819.6474138999984	819.6474138999984	3.0	['3', 'return']	[2.6853174999996554, 3.332780000000639]	6.9	6.31	1.0	10hz	low_pain	46.6	832.647550499998			sub-046	250	46	46.6	48.5	COM5	COM15	COM3	2024-10-01_15h18.57.810	001-EEG_SVR_Officel	2022.2.5	60.58472743726854		11.515999999999963	0_sub-pilot046_SVR_EEG_block1-2.protocol.csv	step53	8947	894.833	STIMULATE	46.7	46.5	46.5	46.5	46.7	53	792.223
779.226	0	779226	10hz	10003	1	0	1	0	9.0	0.0	9.0	0.0					812.7472378999992	819.6474138999984	819.6474138999984	3.0	['3', 'return']	[2.6853174999996554, 3.332780000000639]	6.9	6.31	1.0	10hz	low_pain	46.6	832.647550499998			sub-046	250	46	46.6	48.5	COM5	COM15	COM3	2024-10-01_15h18.57.810	001-EEG_SVR_Officel	2022.2.5	60.58472743726854		6.884999999999991	0_sub-pilot046_SVR_EEG_block1-2.protocol.csv	step53	8947	894.833	STIMULATE	46.7	46.5	46.5	46.5	46.7	53	792.223
786.292	0	786292	10/Lo	10001	1	0	1	0	9.0	0.0	9.0	0.0					812.7472378999992	819.6474138999984	819.6474138999984	3.0	['3', 'return']	[2.6853174999996554, 3.332780000000639]	6.9	6.31	1.0	10hz	low_pain	46.6	832.647550499998			sub-046	250	46	46.6	48.5	COM5	COM15	COM3	2024-10-01_15h18.57.810	001-EEG_SVR_Officel	2022.2.5	60.58472743726854		6.316000000000031	0_sub-pilot046_SVR_EEG_block1-2.protocol.csv	step53	8947	894.833	STIMULATE	46.7	46.5	46.5	46.5	46.7	53	792.223
795.614	0	795614	wait	10004	1	0	1	0	10.0	0.0	10.0	0.0					836.0199958999983	843.0138860999978	843.0138860999978	8.0	['8', 'return']	[2.3035717999991903, 2.815542699998332]	6.99	5.49	2.0	40hz	high_pain	48.5	856.0139294			sub-046	250	46	46.6	48.5	COM5	COM15	COM3	2024-10-01_15h18.57.810	001-EEG_SVR_Officel	2022.2.5	60.58472743726854		10.072000000000003	0_sub-pilot046_SVR_EEG_block1-2.protocol.csv	step55	9158	917.369	STIMULATE	48.5	48.5	48.5	48.5	48.5	55	814.759
802.592	0	802592	40hz	10003	1	0	1	0	10.0	0.0	10.0	0.0					836.0199958999983	843.0138860999978	843.0138860999978	8.0	['8', 'return']	[2.3035717999991903, 2.815542699998332]	6.99	5.49	2.0	40hz	high_pain	48.5	856.0139294			sub-046	250	46	46.6	48.5	COM5	COM15	COM3	2024-10-01_15h18.57.810	001-EEG_SVR_Officel	2022.2.5	60.58472743726854		6.977999999999952	0_sub-pilot046_SVR_EEG_block1-2.protocol.csv	step55	9158	917.369	STIMULATE	48.5	48.5	48.5	48.5	48.5	55	814.759
808.841	0	808841	40/Hi	10001	1	0	1	0	10.0	0.0	10.0	0.0					836.0199958999983	843.0138860999978	843.0138860999978	8.0	['8', 'return']	[2.3035717999991903, 2.815542699998332]	6.99	5.49	2.0	40hz	high_pain	48.5	856.0139294			sub-046	250	46	46.6	48.5	COM5	COM15	COM3	2024-10-01_15h18.57.810	001-EEG_SVR_Officel	2022.2.5	60.58472743726854		5.499000000000024	0_sub-pilot046_SVR_EEG_block1-2.protocol.csv	step55	9158	917.369	STIMULATE	48.5	48.5	48.5	48.5	48.5	55	814.759
818.457	0	818457	wait	10004	1	0	1	0	11.0	0.0	11.0	0.0					858.8635871999977	863.9470403999985	863.9470403999985	7.0	['7', 'return']	[2.626362400002108, 3.2577782000007574]	5.07	5.12	3.0	controle	low_pain	46.6	876.9471391000006			sub-046	250	46	46.6	48.5	COM5	COM15	COM3	2024-10-01_15h18.57.810	001-EEG_SVR_Officel	2022.2.5	60.58472743726854		10.365999999999985	0_sub-pilot046_SVR_EEG_block1-2.protocol.csv	step57	9349	937.966	STIMULATE	46.6	46.5	46.5	46.5	46.5	57	835.356
823.525	0	823525	CNhz	10003	1	0	1	0	11.0	0.0	11.0	0.0					858.8635871999977	863.9470403999985	863.9470403999985	7.0	['7', 'return']	[2.626362400002108, 3.2577782000007574]	5.07	5.12	3.0	controle	low_pain	46.6	876.9471391000006			sub-046	250	46	46.6	48.5	COM5	COM15	COM3	2024-10-01_15h18.57.810	001-EEG_SVR_Officel	2022.2.5	60.58472743726854		5.067999999999984	0_sub-pilot046_SVR_EEG_block1-2.protocol.csv	step57	9349	937.966	STIMULATE	46.6	46.5	46.5	46.5	46.5	57	835.356
829.408	0	829408	CN/Lo	10001	1	0	1	0	11.0	0.0	11.0	0.0					858.8635871999977	863.9470403999985	863.9470403999985	7.0	['7', 'return']	[2.626362400002108, 3.2577782000007574]	5.07	5.12	3.0	controle	low_pain	46.6	876.9471391000006			sub-046	250	46	46.6	48.5	COM5	COM15	COM3	2024-10-01_15h18.57.810	001-EEG_SVR_Officel	2022.2.5	60.58472743726854		5.133000000000038	0_sub-pilot046_SVR_EEG_block1-2.protocol.csv	step57	9349	937.966	STIMULATE	46.6	46.5	46.5	46.5	46.5	57	835.356
839.841	0	839841	wait	10004	1	0	1	0	12.0	0.0	12.0	0.0					880.2467332999986	885.4467485999994	885.4467485999994	8.5	['8', 'a', '5', 'return']	[1.894333000000188, 2.398911500000395, 2.5660876000001736, 3.2296295999985887]	5.2	5.11	0.0	controle	high_pain	48.5	898.4470674999975			sub-046	250	46	46.6	48.5	COM5	COM15	COM3	2024-10-01_15h18.57.810	001-EEG_SVR_Officel	2022.2.5	60.58472743726854		11.182999999999993	0_sub-pilot046_SVR_EEG_block1-2.protocol.csv	step59	9547	959.515	STIMULATE	48.7	48.5	48.5	48.5	48.6	59	856.905
845.025	0	845025	CNhz	10003	1	0	1	0	12.0	0.0	12.0	0.0					880.2467332999986	885.4467485999994	885.4467485999994	8.5	['8', 'a', '5', 'return']	[1.894333000000188, 2.398911500000395, 2.5660876000001736, 3.2296295999985887]	5.2	5.11	0.0	controle	high_pain	48.5	898.4470674999975			sub-046	250	46	46.6	48.5	COM5	COM15	COM3	2024-10-01_15h18.57.810	001-EEG_SVR_Officel	2022.2.5	60.58472743726854		5.183999999999969	0_sub-pilot046_SVR_EEG_block1-2.protocol.csv	step59	9547	959.515	STIMULATE	48.7	48.5	48.5	48.5	48.6	59	856.905
850.891	0	850891	CN/Hi	10001	1	0	1	0	12.0	0.0	12.0	0.0					880.2467332999986	885.4467485999994	885.4467485999994	8.5	['8', 'a', '5', 'return']	[1.894333000000188, 2.398911500000395, 2.5660876000001736, 3.2296295999985887]	5.2	5.11	0.0	controle	high_pain	48.5	898.4470674999975			sub-046	250	46	46.6	48.5	COM5	COM15	COM3	2024-10-01_15h18.57.810	001-EEG_SVR_Officel	2022.2.5	60.58472743726854		5.1159999999999854	0_sub-pilot046_SVR_EEG_block1-2.protocol.csv	step59	9547	959.515	STIMULATE	48.7	48.5	48.5	48.5	48.6	59	856.905
861.307	0	861307	wait	10004	1	0	1	0	13.0	0.0	13.0	0.0					901.7131678000004	907.6631037999978	907.6631037999978	9.0	['9', 'return']	[2.1843205000004673, 2.6799601999991864]	5.94	5.08	1.0	10hz	high_pain	48.5				sub-046	250	46	46.6	48.5	COM5	COM15	COM3	2024-10-01_15h18.57.810	001-EEG_SVR_Officel	2022.2.5	60.58472743726854		11.166000000000054	0_sub-pilot046_SVR_EEG_block1-2.protocol.csv	step61	9748	981.577	STIMULATE	48.6	48.5	48.5	48.5	48.5	61	878.967
867.241	0	867241	10hz	10003	1	0	1	0	13.0	0.0	13.0	0.0					901.7131678000004	907.6631037999978	907.6631037999978	9.0	['9', 'return']	[2.1843205000004673, 2.6799601999991864]	5.94	5.08	1.0	10hz	high_pain	48.5				sub-046	250	46	46.6	48.5	COM5	COM15	COM3	2024-10-01_15h18.57.810	001-EEG_SVR_Officel	2022.2.5	60.58472743726854		5.933999999999969	0_sub-pilot046_SVR_EEG_block1-2.protocol.csv	step61	9748	981.577	STIMULATE	48.6	48.5	48.5	48.5	48.5	61	878.967
873.08	0	873080	10/Hi	10001	1	0	1	0	13.0	0.0	13.0	0.0					901.7131678000004	907.6631037999978	907.6631037999978	9.0	['9', 'return']	[2.1843205000004673, 2.6799601999991864]	5.94	5.08	1.0	10hz	high_pain	48.5				sub-046	250	46	46.6	48.5	COM5	COM15	COM3	2024-10-01_15h18.57.810	001-EEG_SVR_Officel	2022.2.5	60.58472743726854		5.0890000000000555	0_sub-pilot046_SVR_EEG_block1-2.protocol.csv	step61	9748	981.577	STIMULATE	48.6	48.5	48.5	48.5	48.5	61	878.967
882.99	0	882990	wait	10004	1	0	1	0	14.0	0.0	14.0	0.0					923.3962444999996	929.246308499998	929.246308499998	4.0	['4', 'return']	[4.030771699999605, 4.790442900000926]	5.85	6.02	2.0	10hz	low_pain	46.6	942.2460911999988			sub-046	250	46	46.6	48.5	COM5	COM15	COM3	2024-10-01_15h18.57.810	001-EEG_SVR_Officel	2022.2.5	60.58472743726854		10.659999999999968	0_sub-pilot046_SVR_EEG_block1-2.protocol.csv	step63	9953	1004.196	STIMULATE	46.6	46.5	46.5	46.5	46.6	63	901.586
888.824	0	888824	10hz	10003	1	0	1	0	14.0	0.0	14.0	0.0					923.3962444999996	929.246308499998	929.246308499998	4.0	['4', 'return']	[4.030771699999605, 4.790442900000926]	5.85	6.02	2.0	10hz	low_pain	46.6	942.2460911999988			sub-046	250	46	46.6	48.5	COM5	COM15	COM3	2024-10-01_15h18.57.810	001-EEG_SVR_Officel	2022.2.5	60.58472743726854		5.833999999999946	0_sub-pilot046_SVR_EEG_block1-2.protocol.csv	step63	9953	1004.196	STIMULATE	46.6	46.5	46.5	46.5	46.6	63	901.586
895.609	0	895609	10/Lo	10001	1	0	1	0	14.0	0.0	14.0	0.0					923.3962444999996	929.246308499998	929.246308499998	4.0	['4', 'return']	[4.030771699999605, 4.790442900000926]	5.85	6.02	2.0	10hz	low_pain	46.6	942.2460911999988			sub-046	250	46	46.6	48.5	COM5	COM15	COM3	2024-10-01_15h18.57.810	001-EEG_SVR_Officel	2022.2.5	60.58472743726854		6.035000000000082	0_sub-pilot046_SVR_EEG_block1-2.protocol.csv	step63	9953	1004.196	STIMULATE	46.6	46.5	46.5	46.5	46.6	63	901.586
906.673	0	906673	wait	10004	1	0	1	0	15.0	0.0	15.0	0.0					947.0793430999984	952.8627142000004	952.8627142000004	4.0	['4', 'return']	[7.92631419999816, 8.614091499999631]	5.77	5.51	3.0	20hz	low_pain	46.6	965.8627500999974			sub-046	250	46	46.6	48.5	COM5	COM15	COM3	2024-10-01_15h18.57.810	001-EEG_SVR_Officel	2022.2.5	60.58472743726854		11.813999999999965	0_sub-pilot046_SVR_EEG_block1-2.protocol.csv	step65	10159	1027.194	STIMULATE	46.5	46.5	46.5	46.5	46.6	65	924.584
912.441	0	912441	20hz	10003	1	0	1	0	15.0	0.0	15.0	0.0					947.0793430999984	952.8627142000004	952.8627142000004	4.0	['4', 'return']	[7.92631419999816, 8.614091499999631]	5.77	5.51	3.0	20hz	low_pain	46.6	965.8627500999974			sub-046	250	46	46.6	48.5	COM5	COM15	COM3	2024-10-01_15h18.57.810	001-EEG_SVR_Officel	2022.2.5	60.58472743726854		5.768000000000029	0_sub-pilot046_SVR_EEG_block1-2.protocol.csv	step65	10159	1027.194	STIMULATE	46.5	46.5	46.5	46.5	46.6	65	924.584
918.707	0	918707	20/Lo	10001	1	0	1	0	15.0	0.0	15.0	0.0					947.0793430999984	952.8627142000004	952.8627142000004	4.0	['4', 'return']	[7.92631419999816, 8.614091499999631]	5.77	5.51	3.0	20hz	low_pain	46.6	965.8627500999974			sub-046	250	46	46.6	48.5	COM5	COM15	COM3	2024-10-01_15h18.57.810	001-EEG_SVR_Officel	2022.2.5	60.58472743726854		5.515999999999963	0_sub-pilot046_SVR_EEG_block1-2.protocol.csv	step65	10159	1027.194	STIMULATE	46.5	46.5	46.5	46.5	46.6	65	924.584
972.756	0	972756	wait	10004	2	0	2	0	0.0	0.0	0.0	0.0			p	0.5970421999991231	1060.5283866999998	1065.9120803000003	1065.9120803000003	8.5	['8', 'a', '5', 'return']	[3.7886524999994435, 4.212803099999292, 4.436926200000016, 5.0686132999981055]	5.37	5.81	0.0	20hz	high_pain	48.5	1078.9120890999984			sub-046	250	46	46.6	48.5	COM5	COM15	COM3	2024-10-01_15h18.57.810	001-EEG_SVR_Officel	2022.2.5	60.58472743726854		54.79899999999998	1_sub-pilot046_SVR_EEG_block3-4.protocol.csv	step3	965	96.316	STIMULATE	48.7	48.5	48.4	48.5	48.5	3	990.467
978.124	0	978124	20hz	10003	2	0	2	0	0.0	0.0	0.0	0.0			p	0.5970421999991231	1060.5283866999998	1065.9120803000003	1065.9120803000003	8.5	['8', 'a', '5', 'return']	[3.7886524999994435, 4.212803099999292, 4.436926200000016, 5.0686132999981055]	5.37	5.81	0.0	20hz	high_pain	48.5	1078.9120890999984			sub-046	250	46	46.6	48.5	COM5	COM15	COM3	2024-10-01_15h18.57.810	001-EEG_SVR_Officel	2022.2.5	60.58472743726854		5.368000000000052	1_sub-pilot046_SVR_EEG_block3-4.protocol.csv	step3	965	96.316	STIMULATE	48.7	48.5	48.4	48.5	48.5	3	990.467
984.691	0	984691	20/Hi	10001	2	0	2	0	0.0	0.0	0.0	0.0			p	0.5970421999991231	1060.5283866999998	1065.9120803000003	1065.9120803000003	8.5	['8', 'a', '5', 'return']	[3.7886524999994435, 4.212803099999292, 4.436926200000016, 5.0686132999981055]	5.37	5.81	0.0	20hz	high_pain	48.5	1078.9120890999984			sub-046	250	46	46.6	48.5	COM5	COM15	COM3	2024-10-01_15h18.57.810	001-EEG_SVR_Officel	2022.2.5	60.58472743726854		5.817000000000007	1_sub-pilot046_SVR_EEG_block3-4.protocol.csv	step3	965	96.316	STIMULATE	48.7	48.5	48.4	48.5	48.5	3	990.467
996.256	0	996256	wait	10004	2	0	2	0	1.0	0.0	1.0	0.0					1084.028272399999	1090.2951027999989	1090.2951027999989	8.0	['8', 'return']	[2.1737857000007352, 2.6782271999982186]	6.26	5.07	1.0	10hz	high_pain	48.5	1103.295136599998			sub-046	250	46	46.6	48.5	COM5	COM15	COM3	2024-10-01_15h18.57.810	001-EEG_SVR_Officel	2022.2.5	60.58472743726854		12.31499999999994	1_sub-pilot046_SVR_EEG_block3-4.protocol.csv	step5	1204	120.043	STIMULATE	48.6	48.5	48.5	48.5	48.7	5	1014.1940000000001
1002.507	0	1002507	10hz	10003	2	0	2	0	1.0	0.0	1.0	0.0					1084.028272399999	1090.2951027999989	1090.2951027999989	8.0	['8', 'return']	[2.1737857000007352, 2.6782271999982186]	6.26	5.07	1.0	10hz	high_pain	48.5	1103.295136599998			sub-046	250	46	46.6	48.5	COM5	COM15	COM3	2024-10-01_15h18.57.810	001-EEG_SVR_Officel	2022.2.5	60.58472743726854		6.250999999999976	1_sub-pilot046_SVR_EEG_block3-4.protocol.csv	step5	1204	120.043	STIMULATE	48.6	48.5	48.5	48.5	48.7	5	1014.1940000000001
1008.34	0	1008340	10/Hi	10001	2	0	2	0	1.0	0.0	1.0	0.0					1084.028272399999	1090.2951027999989	1090.2951027999989	8.0	['8', 'return']	[2.1737857000007352, 2.6782271999982186]	6.26	5.07	1.0	10hz	high_pain	48.5	1103.295136599998			sub-046	250	46	46.6	48.5	COM5	COM15	COM3	2024-10-01_15h18.57.810	001-EEG_SVR_Officel	2022.2.5	60.58472743726854		5.083000000000084	1_sub-pilot046_SVR_EEG_block3-4.protocol.csv	step5	1204	120.043	STIMULATE	48.6	48.5	48.5	48.5	48.7	5	1014.1940000000001
1018.245	0	1018245	wait	10004	2	0	2	0	2.0	0.0	2.0	0.0					1106.0176855999998	1112.7611720999994	1112.7611720999994	9.0	['9', 'return']	[1.947401000001264, 2.420124100000976]	6.73	5.99	2.0	40hz	high_pain	48.5	1125.7610759999989			sub-046	250	46	46.6	48.5	COM5	COM15	COM3	2024-10-01_15h18.57.810	001-EEG_SVR_Officel	2022.2.5	60.58472743726854		10.654999999999973	1_sub-pilot046_SVR_EEG_block3-4.protocol.csv	step7	1439	143.302	STIMULATE	48.6	48.5	48.4	48.5	48.4	7	1037.453
1024.973	0	1024973	40hz	10003	2	0	2	0	2.0	0.0	2.0	0.0					1106.0176855999998	1112.7611720999994	1112.7611720999994	9.0	['9', 'return']	[1.947401000001264, 2.420124100000976]	6.73	5.99	2.0	40hz	high_pain	48.5	1125.7610759999989			sub-046	250	46	46.6	48.5	COM5	COM15	COM3	2024-10-01_15h18.57.810	001-EEG_SVR_Officel	2022.2.5	60.58472743726854		6.727999999999952	1_sub-pilot046_SVR_EEG_block3-4.protocol.csv	step7	1439	143.302	STIMULATE	48.6	48.5	48.4	48.5	48.4	7	1037.453
1031.723	0	1031723	40/Hi	10001	2	0	2	0	2.0	0.0	2.0	0.0					1106.0176855999998	1112.7611720999994	1112.7611720999994	9.0	['9', 'return']	[1.947401000001264, 2.420124100000976]	6.73	5.99	2.0	40hz	high_pain	48.5	1125.7610759999989			sub-046	250	46	46.6	48.5	COM5	COM15	COM3	2024-10-01_15h18.57.810	001-EEG_SVR_Officel	2022.2.5	60.58472743726854		6.0	1_sub-pilot046_SVR_EEG_block3-4.protocol.csv	step7	1439	143.302	STIMULATE	48.6	48.5	48.4	48.5	48.4	7	1037.453
1040.444	0	1040444	wait	10004	2	0	2	0	3.0	0.0	3.0	0.0					1128.2161412999994	1136.128518900001	1136.128518900001	5.0	['5', 'return']	[2.972533799998928, 3.502038899998297]	7.91	6.26	3.0	20hz	low_pain	46.6	1149.1277240999989			sub-046	250	46	46.6	48.5	COM5	COM15	COM3	2024-10-01_15h18.57.810	001-EEG_SVR_Officel	2022.2.5	60.58472743726854		9.471000000000004	1_sub-pilot046_SVR_EEG_block3-4.protocol.csv	step9	1678	167.015	STIMULATE	46.7	46.5	46.5	46.5	46.6	9	1061.166
1048.339	0	1048339	20hz	10003	2	0	2	0	3.0	0.0	3.0	0.0					1128.2161412999994	1136.128518900001	1136.128518900001	5.0	['5', 'return']	[2.972533799998928, 3.502038899998297]	7.91	6.26	3.0	20hz	low_pain	46.6	1149.1277240999989			sub-046	250	46	46.6	48.5	COM5	COM15	COM3	2024-10-01_15h18.57.810	001-EEG_SVR_Officel	2022.2.5	60.58472743726854		7.894999999999982	1_sub-pilot046_SVR_EEG_block3-4.protocol.csv	step9	1678	167.015	STIMULATE	46.7	46.5	46.5	46.5	46.6	9	1061.166
1055.356	0	1055356	20/Lo	10001	2	0	2	0	3.0	0.0	3.0	0.0					1128.2161412999994	1136.128518900001	1136.128518900001	5.0	['5', 'return']	[2.972533799998928, 3.502038899998297]	7.91	6.26	3.0	20hz	low_pain	46.6	1149.1277240999989			sub-046	250	46	46.6	48.5	COM5	COM15	COM3	2024-10-01_15h18.57.810	001-EEG_SVR_Officel	2022.2.5	60.58472743726854		6.267000000000053	1_sub-pilot046_SVR_EEG_block3-4.protocol.csv	step9	1678	167.015	STIMULATE	46.7	46.5	46.5	46.5	46.6	9	1061.166
1064.905	0	1064905	wait	10004	2	0	2	0	4.0	0.0	4.0	0.0					1152.6776592999995	1158.9776125999997	1158.9776125999997	8.0	['8', 'return']	[3.6673312000020815, 4.259383200002048]	6.3	5.96	0.0	10hz	high_pain	48.5	1171.9777694999975			sub-046	250	46	46.6	48.5	COM5	COM15	COM3	2024-10-01_15h18.57.810	001-EEG_SVR_Officel	2022.2.5	60.58472743726854		10.298999999999978	1_sub-pilot046_SVR_EEG_block3-4.protocol.csv	step11	1905	189.572	STIMULATE	48.5	48.4	48.5	48.5	48.7	11	1083.723
1071.19	0	1071190	10hz	10003	2	0	2	0	4.0	0.0	4.0	0.0					1152.6776592999995	1158.9776125999997	1158.9776125999997	8.0	['8', 'return']	[3.6673312000020815, 4.259383200002048]	6.3	5.96	0.0	10hz	high_pain	48.5	1171.9777694999975			sub-046	250	46	46.6	48.5	COM5	COM15	COM3	2024-10-01_15h18.57.810	001-EEG_SVR_Officel	2022.2.5	60.58472743726854		6.285000000000082	1_sub-pilot046_SVR_EEG_block3-4.protocol.csv	step11	1905	189.572	STIMULATE	48.5	48.4	48.5	48.5	48.7	11	1083.723
1077.905	0	1077905	10/Hi	10001	2	0	2	0	4.0	0.0	4.0	0.0					1152.6776592999995	1158.9776125999997	1158.9776125999997	8.0	['8', 'return']	[3.6673312000020815, 4.259383200002048]	6.3	5.96	0.0	10hz	high_pain	48.5	1171.9777694999975			sub-046	250	46	46.6	48.5	COM5	COM15	COM3	2024-10-01_15h18.57.810	001-EEG_SVR_Officel	2022.2.5	60.58472743726854		5.964999999999918	1_sub-pilot046_SVR_EEG_block3-4.protocol.csv	step11	1905	189.572	STIMULATE	48.5	48.4	48.5	48.5	48.7	11	1083.723
1088.505	0	1088505	wait	10004	2	0	2	0	5.0	0.0	5.0	0.0					1176.2774834999982	1183.5106414000002	1183.5106414000002	4.5	['4', 'a', '5', 'return']	[3.4381792999993195, 3.941951099997823, 4.358456300000398, 5.142615699998714]	7.22	5.83	1.0	controle	low_pain	46.6	1196.5106419000003			sub-046	250	46	46.6	48.5	COM5	COM15	COM3	2024-10-01_15h18.57.810	001-EEG_SVR_Officel	2022.2.5	60.58472743726854		11.350000000000136	1_sub-pilot046_SVR_EEG_block3-4.protocol.csv	step13	2151	213.969	STIMULATE	46.7	46.5	46.5	46.5	46.6	13	1108.1200000000001
1095.723	0	1095723	CNhz	10003	2	0	2	0	5.0	0.0	5.0	0.0					1176.2774834999982	1183.5106414000002	1183.5106414000002	4.5	['4', 'a', '5', 'return']	[3.4381792999993195, 3.941951099997823, 4.358456300000398, 5.142615699998714]	7.22	5.83	1.0	controle	low_pain	46.6	1196.5106419000003			sub-046	250	46	46.6	48.5	COM5	COM15	COM3	2024-10-01_15h18.57.810	001-EEG_SVR_Officel	2022.2.5	60.58472743726854		7.217999999999847	1_sub-pilot046_SVR_EEG_block3-4.protocol.csv	step13	2151	213.969	STIMULATE	46.7	46.5	46.5	46.5	46.6	13	1108.1200000000001
1102.306	0	1102306	CN/Lo	10001	2	0	2	0	5.0	0.0	5.0	0.0					1176.2774834999982	1183.5106414000002	1183.5106414000002	4.5	['4', 'a', '5', 'return']	[3.4381792999993195, 3.941951099997823, 4.358456300000398, 5.142615699998714]	7.22	5.83	1.0	controle	low_pain	46.6	1196.5106419000003			sub-046	250	46	46.6	48.5	COM5	COM15	COM3	2024-10-01_15h18.57.810	001-EEG_SVR_Officel	2022.2.5	60.58472743726854		5.833000000000084	1_sub-pilot046_SVR_EEG_block3-4.protocol.csv	step13	2151	213.969	STIMULATE	46.7	46.5	46.5	46.5	46.6	13	1108.1200000000001
1113.921	0	1113921	wait	10004	2	0	2	0	6.0	0.0	6.0	0.0					1201.6937891999987	1209.4771784000004	1209.4771784000004	8.5	['8', 'a', '5', 'return']	[3.6071262000004936, 3.7920398999995086, 4.007088399997883, 4.671054599999479]	7.77	6.18	2.0	20hz	high_pain	48.5	1222.4774928999975			sub-046	250	46	46.6	48.5	COM5	COM15	COM3	2024-10-01_15h18.57.810	001-EEG_SVR_Officel	2022.2.5	60.58472743726854		12.365000000000009	1_sub-pilot046_SVR_EEG_block3-4.protocol.csv	step15	2416	240.221	STIMULATE	48.5	48.4	48.5	48.5	48.5	15	1134.372
1121.689	0	1121689	20hz	10003	2	0	2	0	6.0	0.0	6.0	0.0					1201.6937891999987	1209.4771784000004	1209.4771784000004	8.5	['8', 'a', '5', 'return']	[3.6071262000004936, 3.7920398999995086, 4.007088399997883, 4.671054599999479]	7.77	6.18	2.0	20hz	high_pain	48.5	1222.4774928999975			sub-046	250	46	46.6	48.5	COM5	COM15	COM3	2024-10-01_15h18.57.810	001-EEG_SVR_Officel	2022.2.5	60.58472743726854		7.768000000000029	1_sub-pilot046_SVR_EEG_block3-4.protocol.csv	step15	2416	240.221	STIMULATE	48.5	48.4	48.5	48.5	48.5	15	1134.372
1128.622	0	1128622	20/Hi	10001	2	0	2	0	6.0	0.0	6.0	0.0					1201.6937891999987	1209.4771784000004	1209.4771784000004	8.5	['8', 'a', '5', 'return']	[3.6071262000004936, 3.7920398999995086, 4.007088399997883, 4.671054599999479]	7.77	6.18	2.0	20hz	high_pain	48.5	1222.4774928999975			sub-046	250	46	46.6	48.5	COM5	COM15	COM3	2024-10-01_15h18.57.810	001-EEG_SVR_Officel	2022.2.5	60.58472743726854		6.182999999999993	1_sub-pilot046_SVR_EEG_block3-4.protocol.csv	step15	2416	240.221	STIMULATE	48.5	48.4	48.5	48.5	48.5	15	1134.372
1139.421	0	1139421	wait	10004	2	0	2	0	7.0	0.0	7.0	0.0					1227.1937135000007	1232.9773714000005	1232.9773714000005	4.5	['4', 'a', '5', 'return']	[6.11676609999995, 6.347187100000156, 6.578892800000176, 7.299221299999772]	5.78	6.4	3.0	controle	low_pain	46.6	1245.977470599999			sub-046	250	46	46.6	48.5	COM5	COM15	COM3	2024-10-01_15h18.57.810	001-EEG_SVR_Officel	2022.2.5	60.58472743726854		11.548999999999978	1_sub-pilot046_SVR_EEG_block3-4.protocol.csv	step17	2655	263.922	STIMULATE	46.6	46.5	46.5	46.5	46.6	17	1158.073
1145.189	0	1145189	CNhz	10003	2	0	2	0	7.0	0.0	7.0	0.0					1227.1937135000007	1232.9773714000005	1232.9773714000005	4.5	['4', 'a', '5', 'return']	[6.11676609999995, 6.347187100000156, 6.578892800000176, 7.299221299999772]	5.78	6.4	3.0	controle	low_pain	46.6	1245.977470599999			sub-046	250	46	46.6	48.5	COM5	COM15	COM3	2024-10-01_15h18.57.810	001-EEG_SVR_Officel	2022.2.5	60.58472743726854		5.768000000000029	1_sub-pilot046_SVR_EEG_block3-4.protocol.csv	step17	2655	263.922	STIMULATE	46.6	46.5	46.5	46.5	46.6	17	1158.073
1152.357	0	1152357	CN/Lo	10001	2	0	2	0	7.0	0.0	7.0	0.0					1227.1937135000007	1232.9773714000005	1232.9773714000005	4.5	['4', 'a', '5', 'return']	[6.11676609999995, 6.347187100000156, 6.578892800000176, 7.299221299999772]	5.78	6.4	3.0	controle	low_pain	46.6	1245.977470599999			sub-046	250	46	46.6	48.5	COM5	COM15	COM3	2024-10-01_15h18.57.810	001-EEG_SVR_Officel	2022.2.5	60.58472743726854		6.417999999999893	1_sub-pilot046_SVR_EEG_block3-4.protocol.csv	step17	2655	263.922	STIMULATE	46.6	46.5	46.5	46.5	46.6	17	1158.073
1165.539	0	1165539	wait	10004	2	0	2	0	8.0	0.0	8.0	0.0					1253.3119423999997	1260.9932795999994	1260.9932795999994	4.0	['4', 'return']	[4.739788499999122, 5.443635899999208]	7.67	6.29	0.0	40hz	low_pain	46.6				sub-046	250	46	46.6	48.5	COM5	COM15	COM3	2024-10-01_15h18.57.810	001-EEG_SVR_Officel	2022.2.5	60.58472743726854		13.932000000000016	1_sub-pilot046_SVR_EEG_block3-4.protocol.csv	step19	2937	291.967	STIMULATE	46.6	46.5	46.5	46.5	46.5	19	1186.118
1173.204	0	1173204	40hz	10003	2	0	2	0	8.0	0.0	8.0	0.0					1253.3119423999997	1260.9932795999994	1260.9932795999994	4.0	['4', 'return']	[4.739788499999122, 5.443635899999208]	7.67	6.29	0.0	40hz	low_pain	46.6				sub-046	250	46	46.6	48.5	COM5	COM15	COM3	2024-10-01_15h18.57.810	001-EEG_SVR_Officel	2022.2.5	60.58472743726854		7.664999999999964	1_sub-pilot046_SVR_EEG_block3-4.protocol.csv	step19	2937	291.967	STIMULATE	46.6	46.5	46.5	46.5	46.5	19	1186.118
1180.254	0	1180254	40/Lo	10001	2	0	2	0	8.0	0.0	8.0	0.0					1253.3119423999997	1260.9932795999994	1260.9932795999994	4.0	['4', 'return']	[4.739788499999122, 5.443635899999208]	7.67	6.29	0.0	40hz	low_pain	46.6				sub-046	250	46	46.6	48.5	COM5	COM15	COM3	2024-10-01_15h18.57.810	001-EEG_SVR_Officel	2022.2.5	60.58472743726854		6.2999999999999545	1_sub-pilot046_SVR_EEG_block3-4.protocol.csv	step19	2937	291.967	STIMULATE	46.6	46.5	46.5	46.5	46.5	19	1186.118
1191.709	0	1191709	wait	10004	2	0	2	0	9.0	0.0	9.0	0.0					1279.481563199999	1286.9098352	1286.9098352	8.5	['8', 'a', '5', 'return']	[1.8709836999987601, 2.304088099997898, 2.542851399997744, 3.3365277999982936]	7.42	5.63	1.0	controle	high_pain	48.5	1299.9096090999992			sub-046	250	46	46.6	48.5	COM5	COM15	COM3	2024-10-01_15h18.57.810	001-EEG_SVR_Officel	2022.2.5	60.58472743726854		12.205000000000155	1_sub-pilot046_SVR_EEG_block3-4.protocol.csv	step21	3192	317.223	STIMULATE	48.7	48.4	48.5	48.5	48.5	21	1211.374
1199.121	0	1199121	CNhz	10003	2	0	2	0	9.0	0.0	9.0	0.0					1279.481563199999	1286.9098352	1286.9098352	8.5	['8', 'a', '5', 'return']	[1.8709836999987601, 2.304088099997898, 2.542851399997744, 3.3365277999982936]	7.42	5.63	1.0	controle	high_pain	48.5	1299.9096090999992			sub-046	250	46	46.6	48.5	COM5	COM15	COM3	2024-10-01_15h18.57.810	001-EEG_SVR_Officel	2022.2.5	60.58472743726854		7.412000000000035	1_sub-pilot046_SVR_EEG_block3-4.protocol.csv	step21	3192	317.223	STIMULATE	48.7	48.4	48.5	48.5	48.5	21	1211.374
1205.504	0	1205504	CN/Hi	10001	2	0	2	0	9.0	0.0	9.0	0.0					1279.481563199999	1286.9098352	1286.9098352	8.5	['8', 'a', '5', 'return']	[1.8709836999987601, 2.304088099997898, 2.542851399997744, 3.3365277999982936]	7.42	5.63	1.0	controle	high_pain	48.5	1299.9096090999992			sub-046	250	46	46.6	48.5	COM5	COM15	COM3	2024-10-01_15h18.57.810	001-EEG_SVR_Officel	2022.2.5	60.58472743726854		5.632999999999811	1_sub-pilot046_SVR_EEG_block3-4.protocol.csv	step21	3192	317.223	STIMULATE	48.7	48.4	48.5	48.5	48.5	21	1211.374
1215.52	0	1215520	wait	10004	2	0	2	0	10.0	0.0	10.0	0.0					1303.2928460000005	1311.0925343999988	1311.0925343999988	4.0	['4', 'return']	[3.7673539999996137, 4.575867699997616]	7.79	5.89	2.0	10hz	low_pain	46.6				sub-046	250	46	46.6	48.5	COM5	COM15	COM3	2024-10-01_15h18.57.810	001-EEG_SVR_Officel	2022.2.5	60.58472743726854		10.766000000000076	1_sub-pilot046_SVR_EEG_block3-4.protocol.csv	step23	3438	341.668	STIMULATE	46.7	46.5	46.5	46.5	46.5	23	1235.819
1223.304	0	1223304	10hz	10003	2	0	2	0	10.0	0.0	10.0	0.0					1303.2928460000005	1311.0925343999988	1311.0925343999988	4.0	['4', 'return']	[3.7673539999996137, 4.575867699997616]	7.79	5.89	2.0	10hz	low_pain	46.6				sub-046	250	46	46.6	48.5	COM5	COM15	COM3	2024-10-01_15h18.57.810	001-EEG_SVR_Officel	2022.2.5	60.58472743726854		7.7840000000001055	1_sub-pilot046_SVR_EEG_block3-4.protocol.csv	step23	3438	341.668	STIMULATE	46.7	46.5	46.5	46.5	46.5	23	1235.819
1229.954	0	1229954	10/Lo	10001	2	0	2	0	10.0	0.0	10.0	0.0					1303.2928460000005	1311.0925343999988	1311.0925343999988	4.0	['4', 'return']	[3.7673539999996137, 4.575867699997616]	7.79	5.89	2.0	10hz	low_pain	46.6				sub-046	250	46	46.6	48.5	COM5	COM15	COM3	2024-10-01_15h18.57.810	001-EEG_SVR_Officel	2022.2.5	60.58472743726854		5.899999999999864	1_sub-pilot046_SVR_EEG_block3-4.protocol.csv	step23	3438	341.668	STIMULATE	46.7	46.5	46.5	46.5	46.5	23	1235.819
1240.936	0	1240936	wait	10004	2	0	2	0	11.0	0.0	11.0	0.0					1328.7091127999993	1335.5926216000007	1335.5926216000007	9.0	['9', 'return']	[1.8856747000027099, 2.3744531000011193]	6.88	5.15	3.0	controle	high_pain	48.5				sub-046	250	46	46.6	48.5	COM5	COM15	COM3	2024-10-01_15h18.57.810	001-EEG_SVR_Officel	2022.2.5	60.58472743726854		11.731999999999971	1_sub-pilot046_SVR_EEG_block3-4.protocol.csv	step25	3677	365.394	STIMULATE	48.5	48.5	48.5	48.5	48.4	25	1259.545
1247.806	0	1247806	CNhz	10003	2	0	2	0	11.0	0.0	11.0	0.0					1328.7091127999993	1335.5926216000007	1335.5926216000007	9.0	['9', 'return']	[1.8856747000027099, 2.3744531000011193]	6.88	5.15	3.0	controle	high_pain	48.5				sub-046	250	46	46.6	48.5	COM5	COM15	COM3	2024-10-01_15h18.57.810	001-EEG_SVR_Officel	2022.2.5	60.58472743726854		6.870000000000118	1_sub-pilot046_SVR_EEG_block3-4.protocol.csv	step25	3677	365.394	STIMULATE	48.5	48.5	48.5	48.5	48.4	25	1259.545
1253.722	0	1253722	CN/Hi	10001	2	0	2	0	11.0	0.0	11.0	0.0					1328.7091127999993	1335.5926216000007	1335.5926216000007	9.0	['9', 'return']	[1.8856747000027099, 2.3744531000011193]	6.88	5.15	3.0	controle	high_pain	48.5				sub-046	250	46	46.6	48.5	COM5	COM15	COM3	2024-10-01_15h18.57.810	001-EEG_SVR_Officel	2022.2.5	60.58472743726854		5.16599999999994	1_sub-pilot046_SVR_EEG_block3-4.protocol.csv	step25	3677	365.394	STIMULATE	48.5	48.5	48.5	48.5	48.4	25	1259.545
1263.237	0	1263237	wait	10004	2	0	2	0	12.0	0.0	12.0	0.0					1351.0093286999982	1357.9425905999997	1357.9425905999997	8.5	['8', 'a', '5', 'return']	[2.0581034000024374, 2.9288895999998203, 3.361441500001092, 4.353000500002963]	6.93	5.18	0.0	40hz	high_pain	48.5				sub-046	250	46	46.6	48.5	COM5	COM15	COM3	2024-10-01_15h18.57.810	001-EEG_SVR_Officel	2022.2.5	60.58472743726854		10.2650000000001	1_sub-pilot046_SVR_EEG_block3-4.protocol.csv	step27	3903	387.786	STIMULATE	48.6	48.4	48.5	48.5	48.5	27	1281.937
1270.154	0	1270154	40hz	10003	2	0	2	0	12.0	0.0	12.0	0.0					1351.0093286999982	1357.9425905999997	1357.9425905999997	8.5	['8', 'a', '5', 'return']	[2.0581034000024374, 2.9288895999998203, 3.361441500001092, 4.353000500002963]	6.93	5.18	0.0	40hz	high_pain	48.5				sub-046	250	46	46.6	48.5	COM5	COM15	COM3	2024-10-01_15h18.57.810	001-EEG_SVR_Officel	2022.2.5	60.58472743726854		6.916999999999916	1_sub-pilot046_SVR_EEG_block3-4.protocol.csv	step27	3903	387.786	STIMULATE	48.6	48.4	48.5	48.5	48.5	27	1281.937
1276.088	0	1276088	40/Hi	10001	2	0	2	0	12.0	0.0	12.0	0.0					1351.0093286999982	1357.9425905999997	1357.9425905999997	8.5	['8', 'a', '5', 'return']	[2.0581034000024374, 2.9288895999998203, 3.361441500001092, 4.353000500002963]	6.93	5.18	0.0	40hz	high_pain	48.5				sub-046	250	46	46.6	48.5	COM5	COM15	COM3	2024-10-01_15h18.57.810	001-EEG_SVR_Officel	2022.2.5	60.58472743726854		5.183999999999969	1_sub-pilot046_SVR_EEG_block3-4.protocol.csv	step27	3903	387.786	STIMULATE	48.6	48.4	48.5	48.5	48.5	27	1281.937
1287.569	0	1287569	wait	10004	2	0	2	0	13.0	0.0	13.0	0.0					1375.3420683000004	1380.425198599998	1380.425198599998	3.0	['3', 'return']	[2.7347853999999643, 3.3675547999991977]	5.08	6.49	1.0	40hz	low_pain	46.6				sub-046	250	46	46.6	48.5	COM5	COM15	COM3	2024-10-01_15h18.57.810	001-EEG_SVR_Officel	2022.2.5	60.58472743726854		12.230999999999995	1_sub-pilot046_SVR_EEG_block3-4.protocol.csv	step29	4143	411.602	STIMULATE	46.6	46.5	46.5	46.5	46.6	29	1305.753
1292.637	0	1292637	40hz	10003	2	0	2	0	13.0	0.0	13.0	0.0					1375.3420683000004	1380.425198599998	1380.425198599998	3.0	['3', 'return']	[2.7347853999999643, 3.3675547999991977]	5.08	6.49	1.0	40hz	low_pain	46.6				sub-046	250	46	46.6	48.5	COM5	COM15	COM3	2024-10-01_15h18.57.810	001-EEG_SVR_Officel	2022.2.5	60.58472743726854		5.067999999999984	1_sub-pilot046_SVR_EEG_block3-4.protocol.csv	step29	4143	411.602	STIMULATE	46.6	46.5	46.5	46.5	46.6	29	1305.753
1299.888	0	1299888	40/Lo	10001	2	0	2	0	13.0	0.0	13.0	0.0					1375.3420683000004	1380.425198599998	1380.425198599998	3.0	['3', 'return']	[2.7347853999999643, 3.3675547999991977]	5.08	6.49	1.0	40hz	low_pain	46.6				sub-046	250	46	46.6	48.5	COM5	COM15	COM3	2024-10-01_15h18.57.810	001-EEG_SVR_Officel	2022.2.5	60.58472743726854		6.500999999999976	1_sub-pilot046_SVR_EEG_block3-4.protocol.csv	step29	4143	411.602	STIMULATE	46.6	46.5	46.5	46.5	46.6	29	1305.753
1309.069	0	1309069	wait	10004	2	0	2	0	14.0	0.0	14.0	0.0					1396.8419154000003	1401.8917546999985	1401.8917546999985	3.0	['3', 'return']	[4.688394900000276, 5.352565299999696]	5.04	6.03	2.0	controle	low_pain	46.6				sub-046	250	46	46.6	48.5	COM5	COM15	COM3	2024-10-01_15h18.57.810	001-EEG_SVR_Officel	2022.2.5	60.58472743726854		9.93100000000004	1_sub-pilot046_SVR_EEG_block3-4.protocol.csv	step31	4355	432.6	STIMULATE	46.7	46.5	46.5	46.5	46.5	31	1326.751
1314.103	0	1314103	CNhz	10003	2	0	2	0	14.0	0.0	14.0	0.0					1396.8419154000003	1401.8917546999985	1401.8917546999985	3.0	['3', 'return']	[4.688394900000276, 5.352565299999696]	5.04	6.03	2.0	controle	low_pain	46.6				sub-046	250	46	46.6	48.5	COM5	COM15	COM3	2024-10-01_15h18.57.810	001-EEG_SVR_Officel	2022.2.5	60.58472743726854		5.0340000000001055	1_sub-pilot046_SVR_EEG_block3-4.protocol.csv	step31	4355	432.6	STIMULATE	46.7	46.5	46.5	46.5	46.5	31	1326.751
1320.888	0	1320888	CN/Lo	10001	2	0	2	0	14.0	0.0	14.0	0.0					1396.8419154000003	1401.8917546999985	1401.8917546999985	3.0	['3', 'return']	[4.688394900000276, 5.352565299999696]	5.04	6.03	2.0	controle	low_pain	46.6				sub-046	250	46	46.6	48.5	COM5	COM15	COM3	2024-10-01_15h18.57.810	001-EEG_SVR_Officel	2022.2.5	60.58472743726854		6.0349999999998545	1_sub-pilot046_SVR_EEG_block3-4.protocol.csv	step31	4355	432.6	STIMULATE	46.7	46.5	46.5	46.5	46.5	31	1326.751
1332.519	0	1332519	wait	10004	2	0	2	0	15.0	0.0	15.0	0.0					1420.2920458000008	1425.5754159999997	1425.5754159999997	8.5	['8', 'a', '5', 'return']	[2.285544900001696, 2.7339441000003717, 2.95698750000156, 3.6530110000021523]	5.27	6.41	3.0	40hz	high_pain	48.5	1438.575380899998			sub-046	250	46	46.6	48.5	COM5	COM15	COM3	2024-10-01_15h18.57.810	001-EEG_SVR_Officel	2022.2.5	60.58472743726854		12.381000000000085	1_sub-pilot046_SVR_EEG_block3-4.protocol.csv	step33	4598	456.682	STIMULATE	48.5	48.4	48.5	48.5	48.5	33	1350.833
1337.787	0	1337787	40hz	10003	2	0	2	0	15.0	0.0	15.0	0.0					1420.2920458000008	1425.5754159999997	1425.5754159999997	8.5	['8', 'a', '5', 'return']	[2.285544900001696, 2.7339441000003717, 2.95698750000156, 3.6530110000021523]	5.27	6.41	3.0	40hz	high_pain	48.5	1438.575380899998			sub-046	250	46	46.6	48.5	COM5	COM15	COM3	2024-10-01_15h18.57.810	001-EEG_SVR_Officel	2022.2.5	60.58472743726854		5.268000000000029	1_sub-pilot046_SVR_EEG_block3-4.protocol.csv	step33	4598	456.682	STIMULATE	48.5	48.4	48.5	48.5	48.5	33	1350.833
1344.957	0	1344957	40/Hi	10001	2	0	2	0	15.0	0.0	15.0	0.0					1420.2920458000008	1425.5754159999997	1425.5754159999997	8.5	['8', 'a', '5', 'return']	[2.285544900001696, 2.7339441000003717, 2.95698750000156, 3.6530110000021523]	5.27	6.41	3.0	40hz	high_pain	48.5	1438.575380899998			sub-046	250	46	46.6	48.5	COM5	COM15	COM3	2024-10-01_15h18.57.810	001-EEG_SVR_Officel	2022.2.5	60.58472743726854		6.420000000000073	1_sub-pilot046_SVR_EEG_block3-4.protocol.csv	step33	4598	456.682	STIMULATE	48.5	48.4	48.5	48.5	48.5	33	1350.833
1420.035	0	1420035	wait	10004	3	0	3	0	0.0	0.0	0.0	0.0			p	1.79562679999799	1507.8073765000008	1513.2410232000002	1513.2410232000002	4.0	['4', 'return']	[3.3937936999973317, 4.033756900000299]	5.43	5.13	0.0	controle	low_pain	46.6	1526.243186399999			sub-046	250	46	46.6	48.5	COM5	COM15	COM3	2024-10-01_15h18.57.810	001-EEG_SVR_Officel	2022.2.5	60.58472743726854		75.82799999999997	1_sub-pilot046_SVR_EEG_block3-4.protocol.csv	step35	5464	543.017	STIMULATE	46.6	46.5	46.5	46.5	46.5	35	1437.203
1425.454	0	1425454	CNhz	10003	3	0	3	0	0.0	0.0	0.0	0.0			p	1.79562679999799	1507.8073765000008	1513.2410232000002	1513.2410232000002	4.0	['4', 'return']	[3.3937936999973317, 4.033756900000299]	5.43	5.13	0.0	controle	low_pain	46.6	1526.243186399999			sub-046	250	46	46.6	48.5	COM5	COM15	COM3	2024-10-01_15h18.57.810	001-EEG_SVR_Officel	2022.2.5	60.58472743726854		5.418999999999869	1_sub-pilot046_SVR_EEG_block3-4.protocol.csv	step35	5464	543.017	STIMULATE	46.6	46.5	46.5	46.5	46.5	35	1437.203
1431.335	0	1431335	CN/Lo	10001	3	0	3	0	0.0	0.0	0.0	0.0			p	1.79562679999799	1507.8073765000008	1513.2410232000002	1513.2410232000002	4.0	['4', 'return']	[3.3937936999973317, 4.033756900000299]	5.43	5.13	0.0	controle	low_pain	46.6	1526.243186399999			sub-046	250	46	46.6	48.5	COM5	COM15	COM3	2024-10-01_15h18.57.810	001-EEG_SVR_Officel	2022.2.5	60.58472743726854		5.1310000000000855	1_sub-pilot046_SVR_EEG_block3-4.protocol.csv	step35	5464	543.017	STIMULATE	46.6	46.5	46.5	46.5	46.5	35	1437.203
1442.542	0	1442542	wait	10004	3	0	3	0	1.0	0.0	1.0	0.0					1530.3152421999985	1535.7739612999976	1535.7739612999976	8.0	['8', 'return']	[3.2707411000010325, 3.9031251999986125]	5.46	6.21	1.0	40hz	high_pain	48.5	1548.7740722999988			sub-046	250	46	46.6	48.5	COM5	COM15	COM3	2024-10-01_15h18.57.810	001-EEG_SVR_Officel	2022.2.5	60.58472743726854		11.95699999999988	1_sub-pilot046_SVR_EEG_block3-4.protocol.csv	step37	5702	566.651	STIMULATE	48.5	48.5	48.5	48.5	48.6	37	1460.837
1447.985	0	1447985	40hz	10003	3	0	3	0	1.0	0.0	1.0	0.0					1530.3152421999985	1535.7739612999976	1535.7739612999976	8.0	['8', 'return']	[3.2707411000010325, 3.9031251999986125]	5.46	6.21	1.0	40hz	high_pain	48.5	1548.7740722999988			sub-046	250	46	46.6	48.5	COM5	COM15	COM3	2024-10-01_15h18.57.810	001-EEG_SVR_Officel	2022.2.5	60.58472743726854		5.442999999999984	1_sub-pilot046_SVR_EEG_block3-4.protocol.csv	step37	5702	566.651	STIMULATE	48.5	48.5	48.5	48.5	48.6	37	1460.837
1454.952	0	1454952	40/Hi	10001	3	0	3	0	1.0	0.0	1.0	0.0					1530.3152421999985	1535.7739612999976	1535.7739612999976	8.0	['8', 'return']	[3.2707411000010325, 3.9031251999986125]	5.46	6.21	1.0	40hz	high_pain	48.5	1548.7740722999988			sub-046	250	46	46.6	48.5	COM5	COM15	COM3	2024-10-01_15h18.57.810	001-EEG_SVR_Officel	2022.2.5	60.58472743726854		6.217000000000098	1_sub-pilot046_SVR_EEG_block3-4.protocol.csv	step37	5702	566.651	STIMULATE	48.5	48.5	48.5	48.5	48.6	37	1460.837
1464.935	0	1464935	wait	10004	3	0	3	0	2.0	0.0	2.0	0.0					1552.7082228	1560.474181499998	1560.474181499998	7.0	['7', 'return']	[2.267098199998145, 2.754487700000027]	7.76	5.93	2.0	20hz	low_pain	46.6	1573.474048699998			sub-046	250	46	46.6	48.5	COM5	COM15	COM3	2024-10-01_15h18.57.810	001-EEG_SVR_Officel	2022.2.5	60.58472743726854		10.732999999999947	1_sub-pilot046_SVR_EEG_block3-4.protocol.csv	step39	5948	591.083	STIMULATE	46.7	46.5	46.5	46.5	46.5	39	1485.269
1472.686	0	1472686	20hz	10003	3	0	3	0	2.0	0.0	2.0	0.0					1552.7082228	1560.474181499998	1560.474181499998	7.0	['7', 'return']	[2.267098199998145, 2.754487700000027]	7.76	5.93	2.0	20hz	low_pain	46.6	1573.474048699998			sub-046	250	46	46.6	48.5	COM5	COM15	COM3	2024-10-01_15h18.57.810	001-EEG_SVR_Officel	2022.2.5	60.58472743726854		7.750999999999976	1_sub-pilot046_SVR_EEG_block3-4.protocol.csv	step39	5948	591.083	STIMULATE	46.7	46.5	46.5	46.5	46.5	39	1485.269
1479.368	0	1479368	20/Lo	10001	3	0	3	0	2.0	0.0	2.0	0.0					1552.7082228	1560.474181499998	1560.474181499998	7.0	['7', 'return']	[2.267098199998145, 2.754487700000027]	7.76	5.93	2.0	20hz	low_pain	46.6	1573.474048699998			sub-046	250	46	46.6	48.5	COM5	COM15	COM3	2024-10-01_15h18.57.810	001-EEG_SVR_Officel	2022.2.5	60.58472743726854		5.932000000000016	1_sub-pilot046_SVR_EEG_block3-4.protocol.csv	step39	5948	591.083	STIMULATE	46.7	46.5	46.5	46.5	46.5	39	1485.269
1488.501	0	1488501	wait	10004	3	0	3	0	3.0	0.0	3.0	0.0					1576.2741419999984	1582.2574098999976	1582.2574098999976	9.0	['9', 'return']	[3.7630624000012176, 4.315644800000882]	5.98	5.31	3.0	10hz	high_pain	48.5	1595.2574857			sub-046	250	46	46.6	48.5	COM5	COM15	COM3	2024-10-01_15h18.57.810	001-EEG_SVR_Officel	2022.2.5	60.58472743726854		9.883000000000038	1_sub-pilot046_SVR_EEG_block3-4.protocol.csv	step41	6163	612.313	STIMULATE	48.5	48.5	48.5	48.5	48.5	41	1506.499
1494.468	0	1494468	10hz	10003	3	0	3	0	3.0	0.0	3.0	0.0					1576.2741419999984	1582.2574098999976	1582.2574098999976	9.0	['9', 'return']	[3.7630624000012176, 4.315644800000882]	5.98	5.31	3.0	10hz	high_pain	48.5	1595.2574857			sub-046	250	46	46.6	48.5	COM5	COM15	COM3	2024-10-01_15h18.57.810	001-EEG_SVR_Officel	2022.2.5	60.58472743726854		5.967000000000098	1_sub-pilot046_SVR_EEG_block3-4.protocol.csv	step41	6163	612.313	STIMULATE	48.5	48.5	48.5	48.5	48.5	41	1506.499
1500.539	0	1500539	10/Hi	10001	3	0	3	0	3.0	0.0	3.0	0.0					1576.2741419999984	1582.2574098999976	1582.2574098999976	9.0	['9', 'return']	[3.7630624000012176, 4.315644800000882]	5.98	5.31	3.0	10hz	high_pain	48.5	1595.2574857			sub-046	250	46	46.6	48.5	COM5	COM15	COM3	2024-10-01_15h18.57.810	001-EEG_SVR_Officel	2022.2.5	60.58472743726854		5.320999999999913	1_sub-pilot046_SVR_EEG_block3-4.protocol.csv	step41	6163	612.313	STIMULATE	48.5	48.5	48.5	48.5	48.5	41	1506.499
1511.834	0	1511834	wait	10004	3	0	3	0	4.0	0.0	4.0	0.0					1599.6068973	1606.4621038000005	1606.4621038000005	3.0	['3', 'return']	[3.4914228999987245, 4.282794899998407]	6.85	5.48	0.0	10hz	low_pain	46.6				sub-046	250	46	46.6	48.5	COM5	COM15	COM3	2024-10-01_15h18.57.810	001-EEG_SVR_Officel	2022.2.5	60.58472743726854		12.045000000000073	1_sub-pilot046_SVR_EEG_block3-4.protocol.csv	step43	6408	636.675	STIMULATE	46.6	46.5	46.5	46.5	46.5	43	1530.8609999999999
1518.674	0	1518674	10hz	10003	3	0	3	0	4.0	0.0	4.0	0.0					1599.6068973	1606.4621038000005	1606.4621038000005	3.0	['3', 'return']	[3.4914228999987245, 4.282794899998407]	6.85	5.48	0.0	10hz	low_pain	46.6				sub-046	250	46	46.6	48.5	COM5	COM15	COM3	2024-10-01_15h18.57.810	001-EEG_SVR_Officel	2022.2.5	60.58472743726854		6.839999999999918	1_sub-pilot046_SVR_EEG_block3-4.protocol.csv	step43	6408	636.675	STIMULATE	46.6	46.5	46.5	46.5	46.5	43	1530.8609999999999
1524.918	0	1524918	10/Lo	10001	3	0	3	0	4.0	0.0	4.0	0.0					1599.6068973	1606.4621038000005	1606.4621038000005	3.0	['3', 'return']	[3.4914228999987245, 4.282794899998407]	6.85	5.48	0.0	10hz	low_pain	46.6				sub-046	250	46	46.6	48.5	COM5	COM15	COM3	2024-10-01_15h18.57.810	001-EEG_SVR_Officel	2022.2.5	60.58472743726854		5.4939999999999145	1_sub-pilot046_SVR_EEG_block3-4.protocol.csv	step43	6408	636.675	STIMULATE	46.6	46.5	46.5	46.5	46.5	43	1530.8609999999999
1536.017	0	1536017	wait	10004	3	0	3	0	5.0	0.0	5.0	0.0					1623.7896796999994	1631.6396772000007	1631.6396772000007	2.5	['2', 'a', '5', 'return']	[3.5182222000003094, 4.8851780999975745, 5.276262999999744, 6.132615700000315]	7.85	5.13	1.0	20hz	low_pain	46.6	1644.639920999998			sub-046	250	46	46.6	48.5	COM5	COM15	COM3	2024-10-01_15h18.57.810	001-EEG_SVR_Officel	2022.2.5	60.58472743726854		11.84900000000016	1_sub-pilot046_SVR_EEG_block3-4.protocol.csv	step45	6658	661.463	STIMULATE	46.6	46.5	46.5	46.5	46.7	45	1555.649
1543.851	0	1543851	20hz	10003	3	0	3	0	5.0	0.0	5.0	0.0					1623.7896796999994	1631.6396772000007	1631.6396772000007	2.5	['2', 'a', '5', 'return']	[3.5182222000003094, 4.8851780999975745, 5.276262999999744, 6.132615700000315]	7.85	5.13	1.0	20hz	low_pain	46.6	1644.639920999998			sub-046	250	46	46.6	48.5	COM5	COM15	COM3	2024-10-01_15h18.57.810	001-EEG_SVR_Officel	2022.2.5	60.58472743726854		7.83400000000006	1_sub-pilot046_SVR_EEG_block3-4.protocol.csv	step45	6658	661.463	STIMULATE	46.6	46.5	46.5	46.5	46.7	45	1555.649
1549.734	0	1549734	20/Lo	10001	3	0	3	0	5.0	0.0	5.0	0.0					1623.7896796999994	1631.6396772000007	1631.6396772000007	2.5	['2', 'a', '5', 'return']	[3.5182222000003094, 4.8851780999975745, 5.276262999999744, 6.132615700000315]	7.85	5.13	1.0	20hz	low_pain	46.6	1644.639920999998			sub-046	250	46	46.6	48.5	COM5	COM15	COM3	2024-10-01_15h18.57.810	001-EEG_SVR_Officel	2022.2.5	60.58472743726854		5.132999999999811	1_sub-pilot046_SVR_EEG_block3-4.protocol.csv	step45	6658	661.463	STIMULATE	46.6	46.5	46.5	46.5	46.7	45	1555.649
1563.033	0	1563033	wait	10004	3	0	3	0	6.0	0.0	6.0	0.0					1650.8063383000008	1658.590156599999	1658.590156599999	8.5	['8', 'a', '5', 'return']	[2.41463659999863, 2.7983224999989034, 3.2070428999977594, 3.870809399999416]	7.78	6.46	2.0	controle	high_pain	48.5	1671.5898664999986			sub-046	250	46	46.6	48.5	COM5	COM15	COM3	2024-10-01_15h18.57.810	001-EEG_SVR_Officel	2022.2.5	60.58472743726854		14.048999999999978	1_sub-pilot046_SVR_EEG_block3-4.protocol.csv	step47	6943	689.744	STIMULATE	48.5	48.4	48.4	48.5	48.5	47	1583.93
1570.801	0	1570801	CNhz	10003	3	0	3	0	6.0	0.0	6.0	0.0					1650.8063383000008	1658.590156599999	1658.590156599999	8.5	['8', 'a', '5', 'return']	[2.41463659999863, 2.7983224999989034, 3.2070428999977594, 3.870809399999416]	7.78	6.46	2.0	controle	high_pain	48.5	1671.5898664999986			sub-046	250	46	46.6	48.5	COM5	COM15	COM3	2024-10-01_15h18.57.810	001-EEG_SVR_Officel	2022.2.5	60.58472743726854		7.768000000000029	1_sub-pilot046_SVR_EEG_block3-4.protocol.csv	step47	6943	689.744	STIMULATE	48.5	48.4	48.4	48.5	48.5	47	1583.93
1578.022	0	1578022	CN/Hi	10001	3	0	3	0	6.0	0.0	6.0	0.0					1650.8063383000008	1658.590156599999	1658.590156599999	8.5	['8', 'a', '5', 'return']	[2.41463659999863, 2.7983224999989034, 3.2070428999977594, 3.870809399999416]	7.78	6.46	2.0	controle	high_pain	48.5	1671.5898664999986			sub-046	250	46	46.6	48.5	COM5	COM15	COM3	2024-10-01_15h18.57.810	001-EEG_SVR_Officel	2022.2.5	60.58472743726854		6.471000000000004	1_sub-pilot046_SVR_EEG_block3-4.protocol.csv	step47	6943	689.744	STIMULATE	48.5	48.4	48.4	48.5	48.5	47	1583.93
1587.733	0	1587733	wait	10004	3	0	3	0	7.0	0.0	7.0	0.0					1675.506130499998	1680.8894634999997	1680.8894634999997	6.0	['6', 'return']	[3.797808700001042, 4.477983199998562]	5.37	5.96	3.0	10hz	low_pain	46.6				sub-046	250	46	46.6	48.5	COM5	COM15	COM3	2024-10-01_15h18.57.810	001-EEG_SVR_Officel	2022.2.5	60.58472743726854		10.461000000000013	1_sub-pilot046_SVR_EEG_block3-4.protocol.csv	step49	7163	711.541	STIMULATE	46.5	46.5	46.5	46.5	46.6	49	1605.727
1593.101	0	1593101	10hz	10003	3	0	3	0	7.0	0.0	7.0	0.0					1675.506130499998	1680.8894634999997	1680.8894634999997	6.0	['6', 'return']	[3.797808700001042, 4.477983199998562]	5.37	5.96	3.0	10hz	low_pain	46.6				sub-046	250	46	46.6	48.5	COM5	COM15	COM3	2024-10-01_15h18.57.810	001-EEG_SVR_Officel	2022.2.5	60.58472743726854		5.3680000000001655	1_sub-pilot046_SVR_EEG_block3-4.protocol.csv	step49	7163	711.541	STIMULATE	46.5	46.5	46.5	46.5	46.6	49	1605.727
1599.817	0	1599817	10/Lo	10001	3	0	3	0	7.0	0.0	7.0	0.0					1675.506130499998	1680.8894634999997	1680.8894634999997	6.0	['6', 'return']	[3.797808700001042, 4.477983199998562]	5.37	5.96	3.0	10hz	low_pain	46.6				sub-046	250	46	46.6	48.5	COM5	COM15	COM3	2024-10-01_15h18.57.810	001-EEG_SVR_Officel	2022.2.5	60.58472743726854		5.9659999999998945	1_sub-pilot046_SVR_EEG_block3-4.protocol.csv	step49	7163	711.541	STIMULATE	46.5	46.5	46.5	46.5	46.6	49	1605.727
1610.635	0	1610635	wait	10004	3	0	3	0	8.0	0.0	8.0	0.0					1698.4082157999983	1704.2063237000002	1704.2063237000002	6.0	['6', 'return']	[3.654883899998822, 4.318569399998523]	5.79	5.67	0.0	20hz	low_pain	46.6	1717.2062609999994			sub-046	250	46	46.6	48.5	COM5	COM15	COM3	2024-10-01_15h18.57.810	001-EEG_SVR_Officel	2022.2.5	60.58472743726854		11.567999999999984	1_sub-pilot046_SVR_EEG_block3-4.protocol.csv	step51	7394	734.583	STIMULATE	46.6	46.5	46.5	46.5	46.6	51	1628.769
1616.417	0	1616417	20hz	10003	3	0	3	0	8.0	0.0	8.0	0.0					1698.4082157999983	1704.2063237000002	1704.2063237000002	6.0	['6', 'return']	[3.654883899998822, 4.318569399998523]	5.79	5.67	0.0	20hz	low_pain	46.6	1717.2062609999994			sub-046	250	46	46.6	48.5	COM5	COM15	COM3	2024-10-01_15h18.57.810	001-EEG_SVR_Officel	2022.2.5	60.58472743726854		5.781999999999925	1_sub-pilot046_SVR_EEG_block3-4.protocol.csv	step51	7394	734.583	STIMULATE	46.6	46.5	46.5	46.5	46.6	51	1628.769
1622.85	0	1622850	20/Lo	10001	3	0	3	0	8.0	0.0	8.0	0.0					1698.4082157999983	1704.2063237000002	1704.2063237000002	6.0	['6', 'return']	[3.654883899998822, 4.318569399998523]	5.79	5.67	0.0	20hz	low_pain	46.6	1717.2062609999994			sub-046	250	46	46.6	48.5	COM5	COM15	COM3	2024-10-01_15h18.57.810	001-EEG_SVR_Officel	2022.2.5	60.58472743726854		5.682999999999993	1_sub-pilot046_SVR_EEG_block3-4.protocol.csv	step51	7394	734.583	STIMULATE	46.6	46.5	46.5	46.5	46.6	51	1628.769
1633.799	0	1633799	wait	10004	3	0	3	0	9.0	0.0	9.0	0.0					1721.572271099998	1726.7222502000004	1726.7222502000004	8.0	['8', 'return']	[2.642178400001285, 3.250131100001454]	5.15	5.63	1.0	20hz	high_pain	48.5	1739.7221864999992			sub-046	250	46	46.6	48.5	COM5	COM15	COM3	2024-10-01_15h18.57.810	001-EEG_SVR_Officel	2022.2.5	60.58472743726854		11.69900000000007	1_sub-pilot046_SVR_EEG_block3-4.protocol.csv	step53	7620	757.01	STIMULATE	48.5	48.4	48.5	48.5	48.6	53	1651.196
1638.935	0	1638935	20hz	10003	3	0	3	0	9.0	0.0	9.0	0.0					1721.572271099998	1726.7222502000004	1726.7222502000004	8.0	['8', 'return']	[2.642178400001285, 3.250131100001454]	5.15	5.63	1.0	20hz	high_pain	48.5	1739.7221864999992			sub-046	250	46	46.6	48.5	COM5	COM15	COM3	2024-10-01_15h18.57.810	001-EEG_SVR_Officel	2022.2.5	60.58472743726854		5.135999999999967	1_sub-pilot046_SVR_EEG_block3-4.protocol.csv	step53	7620	757.01	STIMULATE	48.5	48.4	48.5	48.5	48.6	53	1651.196
1645.318	0	1645318	20/Hi	10001	3	0	3	0	9.0	0.0	9.0	0.0					1721.572271099998	1726.7222502000004	1726.7222502000004	8.0	['8', 'return']	[2.642178400001285, 3.250131100001454]	5.15	5.63	1.0	20hz	high_pain	48.5	1739.7221864999992			sub-046	250	46	46.6	48.5	COM5	COM15	COM3	2024-10-01_15h18.57.810	001-EEG_SVR_Officel	2022.2.5	60.58472743726854		5.633000000000038	1_sub-pilot046_SVR_EEG_block3-4.protocol.csv	step53	7620	757.01	STIMULATE	48.5	48.4	48.5	48.5	48.6	53	1651.196
1655.238	0	1655238	wait	10004	3	0	3	0	10.0	0.0	10.0	0.0					1743.0110099999984	1748.438934599999	1748.438934599999	4.5	['4', 'a', '5', 'return']	[5.216380899997603, 5.552085299997998, 5.856109099997411, 6.608669900000677]	5.42	5.77	2.0	40hz	low_pain	46.6				sub-046	250	46	46.6	48.5	COM5	COM15	COM3	2024-10-01_15h18.57.810	001-EEG_SVR_Officel	2022.2.5	60.58472743726854		10.670000000000073	1_sub-pilot046_SVR_EEG_block3-4.protocol.csv	step55	7838	778.987	STIMULATE	46.6	46.5	46.5	46.5	46.6	55	1673.173
1660.651	0	1660651	40hz	10003	3	0	3	0	10.0	0.0	10.0	0.0					1743.0110099999984	1748.438934599999	1748.438934599999	4.5	['4', 'a', '5', 'return']	[5.216380899997603, 5.552085299997998, 5.856109099997411, 6.608669900000677]	5.42	5.77	2.0	40hz	low_pain	46.6				sub-046	250	46	46.6	48.5	COM5	COM15	COM3	2024-10-01_15h18.57.810	001-EEG_SVR_Officel	2022.2.5	60.58472743726854		5.413000000000011	1_sub-pilot046_SVR_EEG_block3-4.protocol.csv	step55	7838	778.987	STIMULATE	46.6	46.5	46.5	46.5	46.6	55	1673.173
1667.183	0	1667183	40/Lo	10001	3	0	3	0	10.0	0.0	10.0	0.0					1743.0110099999984	1748.438934599999	1748.438934599999	4.5	['4', 'a', '5', 'return']	[5.216380899997603, 5.552085299997998, 5.856109099997411, 6.608669900000677]	5.42	5.77	2.0	40hz	low_pain	46.6				sub-046	250	46	46.6	48.5	COM5	COM15	COM3	2024-10-01_15h18.57.810	001-EEG_SVR_Officel	2022.2.5	60.58472743726854		5.781999999999925	1_sub-pilot046_SVR_EEG_block3-4.protocol.csv	step55	7838	778.987	STIMULATE	46.6	46.5	46.5	46.5	46.6	55	1673.173
1680.315	0	1680315	wait	10004	3	0	3	0	11.0	0.0	11.0	0.0					1768.0885001999995	1773.4773556	1773.4773556	8.5	['8', 'a', '5', 'return']	[2.203514600001654, 2.659545700000308, 2.9391185999993468, 3.5476932999990822]	5.39	6.13	3.0	20hz	high_pain	48.5				sub-046	250	46	46.6	48.5	COM5	COM15	COM3	2024-10-01_15h18.57.810	001-EEG_SVR_Officel	2022.2.5	60.58472743726854		13.882000000000062	1_sub-pilot046_SVR_EEG_block3-4.protocol.csv	step57	8084	804.358	STIMULATE	48.5	48.4	48.4	48.5	48.5	57	1698.5439999999999
1685.688	0	1685688	20hz	10003	3	0	3	0	11.0	0.0	11.0	0.0					1768.0885001999995	1773.4773556	1773.4773556	8.5	['8', 'a', '5', 'return']	[2.203514600001654, 2.659545700000308, 2.9391185999993468, 3.5476932999990822]	5.39	6.13	3.0	20hz	high_pain	48.5				sub-046	250	46	46.6	48.5	COM5	COM15	COM3	2024-10-01_15h18.57.810	001-EEG_SVR_Officel	2022.2.5	60.58472743726854		5.373000000000047	1_sub-pilot046_SVR_EEG_block3-4.protocol.csv	step57	8084	804.358	STIMULATE	48.5	48.4	48.4	48.5	48.5	57	1698.5439999999999
1692.571	0	1692571	20/Hi	10001	3	0	3	0	11.0	0.0	11.0	0.0					1768.0885001999995	1773.4773556	1773.4773556	8.5	['8', 'a', '5', 'return']	[2.203514600001654, 2.659545700000308, 2.9391185999993468, 3.5476932999990822]	5.39	6.13	3.0	20hz	high_pain	48.5				sub-046	250	46	46.6	48.5	COM5	COM15	COM3	2024-10-01_15h18.57.810	001-EEG_SVR_Officel	2022.2.5	60.58472743726854		6.132999999999811	1_sub-pilot046_SVR_EEG_block3-4.protocol.csv	step57	8084	804.358	STIMULATE	48.5	48.4	48.4	48.5	48.5	57	1698.5439999999999
1702.298	0	1702298	wait	10004	3	0	3	0	12.0	0.0	12.0	0.0					1790.0714423999998	1798.0602469999976	1798.0602469999976	9.0	['9', 'return']	[2.636280499998975, 3.3398115999989386]	7.97	5.62	0.0	controle	high_pain	48.5				sub-046	250	46	46.6	48.5	COM5	COM15	COM3	2024-10-01_15h18.57.810	001-EEG_SVR_Officel	2022.2.5	60.58472743726854		10.47700000000009	1_sub-pilot046_SVR_EEG_block3-4.protocol.csv	step59	8314	828.342	STIMULATE	48.5	48.5	48.5	48.5	48.5	59	1722.528
1710.267	0	1710267	CNhz	10003	3	0	3	0	12.0	0.0	12.0	0.0					1790.0714423999998	1798.0602469999976	1798.0602469999976	9.0	['9', 'return']	[2.636280499998975, 3.3398115999989386]	7.97	5.62	0.0	controle	high_pain	48.5				sub-046	250	46	46.6	48.5	COM5	COM15	COM3	2024-10-01_15h18.57.810	001-EEG_SVR_Officel	2022.2.5	60.58472743726854		7.969000000000051	1_sub-pilot046_SVR_EEG_block3-4.protocol.csv	step59	8314	828.342	STIMULATE	48.5	48.5	48.5	48.5	48.5	59	1722.528
1716.649	0	1716649	CN/Hi	10001	3	0	3	0	12.0	0.0	12.0	0.0					1790.0714423999998	1798.0602469999976	1798.0602469999976	9.0	['9', 'return']	[2.636280499998975, 3.3398115999989386]	7.97	5.62	0.0	controle	high_pain	48.5				sub-046	250	46	46.6	48.5	COM5	COM15	COM3	2024-10-01_15h18.57.810	001-EEG_SVR_Officel	2022.2.5	60.58472743726854		5.6319999999998345	1_sub-pilot046_SVR_EEG_block3-4.protocol.csv	step59	8314	828.342	STIMULATE	48.5	48.5	48.5	48.5	48.5	59	1722.528
1726.691	0	1726691	wait	10004	3	0	3	0	13.0	0.0	13.0	0.0					1814.464507599998	1820.7107910999985	1820.7107910999985	4.5	['4', 'a', '5', 'return']	[3.2590368000019225, 3.626841500001319, 3.8663420000011683, 4.770584300000337]	6.23	5.88	1.0	10hz	low_pain	46.6				sub-046	250	46	46.6	48.5	COM5	COM15	COM3	2024-10-01_15h18.57.810	001-EEG_SVR_Officel	2022.2.5	60.58472743726854		10.792000000000144	1_sub-pilot046_SVR_EEG_block3-4.protocol.csv	step61	8533	851.368	STIMULATE	46.6	46.5	46.5	46.5	46.6	61	1745.554
1732.917	0	1732917	10hz	10003	3	0	3	0	13.0	0.0	13.0	0.0					1814.464507599998	1820.7107910999985	1820.7107910999985	4.5	['4', 'a', '5', 'return']	[3.2590368000019225, 3.626841500001319, 3.8663420000011683, 4.770584300000337]	6.23	5.88	1.0	10hz	low_pain	46.6				sub-046	250	46	46.6	48.5	COM5	COM15	COM3	2024-10-01_15h18.57.810	001-EEG_SVR_Officel	2022.2.5	60.58472743726854		6.225999999999885	1_sub-pilot046_SVR_EEG_block3-4.protocol.csv	step61	8533	851.368	STIMULATE	46.6	46.5	46.5	46.5	46.6	61	1745.554
1739.549	0	1739549	10/Lo	10001	3	0	3	0	13.0	0.0	13.0	0.0					1814.464507599998	1820.7107910999985	1820.7107910999985	4.5	['4', 'a', '5', 'return']	[3.2590368000019225, 3.626841500001319, 3.8663420000011683, 4.770584300000337]	6.23	5.88	1.0	10hz	low_pain	46.6				sub-046	250	46	46.6	48.5	COM5	COM15	COM3	2024-10-01_15h18.57.810	001-EEG_SVR_Officel	2022.2.5	60.58472743726854		5.882000000000062	1_sub-pilot046_SVR_EEG_block3-4.protocol.csv	step61	8533	851.368	STIMULATE	46.6	46.5	46.5	46.5	46.6	61	1745.554
1750.765	0	1750765	wait	10004	3	0	3	0	14.0	0.0	14.0	0.0					1838.5385236	1846.1878546999976	1846.1878546999976	8.5	['8', 'a', '5', 'return']	[2.648720000001049, 3.080407600002218, 3.5281928000003973, 4.241221600001154]	7.65	5.65	2.0	10hz	high_pain	48.5	1859.1879271			sub-046	250	46	46.6	48.5	COM5	COM15	COM3	2024-10-01_15h18.57.810	001-EEG_SVR_Officel	2022.2.5	60.58472743726854		11.966000000000122	1_sub-pilot046_SVR_EEG_block3-4.protocol.csv	step63	8770	876.576	STIMULATE	48.5	48.5	48.5	48.5	48.5	63	1770.7620000000002
1758.399	0	1758399	10hz	10003	3	0	3	0	14.0	0.0	14.0	0.0					1838.5385236	1846.1878546999976	1846.1878546999976	8.5	['8', 'a', '5', 'return']	[2.648720000001049, 3.080407600002218, 3.5281928000003973, 4.241221600001154]	7.65	5.65	2.0	10hz	high_pain	48.5	1859.1879271			sub-046	250	46	46.6	48.5	COM5	COM15	COM3	2024-10-01_15h18.57.810	001-EEG_SVR_Officel	2022.2.5	60.58472743726854		7.633999999999787	1_sub-pilot046_SVR_EEG_block3-4.protocol.csv	step63	8770	876.576	STIMULATE	48.5	48.5	48.5	48.5	48.5	63	1770.7620000000002
1764.804	0	1764804	10/Hi	10001	3	0	3	0	14.0	0.0	14.0	0.0					1838.5385236	1846.1878546999976	1846.1878546999976	8.5	['8', 'a', '5', 'return']	[2.648720000001049, 3.080407600002218, 3.5281928000003973, 4.241221600001154]	7.65	5.65	2.0	10hz	high_pain	48.5	1859.1879271			sub-046	250	46	46.6	48.5	COM5	COM15	COM3	2024-10-01_15h18.57.810	001-EEG_SVR_Officel	2022.2.5	60.58472743726854		5.6550000000002	1_sub-pilot046_SVR_EEG_block3-4.protocol.csv	step63	8770	876.576	STIMULATE	48.5	48.5	48.5	48.5	48.5	63	1770.7620000000002
1775.698	0	1775698	wait	10004	3	0	3	0	15.0	0.0	15.0	0.0					1863.4709848999992	1871.4378715999992	1871.4378715999992	6.0	['6', 'return']	[1.9192793000001984, 2.57417390000046]	7.96	5.55	3.0	40hz	low_pain	46.6				sub-046	250	46	46.6	48.5	COM5	COM15	COM3	2024-10-01_15h18.57.810	001-EEG_SVR_Officel	2022.2.5	60.58472743726854		11.644000000000005	1_sub-pilot046_SVR_EEG_block3-4.protocol.csv	step65	9004	901.647	STIMULATE	46.6	46.5	46.5	46.5	46.6	65	1795.833
1783.649	0	1783649	40hz	10003	3	0	3	0	15.0	0.0	15.0	0.0					1863.4709848999992	1871.4378715999992	1871.4378715999992	6.0	['6', 'return']	[1.9192793000001984, 2.57417390000046]	7.96	5.55	3.0	40hz	low_pain	46.6				sub-046	250	46	46.6	48.5	COM5	COM15	COM3	2024-10-01_15h18.57.810	001-EEG_SVR_Officel	2022.2.5	60.58472743726854		7.9509999999997945	1_sub-pilot046_SVR_EEG_block3-4.protocol.csv	step65	9004	901.647	STIMULATE	46.6	46.5	46.5	46.5	46.6	65	1795.833
1789.965	0	1789965	40/Lo	10001	3	0	3	0	15.0	0.0	15.0	0.0					1863.4709848999992	1871.4378715999992	1871.4378715999992	6.0	['6', 'return']	[1.9192793000001984, 2.57417390000046]	7.96	5.55	3.0	40hz	low_pain	46.6				sub-046	250	46	46.6	48.5	COM5	COM15	COM3	2024-10-01_15h18.57.810	001-EEG_SVR_Officel	2022.2.5	60.58472743726854		5.566000000000031	1_sub-pilot046_SVR_EEG_block3-4.protocol.csv	step65	9004	901.647	STIMULATE	46.6	46.5	46.5	46.5	46.6	65	1795.833
1860.147	0	1860147	wait	10004	4	0	4	0	0.0	0.0	0.0	0.0			p	0.4802271999978984	1947.9204266999984	1954.7704137	1954.7704137	6.0	['6', 'return']	[4.051584900000307, 4.610579399999551]	6.84	5.0	0.0	40hz	low_pain	46.6	1967.7703965			sub-046	250	46	46.6	48.5	COM5	COM15	COM3	2024-10-01_15h18.57.810	001-EEG_SVR_Officel	2022.2.5	60.58472743726854		70.93200000000002	2_sub-pilot046_SVR_EEG_block5-6.protocol.csv	step3	717	71.511	STIMULATE	46.7	46.5	46.5	46.5	46.6	3	1878.565
1866.982	0	1866982	40hz	10003	4	0	4	0	0.0	0.0	0.0	0.0			p	0.4802271999978984	1947.9204266999984	1954.7704137	1954.7704137	6.0	['6', 'return']	[4.051584900000307, 4.610579399999551]	6.84	5.0	0.0	40hz	low_pain	46.6	1967.7703965			sub-046	250	46	46.6	48.5	COM5	COM15	COM3	2024-10-01_15h18.57.810	001-EEG_SVR_Officel	2022.2.5	60.58472743726854		6.835000000000036	2_sub-pilot046_SVR_EEG_block5-6.protocol.csv	step3	717	71.511	STIMULATE	46.7	46.5	46.5	46.5	46.6	3	1878.565
1872.748	0	1872748	40/Lo	10001	4	0	4	0	0.0	0.0	0.0	0.0			p	0.4802271999978984	1947.9204266999984	1954.7704137	1954.7704137	6.0	['6', 'return']	[4.051584900000307, 4.610579399999551]	6.84	5.0	0.0	40hz	low_pain	46.6	1967.7703965			sub-046	250	46	46.6	48.5	COM5	COM15	COM3	2024-10-01_15h18.57.810	001-EEG_SVR_Officel	2022.2.5	60.58472743726854		5.016000000000076	2_sub-pilot046_SVR_EEG_block5-6.protocol.csv	step3	717	71.511	STIMULATE	46.7	46.5	46.5	46.5	46.6	3	1878.565
1884.647	0	1884647	wait	10004	4	0	4	0	1.0	0.0	1.0	0.0					1972.420037	1977.9866989	1977.9866989	5.0	['5', 'return']	[2.641262799999822, 3.177954499999032]	5.56	5.25	1.0	10hz	low_pain	46.6	1990.986853399998			sub-046	250	46	46.6	48.5	COM5	COM15	COM3	2024-10-01_15h18.57.810	001-EEG_SVR_Officel	2022.2.5	60.58472743726854		12.648999999999887	2_sub-pilot046_SVR_EEG_block5-6.protocol.csv	step5	954	95.026	STIMULATE	46.6	46.5	46.5	46.5	46.7	5	1902.08
1890.198	0	1890198	10hz	10003	4	0	4	0	1.0	0.0	1.0	0.0					1972.420037	1977.9866989	1977.9866989	5.0	['5', 'return']	[2.641262799999822, 3.177954499999032]	5.56	5.25	1.0	10hz	low_pain	46.6	1990.986853399998			sub-046	250	46	46.6	48.5	COM5	COM15	COM3	2024-10-01_15h18.57.810	001-EEG_SVR_Officel	2022.2.5	60.58472743726854		5.551000000000158	2_sub-pilot046_SVR_EEG_block5-6.protocol.csv	step5	954	95.026	STIMULATE	46.6	46.5	46.5	46.5	46.7	5	1902.08
1896.214	0	1896214	10/Lo	10001	4	0	4	0	1.0	0.0	1.0	0.0					1972.420037	1977.9866989	1977.9866989	5.0	['5', 'return']	[2.641262799999822, 3.177954499999032]	5.56	5.25	1.0	10hz	low_pain	46.6	1990.986853399998			sub-046	250	46	46.6	48.5	COM5	COM15	COM3	2024-10-01_15h18.57.810	001-EEG_SVR_Officel	2022.2.5	60.58472743726854		5.265999999999849	2_sub-pilot046_SVR_EEG_block5-6.protocol.csv	step5	954	95.026	STIMULATE	46.6	46.5	46.5	46.5	46.7	5	1902.08
1906.43	0	1906430	wait	10004	4	0	4	0	2.0	0.0	2.0	0.0					1994.2031328999983	2001.5865314999971	2001.5865314999971	7.0	['7', 'return']	[3.0181799000019964, 3.577881000001071]	7.37	5.38	2.0	40hz	low_pain	46.6	2014.586639699999			sub-046	250	46	46.6	48.5	COM5	COM15	COM3	2024-10-01_15h18.57.810	001-EEG_SVR_Officel	2022.2.5	60.58472743726854		10.966000000000122	2_sub-pilot046_SVR_EEG_block5-6.protocol.csv	step7	1193	118.725	STIMULATE	46.6	46.5	46.5	46.5	46.5	7	1925.779
1913.798	0	1913798	40hz	10003	4	0	4	0	2.0	0.0	2.0	0.0					1994.2031328999983	2001.5865314999971	2001.5865314999971	7.0	['7', 'return']	[3.0181799000019964, 3.577881000001071]	7.37	5.38	2.0	40hz	low_pain	46.6	2014.586639699999			sub-046	250	46	46.6	48.5	COM5	COM15	COM3	2024-10-01_15h18.57.810	001-EEG_SVR_Officel	2022.2.5	60.58472743726854		7.367999999999938	2_sub-pilot046_SVR_EEG_block5-6.protocol.csv	step7	1193	118.725	STIMULATE	46.6	46.5	46.5	46.5	46.5	7	1925.779
1919.931	0	1919931	40/Lo	10001	4	0	4	0	2.0	0.0	2.0	0.0					1994.2031328999983	2001.5865314999971	2001.5865314999971	7.0	['7', 'return']	[3.0181799000019964, 3.577881000001071]	7.37	5.38	2.0	40hz	low_pain	46.6	2014.586639699999			sub-046	250	46	46.6	48.5	COM5	COM15	COM3	2024-10-01_15h18.57.810	001-EEG_SVR_Officel	2022.2.5	60.58472743726854		5.383000000000038	2_sub-pilot046_SVR_EEG_block5-6.protocol.csv	step7	1193	118.725	STIMULATE	46.6	46.5	46.5	46.5	46.5	7	1925.779
1930.43	0	1930430	wait	10004	4	0	4	0	3.0	0.0	3.0	0.0					2018.2030362999976	2023.7533187000008	2023.7533187000008	9.0	['9', 'return']	[2.80650070000047, 3.3102083999983734]	5.54	5.98	3.0	controle	high_pain	48.5				sub-046	250	46	46.6	48.5	COM5	COM15	COM3	2024-10-01_15h18.57.810	001-EEG_SVR_Officel	2022.2.5	60.58472743726854		11.249000000000024	2_sub-pilot046_SVR_EEG_block5-6.protocol.csv	step9	1423	141.537	STIMULATE	48.5	48.5	48.5	48.4	48.5	9	1948.5910000000001
1935.964	0	1935964	CNhz	10003	4	0	4	0	3.0	0.0	3.0	0.0					2018.2030362999976	2023.7533187000008	2023.7533187000008	9.0	['9', 'return']	[2.80650070000047, 3.3102083999983734]	5.54	5.98	3.0	controle	high_pain	48.5				sub-046	250	46	46.6	48.5	COM5	COM15	COM3	2024-10-01_15h18.57.810	001-EEG_SVR_Officel	2022.2.5	60.58472743726854		5.533999999999878	2_sub-pilot046_SVR_EEG_block5-6.protocol.csv	step9	1423	141.537	STIMULATE	48.5	48.5	48.5	48.4	48.5	9	1948.5910000000001
1942.697	0	1942697	CN/Hi	10001	4	0	4	0	3.0	0.0	3.0	0.0					2018.2030362999976	2023.7533187000008	2023.7533187000008	9.0	['9', 'return']	[2.80650070000047, 3.3102083999983734]	5.54	5.98	3.0	controle	high_pain	48.5				sub-046	250	46	46.6	48.5	COM5	COM15	COM3	2024-10-01_15h18.57.810	001-EEG_SVR_Officel	2022.2.5	60.58472743726854		5.982999999999947	2_sub-pilot046_SVR_EEG_block5-6.protocol.csv	step9	1423	141.537	STIMULATE	48.5	48.5	48.5	48.4	48.5	9	1948.5910000000001
1952.33	0	1952330	wait	10004	4	0	4	0	4.0	0.0	4.0	0.0					2040.1027431999971	2045.1862053999976	2045.1862053999976	8.5	['8', 'a', '5', 'return']	[2.145705299997644, 2.593715200000588, 2.8578134999988833, 3.4976174000003084]	5.08	5.68	0.0	controle	high_pain	48.5	2058.186607399999			sub-046	250	46	46.6	48.5	COM5	COM15	COM3	2024-10-01_15h18.57.810	001-EEG_SVR_Officel	2022.2.5	60.58472743726854		10.383000000000038	2_sub-pilot046_SVR_EEG_block5-6.protocol.csv	step11	1636	162.65	STIMULATE	48.5	48.5	48.5	48.5	48.6	11	1969.704
