onset	duration	sample	trial_type	value	block.thisRepN	block.thisTrialN	block.thisN	block.thisIndex	reps.thisRepN	reps.thisTrialN	reps.thisN	reps.thisIndex	afrec_start	rec_start	rec_start_egi	key_resp.keys	key_resp.rt	wait_time_text.started	wait_time_text.stopped	therm_loca_text.started	subResponse	keyResp.keys	keyResp.rt	ITI_wait	wait_trigger	loca_thermode	Hz_condition	temp_condition	temp_valeur	text.started	text.stopped	participant	brightness	num_part	low	high	com_svr	com_thermode	com_eeg	date	expName	psychopyVersion	frameRate	Unnamed: 39	distance_from_previous	file	step	index	time	type	temp1	temp2	temp3	temp4	temp5	step_num	time_sync
135.154	0	67577	wait	20	0	0	0	0	0.0	0.0	0.0	0.0	51.3431230999995	51.1381908999756	1719413951.2119007	p	134.9169185999781	186.29091019998305	191.68029459984973	191.68029459984973	6.0	['6', 'return']	[4.359572799876332, 4.983631799928844]	5.38	5.72	0.0	40hz	low_pain	40.3			sub-043	250	43	40.3	41.4	COM11	COM15	COM3	2024-06-26_10h58.42.758	001-EEG_SVR_Officel	2022.2.5	144.05672391237135		135.154	0_sub-pilot043_SVR_EEG_block1-2.protocol.csv	step3	1686	168.419	STIMULATE	40.2	40.1	40.1	40.1	40.1	3	152.889
140.53	0	70265	40hz	9	0	0	0	0	0.0	0.0	0.0	0.0	51.3431230999995	51.1381908999756	1719413951.2119007	p	134.9169185999781	186.29091019998305	191.68029459984973	191.68029459984973	6.0	['6', 'return']	[4.359572799876332, 4.983631799928844]	5.38	5.72	0.0	40hz	low_pain	40.3			sub-043	250	43	40.3	41.4	COM11	COM15	COM3	2024-06-26_10h58.42.758	001-EEG_SVR_Officel	2022.2.5	144.05672391237135		5.376000000000005	0_sub-pilot043_SVR_EEG_block1-2.protocol.csv	step3	1686	168.419	STIMULATE	40.2	40.1	40.1	40.1	40.1	3	152.889
147.002	0	73501	40/Lo	8	0	0	0	0	0.0	0.0	0.0	0.0	51.3431230999995	51.1381908999756	1719413951.2119007	p	134.9169185999781	186.29091019998305	191.68029459984973	191.68029459984973	6.0	['6', 'return']	[4.359572799876332, 4.983631799928844]	5.38	5.72	0.0	40hz	low_pain	40.3			sub-043	250	43	40.3	41.4	COM11	COM15	COM3	2024-06-26_10h58.42.758	001-EEG_SVR_Officel	2022.2.5	144.05672391237135		5.722000000000008	0_sub-pilot043_SVR_EEG_block1-2.protocol.csv	step3	1686	168.419	STIMULATE	40.2	40.1	40.1	40.1	40.1	3	152.889
158.544	0	79272	wait	20	0	0	0	0	1.0	0.0	1.0	0.0						209.68246769998223	215.18330399994736	215.18330399994736	6.5	['6', 'a', '5', 'return']	[5.5046071000397205, 5.7289517999161035, 5.935760200023651, 6.6092083000112325]	5.49	6.28	1.0	10hz	high_pain	41.4			sub-043	250	43	40.3	41.4	COM11	COM15	COM3	2024-06-26_10h58.42.758	001-EEG_SVR_Officel	2022.2.5	144.05672391237135		12.292000000000002	0_sub-pilot043_SVR_EEG_block1-2.protocol.csv	step5	1928	192.435	STIMULATE	41.3	41.2	41.2	41.2	41.3	5	176.905
164.034	0	82017	10hz	3	0	0	0	0	1.0	0.0	1.0	0.0						209.68246769998223	215.18330399994736	215.18330399994736	6.5	['6', 'a', '5', 'return']	[5.5046071000397205, 5.7289517999161035, 5.935760200023651, 6.6092083000112325]	5.49	6.28	1.0	10hz	high_pain	41.4			sub-043	250	43	40.3	41.4	COM11	COM15	COM3	2024-06-26_10h58.42.758	001-EEG_SVR_Officel	2022.2.5	144.05672391237135		5.489999999999981	0_sub-pilot043_SVR_EEG_block1-2.protocol.csv	step5	1928	192.435	STIMULATE	41.3	41.2	41.2	41.2	41.3	5	176.905
171.066	0	85533	10/Hi	1	0	0	0	0	1.0	0.0	1.0	0.0						209.68246769998223	215.18330399994736	215.18330399994736	6.5	['6', 'a', '5', 'return']	[5.5046071000397205, 5.7289517999161035, 5.935760200023651, 6.6092083000112325]	5.49	6.28	1.0	10hz	high_pain	41.4			sub-043	250	43	40.3	41.4	COM11	COM15	COM3	2024-06-26_10h58.42.758	001-EEG_SVR_Officel	2022.2.5	144.05672391237135		6.282000000000011	0_sub-pilot043_SVR_EEG_block1-2.protocol.csv	step5	1928	192.435	STIMULATE	41.3	41.2	41.2	41.2	41.3	5	176.905
183.672	0	91836	wait	20	0	0	0	0	2.0	0.0	2.0	0.0						234.81049879989587	240.15851400000972	240.15851400000972	6.5	['6', 'a', '5', 'return']	[3.994577300036326, 4.305659500183538, 4.585633900016546, 5.338824599981308]	5.34	5.71	2.0	20hz	high_pain	41.4			sub-043	250	43	40.3	41.4	COM11	COM15	COM3	2024-06-26_10h58.42.758	001-EEG_SVR_Officel	2022.2.5	144.05672391237135		13.355999999999995	0_sub-pilot043_SVR_EEG_block1-2.protocol.csv	step7	2174	216.877	STIMULATE	41.3	41.2	41.2	41.2	41.2	7	201.347
189.008	0	94504	20hz	6	0	0	0	0	2.0	0.0	2.0	0.0						234.81049879989587	240.15851400000972	240.15851400000972	6.5	['6', 'a', '5', 'return']	[3.994577300036326, 4.305659500183538, 4.585633900016546, 5.338824599981308]	5.34	5.71	2.0	20hz	high_pain	41.4			sub-043	250	43	40.3	41.4	COM11	COM15	COM3	2024-06-26_10h58.42.758	001-EEG_SVR_Officel	2022.2.5	144.05672391237135		5.336000000000013	0_sub-pilot043_SVR_EEG_block1-2.protocol.csv	step7	2174	216.877	STIMULATE	41.3	41.2	41.2	41.2	41.2	7	201.347
195.472	0	97736	20/Hi	4	0	0	0	0	2.0	0.0	2.0	0.0						234.81049879989587	240.15851400000972	240.15851400000972	6.5	['6', 'a', '5', 'return']	[3.994577300036326, 4.305659500183538, 4.585633900016546, 5.338824599981308]	5.34	5.71	2.0	20hz	high_pain	41.4			sub-043	250	43	40.3	41.4	COM11	COM15	COM3	2024-06-26_10h58.42.758	001-EEG_SVR_Officel	2022.2.5	144.05672391237135		5.713999999999999	0_sub-pilot043_SVR_EEG_block1-2.protocol.csv	step7	2174	216.877	STIMULATE	41.3	41.2	41.2	41.2	41.2	7	201.347
207.378	0	103689	wait	20	0	0	0	0	3.0	0.0	3.0	0.0						258.51555190002546	265.50228210003115	265.50228210003115	6.0	['6', 'return']	[3.497341200010851, 4.002522199880332]	6.98	5.6	3.0	20hz	low_pain	40.3			sub-043	250	43	40.3	41.4	COM11	COM15	COM3	2024-06-26_10h58.42.758	001-EEG_SVR_Officel	2022.2.5	144.05672391237135		12.655999999999977	0_sub-pilot043_SVR_EEG_block1-2.protocol.csv	step9	2428	242.02	STIMULATE	40.1	40.1	40.1	40.1	40.1	9	226.49
214.352	0	107176	20hz	6	0	0	0	0	3.0	0.0	3.0	0.0						258.51555190002546	265.50228210003115	265.50228210003115	6.0	['6', 'return']	[3.497341200010851, 4.002522199880332]	6.98	5.6	3.0	20hz	low_pain	40.3			sub-043	250	43	40.3	41.4	COM11	COM15	COM3	2024-06-26_10h58.42.758	001-EEG_SVR_Officel	2022.2.5	144.05672391237135		6.974000000000018	0_sub-pilot043_SVR_EEG_block1-2.protocol.csv	step9	2428	242.02	STIMULATE	40.1	40.1	40.1	40.1	40.1	9	226.49
220.704	0	110352	20/Lo	5	0	0	0	0	3.0	0.0	3.0	0.0						258.51555190002546	265.50228210003115	265.50228210003115	6.0	['6', 'return']	[3.497341200010851, 4.002522199880332]	6.98	5.6	3.0	20hz	low_pain	40.3			sub-043	250	43	40.3	41.4	COM11	COM15	COM3	2024-06-26_10h58.42.758	001-EEG_SVR_Officel	2022.2.5	144.05672391237135		5.602000000000004	0_sub-pilot043_SVR_EEG_block1-2.protocol.csv	step9	2428	242.02	STIMULATE	40.1	40.1	40.1	40.1	40.1	9	226.49
231.386	0	115693	wait	20	0	0	0	0	4.0	0.0	4.0	0.0						282.52501509990543	288.48378470004536	288.48378470004536	7.0	['7', 'return']	[3.051929300185293, 3.5716040001716465]	5.95	5.8	0.0	controle	high_pain	41.4			sub-043	250	43	40.3	41.4	COM11	COM15	COM3	2024-06-26_10h58.42.758	001-EEG_SVR_Officel	2022.2.5	144.05672391237135		11.431999999999988	0_sub-pilot043_SVR_EEG_block1-2.protocol.csv	step11	2662	265.276	STIMULATE	41.3	41.2	41.2	41.2	41.3	11	249.746
237.334	0	118667	CNhz	12	0	0	0	0	4.0	0.0	4.0	0.0						282.52501509990543	288.48378470004536	288.48378470004536	7.0	['7', 'return']	[3.051929300185293, 3.5716040001716465]	5.95	5.8	0.0	controle	high_pain	41.4			sub-043	250	43	40.3	41.4	COM11	COM15	COM3	2024-06-26_10h58.42.758	001-EEG_SVR_Officel	2022.2.5	144.05672391237135		5.9480000000000075	0_sub-pilot043_SVR_EEG_block1-2.protocol.csv	step11	2662	265.276	STIMULATE	41.3	41.2	41.2	41.2	41.3	11	249.746
243.888	0	121944	CN/Hi	10	0	0	0	0	4.0	0.0	4.0	0.0						282.52501509990543	288.48378470004536	288.48378470004536	7.0	['7', 'return']	[3.051929300185293, 3.5716040001716465]	5.95	5.8	0.0	controle	high_pain	41.4			sub-043	250	43	40.3	41.4	COM11	COM15	COM3	2024-06-26_10h58.42.758	001-EEG_SVR_Officel	2022.2.5	144.05672391237135		5.804000000000002	0_sub-pilot043_SVR_EEG_block1-2.protocol.csv	step11	2662	265.276	STIMULATE	41.3	41.2	41.2	41.2	41.3	11	249.746
253.944	0	126972	wait	20	0	0	0	0	5.0	0.0	5.0	0.0						305.0828629999887	311.0418864998501	311.0418864998501	6.0	['6', 'return']	[3.64649790013209, 4.158807100029662]	5.95	6.29	1.0	20hz	low_pain	40.3			sub-043	250	43	40.3	41.4	COM11	COM15	COM3	2024-06-26_10h58.42.758	001-EEG_SVR_Officel	2022.2.5	144.05672391237135		10.805999999999983	0_sub-pilot043_SVR_EEG_block1-2.protocol.csv	step13	2895	288.315	STIMULATE	40.1	40.1	40.1	40.1	40.2	13	272.78499999999997
259.892	0	129946	20hz	6	0	0	0	0	5.0	0.0	5.0	0.0						305.0828629999887	311.0418864998501	311.0418864998501	6.0	['6', 'return']	[3.64649790013209, 4.158807100029662]	5.95	6.29	1.0	20hz	low_pain	40.3			sub-043	250	43	40.3	41.4	COM11	COM15	COM3	2024-06-26_10h58.42.758	001-EEG_SVR_Officel	2022.2.5	144.05672391237135		5.9480000000000075	0_sub-pilot043_SVR_EEG_block1-2.protocol.csv	step13	2895	288.315	STIMULATE	40.1	40.1	40.1	40.1	40.2	13	272.78499999999997
266.932	0	133466	20/Lo	5	0	0	0	0	5.0	0.0	5.0	0.0						305.0828629999887	311.0418864998501	311.0418864998501	6.0	['6', 'return']	[3.64649790013209, 4.158807100029662]	5.95	6.29	1.0	20hz	low_pain	40.3			sub-043	250	43	40.3	41.4	COM11	COM15	COM3	2024-06-26_10h58.42.758	001-EEG_SVR_Officel	2022.2.5	144.05672391237135		6.2900000000000205	0_sub-pilot043_SVR_EEG_block1-2.protocol.csv	step13	2895	288.315	STIMULATE	40.1	40.1	40.1	40.1	40.2	13	272.78499999999997
277.072	0	138536	wait	20	0	0	0	0	6.0	0.0	6.0	0.0						328.2101263999939	335.3226993000135	335.3226993000135	7.5	['7', 'a', '5', 'return']	[2.8139378998894244, 3.252603800036013, 3.701083099935204, 4.716905199922621]	7.1	5.86	2.0	20hz	low_pain	40.3			sub-043	250	43	40.3	41.4	COM11	COM15	COM3	2024-06-26_10h58.42.758	001-EEG_SVR_Officel	2022.2.5	144.05672391237135		10.889999999999986	0_sub-pilot043_SVR_EEG_block1-2.protocol.csv	step15	3135	312.149	STIMULATE	40.2	40.1	40.1	40.1	40.1	15	296.619
284.172	0	142086	20hz	6	0	0	0	0	6.0	0.0	6.0	0.0						328.2101263999939	335.3226993000135	335.3226993000135	7.5	['7', 'a', '5', 'return']	[2.8139378998894244, 3.252603800036013, 3.701083099935204, 4.716905199922621]	7.1	5.86	2.0	20hz	low_pain	40.3			sub-043	250	43	40.3	41.4	COM11	COM15	COM3	2024-06-26_10h58.42.758	001-EEG_SVR_Officel	2022.2.5	144.05672391237135		7.100000000000023	0_sub-pilot043_SVR_EEG_block1-2.protocol.csv	step15	3135	312.149	STIMULATE	40.2	40.1	40.1	40.1	40.1	15	296.619
290.78	0	145390	20/Lo	5	0	0	0	0	6.0	0.0	6.0	0.0						328.2101263999939	335.3226993000135	335.3226993000135	7.5	['7', 'a', '5', 'return']	[2.8139378998894244, 3.252603800036013, 3.701083099935204, 4.716905199922621]	7.1	5.86	2.0	20hz	low_pain	40.3			sub-043	250	43	40.3	41.4	COM11	COM15	COM3	2024-06-26_10h58.42.758	001-EEG_SVR_Officel	2022.2.5	144.05672391237135		5.857999999999947	0_sub-pilot043_SVR_EEG_block1-2.protocol.csv	step15	3135	312.149	STIMULATE	40.2	40.1	40.1	40.1	40.1	15	296.619
301.914	0	150957	wait	20	0	0	0	0	7.0	0.0	7.0	0.0						353.05369169986807	358.1724976999685	358.1724976999685	7.0	['7', 'return']	[4.322364999912679, 4.843978699995205]	5.11	6.1	3.0	40hz	low_pain	40.3			sub-043	250	43	40.3	41.4	COM11	COM15	COM3	2024-06-26_10h58.42.758	001-EEG_SVR_Officel	2022.2.5	144.05672391237135		11.884000000000015	0_sub-pilot043_SVR_EEG_block1-2.protocol.csv	step17	3368	335.286	STIMULATE	40.1	40.1	40.1	40.1	40.1	17	319.756
307.022	0	153511	40hz	9	0	0	0	0	7.0	0.0	7.0	0.0						353.05369169986807	358.1724976999685	358.1724976999685	7.0	['7', 'return']	[4.322364999912679, 4.843978699995205]	5.11	6.1	3.0	40hz	low_pain	40.3			sub-043	250	43	40.3	41.4	COM11	COM15	COM3	2024-06-26_10h58.42.758	001-EEG_SVR_Officel	2022.2.5	144.05672391237135		5.108000000000004	0_sub-pilot043_SVR_EEG_block1-2.protocol.csv	step17	3368	335.286	STIMULATE	40.1	40.1	40.1	40.1	40.1	17	319.756
313.874	0	156937	40/Lo	8	0	0	0	0	7.0	0.0	7.0	0.0						353.05369169986807	358.1724976999685	358.1724976999685	7.0	['7', 'return']	[4.322364999912679, 4.843978699995205]	5.11	6.1	3.0	40hz	low_pain	40.3			sub-043	250	43	40.3	41.4	COM11	COM15	COM3	2024-06-26_10h58.42.758	001-EEG_SVR_Officel	2022.2.5	144.05672391237135		6.102000000000032	0_sub-pilot043_SVR_EEG_block1-2.protocol.csv	step17	3368	335.286	STIMULATE	40.1	40.1	40.1	40.1	40.1	17	319.756
324.898	0	162449	wait	20	0	0	0	0	8.0	0.0	8.0	0.0						376.0358603999484	383.3775825998746	383.3775825998746	6.5	['6', 'a', '5', 'return']	[3.334036400076002, 3.702156900195405, 3.9031234001740813, 4.62267310009338]	7.33	5.26	0.0	10hz	high_pain	41.4			sub-043	250	43	40.3	41.4	COM11	COM15	COM3	2024-06-26_10h58.42.758	001-EEG_SVR_Officel	2022.2.5	144.05672391237135		11.774000000000001	0_sub-pilot043_SVR_EEG_block1-2.protocol.csv	step19	3614	359.678	STIMULATE	41.2	41.2	41.2	41.2	41.4	19	344.148
332.226	0	166113	10hz	3	0	0	0	0	8.0	0.0	8.0	0.0						376.0358603999484	383.3775825998746	383.3775825998746	6.5	['6', 'a', '5', 'return']	[3.334036400076002, 3.702156900195405, 3.9031234001740813, 4.62267310009338]	7.33	5.26	0.0	10hz	high_pain	41.4			sub-043	250	43	40.3	41.4	COM11	COM15	COM3	2024-06-26_10h58.42.758	001-EEG_SVR_Officel	2022.2.5	144.05672391237135		7.3279999999999745	0_sub-pilot043_SVR_EEG_block1-2.protocol.csv	step19	3614	359.678	STIMULATE	41.2	41.2	41.2	41.2	41.4	19	344.148
338.238	0	169119	10/Hi	1	0	0	0	0	8.0	0.0	8.0	0.0						376.0358603999484	383.3775825998746	383.3775825998746	6.5	['6', 'a', '5', 'return']	[3.334036400076002, 3.702156900195405, 3.9031234001740813, 4.62267310009338]	7.33	5.26	0.0	10hz	high_pain	41.4			sub-043	250	43	40.3	41.4	COM11	COM15	COM3	2024-06-26_10h58.42.758	001-EEG_SVR_Officel	2022.2.5	144.05672391237135		5.2620000000000005	0_sub-pilot043_SVR_EEG_block1-2.protocol.csv	step19	3614	359.678	STIMULATE	41.2	41.2	41.2	41.2	41.4	19	344.148
349.88	0	174940	wait	20	0	0	0	0	9.0	0.0	9.0	0.0						401.0186274000444	406.43572059995495	406.43572059995495	7.5	['7', 'a', '5', 'return']	[3.013709899969399, 3.4037766000255942, 3.635833299951628, 4.36447470006533]	5.41	5.35	1.0	20hz	high_pain	41.4			sub-043	250	43	40.3	41.4	COM11	COM15	COM3	2024-06-26_10h58.42.758	001-EEG_SVR_Officel	2022.2.5	144.05672391237135		12.391999999999996	0_sub-pilot043_SVR_EEG_block1-2.protocol.csv	step21	3847	382.802	STIMULATE	41.3	41.2	41.2	41.2	41.2	21	367.27200000000005
355.284	0	177642	20hz	6	0	0	0	0	9.0	0.0	9.0	0.0						401.0186274000444	406.43572059995495	406.43572059995495	7.5	['7', 'a', '5', 'return']	[3.013709899969399, 3.4037766000255942, 3.635833299951628, 4.36447470006533]	5.41	5.35	1.0	20hz	high_pain	41.4			sub-043	250	43	40.3	41.4	COM11	COM15	COM3	2024-06-26_10h58.42.758	001-EEG_SVR_Officel	2022.2.5	144.05672391237135		5.403999999999996	0_sub-pilot043_SVR_EEG_block1-2.protocol.csv	step21	3847	382.802	STIMULATE	41.3	41.2	41.2	41.2	41.2	21	367.27200000000005
361.388	0	180694	20/Hi	4	0	0	0	0	9.0	0.0	9.0	0.0						401.0186274000444	406.43572059995495	406.43572059995495	7.5	['7', 'a', '5', 'return']	[3.013709899969399, 3.4037766000255942, 3.635833299951628, 4.36447470006533]	5.41	5.35	1.0	20hz	high_pain	41.4			sub-043	250	43	40.3	41.4	COM11	COM15	COM3	2024-06-26_10h58.42.758	001-EEG_SVR_Officel	2022.2.5	144.05672391237135		5.353999999999985	0_sub-pilot043_SVR_EEG_block1-2.protocol.csv	step21	3847	382.802	STIMULATE	41.3	41.2	41.2	41.2	41.2	21	367.27200000000005
372.68	0	186340	wait	20	0	0	0	0	10.0	0.0	10.0	0.0						423.8193822000176	430.021393999923	430.021393999923	8.0	['8', 'return']	[2.7623207999859005, 3.322320600040257]	6.19	5.54	2.0	40hz	high_pain	41.4			sub-043	250	43	40.3	41.4	COM11	COM15	COM3	2024-06-26_10h58.42.758	001-EEG_SVR_Officel	2022.2.5	144.05672391237135		12.04200000000003	0_sub-pilot043_SVR_EEG_block1-2.protocol.csv	step23	4087	406.522	STIMULATE	41.2	41.2	41.2	41.2	41.3	23	390.99199999999996
378.87	0	189435	40hz	9	0	0	0	0	10.0	0.0	10.0	0.0						423.8193822000176	430.021393999923	430.021393999923	8.0	['8', 'return']	[2.7623207999859005, 3.322320600040257]	6.19	5.54	2.0	40hz	high_pain	41.4			sub-043	250	43	40.3	41.4	COM11	COM15	COM3	2024-06-26_10h58.42.758	001-EEG_SVR_Officel	2022.2.5	144.05672391237135		6.189999999999998	0_sub-pilot043_SVR_EEG_block1-2.protocol.csv	step23	4087	406.522	STIMULATE	41.2	41.2	41.2	41.2	41.3	23	390.99199999999996
385.162	0	192581	40/Hi	7	0	0	0	0	10.0	0.0	10.0	0.0						423.8193822000176	430.021393999923	430.021393999923	8.0	['8', 'return']	[2.7623207999859005, 3.322320600040257]	6.19	5.54	2.0	40hz	high_pain	41.4			sub-043	250	43	40.3	41.4	COM11	COM15	COM3	2024-06-26_10h58.42.758	001-EEG_SVR_Officel	2022.2.5	144.05672391237135		5.541999999999973	0_sub-pilot043_SVR_EEG_block1-2.protocol.csv	step23	4087	406.522	STIMULATE	41.2	41.2	41.2	41.2	41.3	23	390.99199999999996
395.216	0	197608	wait	20	0	0	0	0	11.0	0.0	11.0	0.0						446.3562421000097	452.8089455000591	452.8089455000591	7.5	['7', 'a', '5', 'return']	[2.7667072999756783, 3.1587902000173926, 3.4476936999708414, 4.126719000050798]	6.44	6.0	3.0	controle	low_pain	40.3			sub-043	250	43	40.3	41.4	COM11	COM15	COM3	2024-06-26_10h58.42.758	001-EEG_SVR_Officel	2022.2.5	144.05672391237135		10.80400000000003	0_sub-pilot043_SVR_EEG_block1-2.protocol.csv	step25	4321	429.807	STIMULATE	40.1	40.1	40.1	40.1	40.1	25	414.277
401.658	0	200829	CNhz	12	0	0	0	0	11.0	0.0	11.0	0.0						446.3562421000097	452.8089455000591	452.8089455000591	7.5	['7', 'a', '5', 'return']	[2.7667072999756783, 3.1587902000173926, 3.4476936999708414, 4.126719000050798]	6.44	6.0	3.0	controle	low_pain	40.3			sub-043	250	43	40.3	41.4	COM11	COM15	COM3	2024-06-26_10h58.42.758	001-EEG_SVR_Officel	2022.2.5	144.05672391237135		6.442000000000007	0_sub-pilot043_SVR_EEG_block1-2.protocol.csv	step25	4321	429.807	STIMULATE	40.1	40.1	40.1	40.1	40.1	25	414.277
408.406	0	204203	CN/Lo	11	0	0	0	0	11.0	0.0	11.0	0.0						446.3562421000097	452.8089455000591	452.8089455000591	7.5	['7', 'a', '5', 'return']	[2.7667072999756783, 3.1587902000173926, 3.4476936999708414, 4.126719000050798]	6.44	6.0	3.0	controle	low_pain	40.3			sub-043	250	43	40.3	41.4	COM11	COM15	COM3	2024-06-26_10h58.42.758	001-EEG_SVR_Officel	2022.2.5	144.05672391237135		5.9979999999999905	0_sub-pilot043_SVR_EEG_block1-2.protocol.csv	step25	4321	429.807	STIMULATE	40.1	40.1	40.1	40.1	40.1	25	414.277
418.81	0	209405	wait	20	0	0	0	0	12.0	0.0	12.0	0.0						469.9497642000206	476.9995605999138	476.9995605999138	5.0	['5', 'return']	[4.529312300030142, 5.112514700042084]	7.04	6.2	0.0	controle	low_pain	40.3			sub-043	250	43	40.3	41.4	COM11	COM15	COM3	2024-06-26_10h58.42.758	001-EEG_SVR_Officel	2022.2.5	144.05672391237135		11.153999999999996	0_sub-pilot043_SVR_EEG_block1-2.protocol.csv	step27	4567	454.128	STIMULATE	40.2	40.1	40.1	40.1	40.1	27	438.598
425.848	0	212924	CNhz	12	0	0	0	0	12.0	0.0	12.0	0.0						469.9497642000206	476.9995605999138	476.9995605999138	5.0	['5', 'return']	[4.529312300030142, 5.112514700042084]	7.04	6.2	0.0	controle	low_pain	40.3			sub-043	250	43	40.3	41.4	COM11	COM15	COM3	2024-06-26_10h58.42.758	001-EEG_SVR_Officel	2022.2.5	144.05672391237135		7.038000000000011	0_sub-pilot043_SVR_EEG_block1-2.protocol.csv	step27	4567	454.128	STIMULATE	40.2	40.1	40.1	40.1	40.1	27	438.598
432.798	0	216399	CN/Lo	11	0	0	0	0	12.0	0.0	12.0	0.0						469.9497642000206	476.9995605999138	476.9995605999138	5.0	['5', 'return']	[4.529312300030142, 5.112514700042084]	7.04	6.2	0.0	controle	low_pain	40.3			sub-043	250	43	40.3	41.4	COM11	COM15	COM3	2024-06-26_10h58.42.758	001-EEG_SVR_Officel	2022.2.5	144.05672391237135		6.199999999999989	0_sub-pilot043_SVR_EEG_block1-2.protocol.csv	step27	4567	454.128	STIMULATE	40.2	40.1	40.1	40.1	40.1	27	438.598
443.986	0	221993	wait	20	0	0	0	0	13.0	0.0	13.0	0.0						495.1259794000071	501.5654692000244	501.5654692000244	6.0	['6', 'return']	[4.386598899960518, 4.978960900101811]	6.43	6.11	1.0	40hz	high_pain	41.4			sub-043	250	43	40.3	41.4	COM11	COM15	COM3	2024-06-26_10h58.42.758	001-EEG_SVR_Officel	2022.2.5	144.05672391237135		11.937999999999988	0_sub-pilot043_SVR_EEG_block1-2.protocol.csv	step29	4814	478.661	STIMULATE	41.2	41.2	41.2	41.2	41.3	29	463.13100000000003
450.414	0	225207	40hz	9	0	0	0	0	13.0	0.0	13.0	0.0						495.1259794000071	501.5654692000244	501.5654692000244	6.0	['6', 'return']	[4.386598899960518, 4.978960900101811]	6.43	6.11	1.0	40hz	high_pain	41.4			sub-043	250	43	40.3	41.4	COM11	COM15	COM3	2024-06-26_10h58.42.758	001-EEG_SVR_Officel	2022.2.5	144.05672391237135		6.427999999999997	0_sub-pilot043_SVR_EEG_block1-2.protocol.csv	step29	4814	478.661	STIMULATE	41.2	41.2	41.2	41.2	41.3	29	463.13100000000003
457.274	0	228637	40/Hi	7	0	0	0	0	13.0	0.0	13.0	0.0						495.1259794000071	501.5654692000244	501.5654692000244	6.0	['6', 'return']	[4.386598899960518, 4.978960900101811]	6.43	6.11	1.0	40hz	high_pain	41.4			sub-043	250	43	40.3	41.4	COM11	COM15	COM3	2024-06-26_10h58.42.758	001-EEG_SVR_Officel	2022.2.5	144.05672391237135		6.110000000000014	0_sub-pilot043_SVR_EEG_block1-2.protocol.csv	step29	4814	478.661	STIMULATE	41.2	41.2	41.2	41.2	41.3	29	463.13100000000003
468.422	0	234211	wait	20	0	0	0	0	14.0	0.0	14.0	0.0						519.5607175999321	527.4923598000314	527.4923598000314	6.5	['6', 'a', '5', 'return']	[3.1087581999599934, 3.3417169000022113, 3.5732726000715047, 4.53265059995465]	7.92	5.39	2.0	controle	high_pain	41.4			sub-043	250	43	40.3	41.4	COM11	COM15	COM3	2024-06-26_10h58.42.758	001-EEG_SVR_Officel	2022.2.5	144.05672391237135		11.898000000000025	0_sub-pilot043_SVR_EEG_block1-2.protocol.csv	step31	5069	503.941	STIMULATE	41.3	41.2	41.2	41.2	41.2	31	488.411
476.342	0	238171	CNhz	12	0	0	0	0	14.0	0.0	14.0	0.0						519.5607175999321	527.4923598000314	527.4923598000314	6.5	['6', 'a', '5', 'return']	[3.1087581999599934, 3.3417169000022113, 3.5732726000715047, 4.53265059995465]	7.92	5.39	2.0	controle	high_pain	41.4			sub-043	250	43	40.3	41.4	COM11	COM15	COM3	2024-06-26_10h58.42.758	001-EEG_SVR_Officel	2022.2.5	144.05672391237135		7.919999999999959	0_sub-pilot043_SVR_EEG_block1-2.protocol.csv	step31	5069	503.941	STIMULATE	41.3	41.2	41.2	41.2	41.2	31	488.411
482.484	0	241242	CN/Hi	10	0	0	0	0	14.0	0.0	14.0	0.0						519.5607175999321	527.4923598000314	527.4923598000314	6.5	['6', 'a', '5', 'return']	[3.1087581999599934, 3.3417169000022113, 3.5732726000715047, 4.53265059995465]	7.92	5.39	2.0	controle	high_pain	41.4			sub-043	250	43	40.3	41.4	COM11	COM15	COM3	2024-06-26_10h58.42.758	001-EEG_SVR_Officel	2022.2.5	144.05672391237135		5.391999999999996	0_sub-pilot043_SVR_EEG_block1-2.protocol.csv	step31	5069	503.941	STIMULATE	41.3	41.2	41.2	41.2	41.2	31	488.411
493.91	0	246955	wait	20	0	0	0	0	15.0	0.0	15.0	0.0						545.0490492999088	551.8763583998661	551.8763583998661	6.2	['6', 'a', '2', 'return']	[3.9624411000404507, 4.195563500048593, 4.556262099882588, 5.226636500097811]	6.82	5.6	3.0	10hz	low_pain	40.3			sub-043	250	43	40.3	41.4	COM11	COM15	COM3	2024-06-26_10h58.42.758	001-EEG_SVR_Officel	2022.2.5	144.05672391237135		12.176000000000045	0_sub-pilot043_SVR_EEG_block1-2.protocol.csv	step33	5316	528.458	STIMULATE	40.1	40.1	40.1	40.1	40.1	33	512.9279999999999
500.724	0	250362	10hz	3	0	0	0	0	15.0	0.0	15.0	0.0						545.0490492999088	551.8763583998661	551.8763583998661	6.2	['6', 'a', '2', 'return']	[3.9624411000404507, 4.195563500048593, 4.556262099882588, 5.226636500097811]	6.82	5.6	3.0	10hz	low_pain	40.3			sub-043	250	43	40.3	41.4	COM11	COM15	COM3	2024-06-26_10h58.42.758	001-EEG_SVR_Officel	2022.2.5	144.05672391237135		6.8139999999999645	0_sub-pilot043_SVR_EEG_block1-2.protocol.csv	step33	5316	528.458	STIMULATE	40.1	40.1	40.1	40.1	40.1	33	512.9279999999999
507.078	0	253539	10/Lo	2	0	0	0	0	15.0	0.0	15.0	0.0						545.0490492999088	551.8763583998661	551.8763583998661	6.2	['6', 'a', '2', 'return']	[3.9624411000404507, 4.195563500048593, 4.556262099882588, 5.226636500097811]	6.82	5.6	3.0	10hz	low_pain	40.3			sub-043	250	43	40.3	41.4	COM11	COM15	COM3	2024-06-26_10h58.42.758	001-EEG_SVR_Officel	2022.2.5	144.05672391237135		5.603999999999985	0_sub-pilot043_SVR_EEG_block1-2.protocol.csv	step33	5316	528.458	STIMULATE	40.1	40.1	40.1	40.1	40.1	33	512.9279999999999
580.344	0	290172	wait	20	1	0	1	0	0.0	0.0	0.0	0.0				p	1.684962699888274	631.4830797999166	637.8726739999838	637.8726739999838	8.0	['8', 'return']	[44.67148069990799, 45.59147379989736]	6.38	6.17	0.0	20hz	high_pain	41.4			sub-043	250	43	40.3	41.4	COM11	COM15	COM3	2024-06-26_10h58.42.758	001-EEG_SVR_Officel	2022.2.5	144.05672391237135		74.01600000000008	0_sub-pilot043_SVR_EEG_block1-2.protocol.csv	step35	6185	615.118	STIMULATE	41.2	41.2	41.2	41.2	41.4	35	599.5550000000001
586.72	0	293360	20hz	6	1	0	1	0	0.0	0.0	0.0	0.0				p	1.684962699888274	631.4830797999166	637.8726739999838	637.8726739999838	8.0	['8', 'return']	[44.67148069990799, 45.59147379989736]	6.38	6.17	0.0	20hz	high_pain	41.4			sub-043	250	43	40.3	41.4	COM11	COM15	COM3	2024-06-26_10h58.42.758	001-EEG_SVR_Officel	2022.2.5	144.05672391237135		6.375999999999976	0_sub-pilot043_SVR_EEG_block1-2.protocol.csv	step35	6185	615.118	STIMULATE	41.2	41.2	41.2	41.2	41.4	35	599.5550000000001
593.642	0	296821	20/Hi	4	1	0	1	0	0.0	0.0	0.0	0.0				p	1.684962699888274	631.4830797999166	637.8726739999838	637.8726739999838	8.0	['8', 'return']	[44.67148069990799, 45.59147379989736]	6.38	6.17	0.0	20hz	high_pain	41.4			sub-043	250	43	40.3	41.4	COM11	COM15	COM3	2024-06-26_10h58.42.758	001-EEG_SVR_Officel	2022.2.5	144.05672391237135		6.1720000000000255	0_sub-pilot043_SVR_EEG_block1-2.protocol.csv	step35	6185	615.118	STIMULATE	41.2	41.2	41.2	41.2	41.4	35	599.5550000000001
645.344	0	322672	wait	20	1	0	1	0	1.0	0.0	1.0	0.0						696.4838014999405	704.332089799922	704.332089799922	5.3	['5', 'a', '3', 'return']	[2.8754956999327987, 3.315855599939823, 4.059941099956632, 4.779224399942905]	7.84	5.88	1.0	10hz	low_pain	40.3			sub-043	250	43	40.3	41.4	COM11	COM15	COM3	2024-06-26_10h58.42.758	001-EEG_SVR_Officel	2022.2.5	144.05672391237135		52.452	0_sub-pilot043_SVR_EEG_block1-2.protocol.csv	step37	6848	681.217	STIMULATE	40.1	40.1	40.1	40.1	40.1	37	665.654
653.18	0	326590	10hz	3	1	0	1	0	1.0	0.0	1.0	0.0						696.4838014999405	704.332089799922	704.332089799922	5.3	['5', 'a', '3', 'return']	[2.8754956999327987, 3.315855599939823, 4.059941099956632, 4.779224399942905]	7.84	5.88	1.0	10hz	low_pain	40.3			sub-043	250	43	40.3	41.4	COM11	COM15	COM3	2024-06-26_10h58.42.758	001-EEG_SVR_Officel	2022.2.5	144.05672391237135		7.835999999999899	0_sub-pilot043_SVR_EEG_block1-2.protocol.csv	step37	6848	681.217	STIMULATE	40.1	40.1	40.1	40.1	40.1	37	665.654
659.81	0	329905	10/Lo	2	1	0	1	0	1.0	0.0	1.0	0.0						696.4838014999405	704.332089799922	704.332089799922	5.3	['5', 'a', '3', 'return']	[2.8754956999327987, 3.315855599939823, 4.059941099956632, 4.779224399942905]	7.84	5.88	1.0	10hz	low_pain	40.3			sub-043	250	43	40.3	41.4	COM11	COM15	COM3	2024-06-26_10h58.42.758	001-EEG_SVR_Officel	2022.2.5	144.05672391237135		5.8799999999999955	0_sub-pilot043_SVR_EEG_block1-2.protocol.csv	step37	6848	681.217	STIMULATE	40.1	40.1	40.1	40.1	40.1	37	665.654
670.984	0	335492	wait	20	1	0	1	0	2.0	0.0	2.0	0.0						722.1257096999325	729.9183992999606	729.9183992999606	6.5	['6', 'a', '5', 'return']	[3.057071799878031, 3.3130424998234957, 3.4970593999605626, 4.057495599845424]	7.78	6.34	2.0	10hz	low_pain	40.3			sub-043	250	43	40.3	41.4	COM11	COM15	COM3	2024-06-26_10h58.42.758	001-EEG_SVR_Officel	2022.2.5	144.05672391237135		11.924000000000092	0_sub-pilot043_SVR_EEG_block1-2.protocol.csv	step39	7110	707.268	STIMULATE	40.1	40.1	40.1	40.1	40.1	39	691.705
678.766	0	339383	10hz	3	1	0	1	0	2.0	0.0	2.0	0.0						722.1257096999325	729.9183992999606	729.9183992999606	6.5	['6', 'a', '5', 'return']	[3.057071799878031, 3.3130424998234957, 3.4970593999605626, 4.057495599845424]	7.78	6.34	2.0	10hz	low_pain	40.3			sub-043	250	43	40.3	41.4	COM11	COM15	COM3	2024-06-26_10h58.42.758	001-EEG_SVR_Officel	2022.2.5	144.05672391237135		7.781999999999925	0_sub-pilot043_SVR_EEG_block1-2.protocol.csv	step39	7110	707.268	STIMULATE	40.1	40.1	40.1	40.1	40.1	39	691.705
685.854	0	342927	10/Lo	2	1	0	1	0	2.0	0.0	2.0	0.0						722.1257096999325	729.9183992999606	729.9183992999606	6.5	['6', 'a', '5', 'return']	[3.057071799878031, 3.3130424998234957, 3.4970593999605626, 4.057495599845424]	7.78	6.34	2.0	10hz	low_pain	40.3			sub-043	250	43	40.3	41.4	COM11	COM15	COM3	2024-06-26_10h58.42.758	001-EEG_SVR_Officel	2022.2.5	144.05672391237135		6.338000000000079	0_sub-pilot043_SVR_EEG_block1-2.protocol.csv	step39	7110	707.268	STIMULATE	40.1	40.1	40.1	40.1	40.1	39	691.705
695.864	0	347932	wait	20	1	0	1	0	3.0	0.0	3.0	0.0						747.0041541999672	754.2765649999492	754.2765649999492	8.2	['8', 'a', '2', 'return']	[3.4346347998362035, 3.7785032999236137, 4.21855829982087, 4.906745899934322]	7.26	5.18	3.0	40hz	high_pain	41.4			sub-043	250	43	40.3	41.4	COM11	COM15	COM3	2024-06-26_10h58.42.758	001-EEG_SVR_Officel	2022.2.5	144.05672391237135		10.759999999999991	0_sub-pilot043_SVR_EEG_block1-2.protocol.csv	step41	7344	730.483	STIMULATE	41.2	41.2	41.2	41.2	41.2	41	714.92
703.122	0	351561	40hz	9	1	0	1	0	3.0	0.0	3.0	0.0						747.0041541999672	754.2765649999492	754.2765649999492	8.2	['8', 'a', '2', 'return']	[3.4346347998362035, 3.7785032999236137, 4.21855829982087, 4.906745899934322]	7.26	5.18	3.0	40hz	high_pain	41.4			sub-043	250	43	40.3	41.4	COM11	COM15	COM3	2024-06-26_10h58.42.758	001-EEG_SVR_Officel	2022.2.5	144.05672391237135		7.2579999999999245	0_sub-pilot043_SVR_EEG_block1-2.protocol.csv	step41	7344	730.483	STIMULATE	41.2	41.2	41.2	41.2	41.2	41	714.92
709.052	0	354526	40/Hi	7	1	0	1	0	3.0	0.0	3.0	0.0						747.0041541999672	754.2765649999492	754.2765649999492	8.2	['8', 'a', '2', 'return']	[3.4346347998362035, 3.7785032999236137, 4.21855829982087, 4.906745899934322]	7.26	5.18	3.0	40hz	high_pain	41.4			sub-043	250	43	40.3	41.4	COM11	COM15	COM3	2024-06-26_10h58.42.758	001-EEG_SVR_Officel	2022.2.5	144.05672391237135		5.180000000000064	0_sub-pilot043_SVR_EEG_block1-2.protocol.csv	step41	7344	730.483	STIMULATE	41.2	41.2	41.2	41.2	41.2	41	714.92
721.06	0	360530	wait	20	1	0	1	0	4.0	0.0	4.0	0.0						772.201274999883	777.2295420998707	777.2295420998707	7.0	['7', 'return']	[3.1300554000772536, 3.6975152001250535]	5.02	6.2	0.0	20hz	low_pain	40.3			sub-043	250	43	40.3	41.4	COM11	COM15	COM3	2024-06-26_10h58.42.758	001-EEG_SVR_Officel	2022.2.5	144.05672391237135		12.757999999999925	0_sub-pilot043_SVR_EEG_block1-2.protocol.csv	step43	7586	754.412	STIMULATE	40.2	40.1	40.1	40.1	40.1	43	738.849
726.076	0	363038	20hz	6	1	0	1	0	4.0	0.0	4.0	0.0						772.201274999883	777.2295420998707	777.2295420998707	7.0	['7', 'return']	[3.1300554000772536, 3.6975152001250535]	5.02	6.2	0.0	20hz	low_pain	40.3			sub-043	250	43	40.3	41.4	COM11	COM15	COM3	2024-06-26_10h58.42.758	001-EEG_SVR_Officel	2022.2.5	144.05672391237135		5.016000000000076	0_sub-pilot043_SVR_EEG_block1-2.protocol.csv	step43	7586	754.412	STIMULATE	40.2	40.1	40.1	40.1	40.1	43	738.849
733.026	0	366513	20/Lo	5	1	0	1	0	4.0	0.0	4.0	0.0						772.201274999883	777.2295420998707	777.2295420998707	7.0	['7', 'return']	[3.1300554000772536, 3.6975152001250535]	5.02	6.2	0.0	20hz	low_pain	40.3			sub-043	250	43	40.3	41.4	COM11	COM15	COM3	2024-06-26_10h58.42.758	001-EEG_SVR_Officel	2022.2.5	144.05672391237135		6.199999999999932	0_sub-pilot043_SVR_EEG_block1-2.protocol.csv	step43	7586	754.412	STIMULATE	40.2	40.1	40.1	40.1	40.1	43	738.849
742.806	0	371403	wait	20	1	0	1	0	5.0	0.0	5.0	0.0						793.947036099853	800.5240102000535	800.5240102000535	8.5	['8', 'a', '5', 'return']	[3.2757572000846267, 3.7719701998867095, 4.027332999976352, 4.731890300055966]	6.57	5.51	1.0	controle	high_pain	41.4			sub-043	250	43	40.3	41.4	COM11	COM15	COM3	2024-06-26_10h58.42.758	001-EEG_SVR_Officel	2022.2.5	144.05672391237135		10.530000000000086	0_sub-pilot043_SVR_EEG_block1-2.protocol.csv	step45	7814	777.13	STIMULATE	41.2	41.2	41.2	41.2	41.2	45	761.567
749.37	0	374685	CNhz	12	1	0	1	0	5.0	0.0	5.0	0.0						793.947036099853	800.5240102000535	800.5240102000535	8.5	['8', 'a', '5', 'return']	[3.2757572000846267, 3.7719701998867095, 4.027332999976352, 4.731890300055966]	6.57	5.51	1.0	controle	high_pain	41.4			sub-043	250	43	40.3	41.4	COM11	COM15	COM3	2024-06-26_10h58.42.758	001-EEG_SVR_Officel	2022.2.5	144.05672391237135		6.5639999999999645	0_sub-pilot043_SVR_EEG_block1-2.protocol.csv	step45	7814	777.13	STIMULATE	41.2	41.2	41.2	41.2	41.2	45	761.567
755.632	0	377816	CN/Hi	10	1	0	1	0	5.0	0.0	5.0	0.0						793.947036099853	800.5240102000535	800.5240102000535	8.5	['8', 'a', '5', 'return']	[3.2757572000846267, 3.7719701998867095, 4.027332999976352, 4.731890300055966]	6.57	5.51	1.0	controle	high_pain	41.4			sub-043	250	43	40.3	41.4	COM11	COM15	COM3	2024-06-26_10h58.42.758	001-EEG_SVR_Officel	2022.2.5	144.05672391237135		5.511999999999944	0_sub-pilot043_SVR_EEG_block1-2.protocol.csv	step45	7814	777.13	STIMULATE	41.2	41.2	41.2	41.2	41.2	45	761.567
767.136	0	383568	wait	20	1	0	1	0	6.0	0.0	6.0	0.0						818.2761685999576	823.533685100032	823.533685100032	8.0	['8', 'return']	[2.736756900092587, 3.4172471000347286]	5.25	6.22	2.0	10hz	high_pain	41.4			sub-043	250	43	40.3	41.4	COM11	COM15	COM3	2024-06-26_10h58.42.758	001-EEG_SVR_Officel	2022.2.5	144.05672391237135		12.254000000000019	0_sub-pilot043_SVR_EEG_block1-2.protocol.csv	step47	8051	800.807	STIMULATE	41.2	41.2	41.2	41.2	41.2	47	785.244
772.382	0	386191	10hz	3	1	0	1	0	6.0	0.0	6.0	0.0						818.2761685999576	823.533685100032	823.533685100032	8.0	['8', 'return']	[2.736756900092587, 3.4172471000347286]	5.25	6.22	2.0	10hz	high_pain	41.4			sub-043	250	43	40.3	41.4	COM11	COM15	COM3	2024-06-26_10h58.42.758	001-EEG_SVR_Officel	2022.2.5	144.05672391237135		5.245999999999981	0_sub-pilot043_SVR_EEG_block1-2.protocol.csv	step47	8051	800.807	STIMULATE	41.2	41.2	41.2	41.2	41.2	47	785.244
779.35	0	389675	10/Hi	1	1	0	1	0	6.0	0.0	6.0	0.0						818.2761685999576	823.533685100032	823.533685100032	8.0	['8', 'return']	[2.736756900092587, 3.4172471000347286]	5.25	6.22	2.0	10hz	high_pain	41.4			sub-043	250	43	40.3	41.4	COM11	COM15	COM3	2024-06-26_10h58.42.758	001-EEG_SVR_Officel	2022.2.5	144.05672391237135		6.218000000000075	0_sub-pilot043_SVR_EEG_block1-2.protocol.csv	step47	8051	800.807	STIMULATE	41.2	41.2	41.2	41.2	41.2	47	785.244
788.832	0	394416	wait	20	1	0	1	0	7.0	0.0	7.0	0.0						839.9734906998929	847.6549287999514	847.6549287999514	7.5	['7', 'a', '5', 'return']	[2.978097900049761, 3.3774529001675546, 3.6329865001607686, 4.258548100013286]	7.67	6.17	3.0	controle	high_pain	41.4			sub-043	250	43	40.3	41.4	COM11	COM15	COM3	2024-06-26_10h58.42.758	001-EEG_SVR_Officel	2022.2.5	144.05672391237135		10.231999999999971	0_sub-pilot043_SVR_EEG_block1-2.protocol.csv	step49	8287	824.877	STIMULATE	41.2	41.2	41.2	41.2	41.2	49	809.314
796.502	0	398251	CNhz	12	1	0	1	0	7.0	0.0	7.0	0.0						839.9734906998929	847.6549287999514	847.6549287999514	7.5	['7', 'a', '5', 'return']	[2.978097900049761, 3.3774529001675546, 3.6329865001607686, 4.258548100013286]	7.67	6.17	3.0	controle	high_pain	41.4			sub-043	250	43	40.3	41.4	COM11	COM15	COM3	2024-06-26_10h58.42.758	001-EEG_SVR_Officel	2022.2.5	144.05672391237135		7.669999999999959	0_sub-pilot043_SVR_EEG_block1-2.protocol.csv	step49	8287	824.877	STIMULATE	41.2	41.2	41.2	41.2	41.2	49	809.314
803.424	0	401712	CN/Hi	10	1	0	1	0	7.0	0.0	7.0	0.0						839.9734906998929	847.6549287999514	847.6549287999514	7.5	['7', 'a', '5', 'return']	[2.978097900049761, 3.3774529001675546, 3.6329865001607686, 4.258548100013286]	7.67	6.17	3.0	controle	high_pain	41.4			sub-043	250	43	40.3	41.4	COM11	COM15	COM3	2024-06-26_10h58.42.758	001-EEG_SVR_Officel	2022.2.5	144.05672391237135		6.1720000000000255	0_sub-pilot043_SVR_EEG_block1-2.protocol.csv	step49	8287	824.877	STIMULATE	41.2	41.2	41.2	41.2	41.2	49	809.314
813.794	0	406897	wait	20	1	0	1	0	8.0	0.0	8.0	0.0						864.9345394999254	870.1782656998839	870.1782656998839	5.5	['5', 'a', '5', 'return']	[3.855755800148472, 4.1988628001417965, 4.614628900075331, 5.5746933000627905]	5.24	5.42	0.0	10hz	low_pain	40.3			sub-043	250	43	40.3	41.4	COM11	COM15	COM3	2024-06-26_10h58.42.758	001-EEG_SVR_Officel	2022.2.5	144.05672391237135		11.120000000000005	0_sub-pilot043_SVR_EEG_block1-2.protocol.csv	step51	8497	846.638	STIMULATE	40.1	40.1	40.1	40.1	40.1	51	831.075
819.026	0	409513	10hz	3	1	0	1	0	8.0	0.0	8.0	0.0						864.9345394999254	870.1782656998839	870.1782656998839	5.5	['5', 'a', '5', 'return']	[3.855755800148472, 4.1988628001417965, 4.614628900075331, 5.5746933000627905]	5.24	5.42	0.0	10hz	low_pain	40.3			sub-043	250	43	40.3	41.4	COM11	COM15	COM3	2024-06-26_10h58.42.758	001-EEG_SVR_Officel	2022.2.5	144.05672391237135		5.231999999999971	0_sub-pilot043_SVR_EEG_block1-2.protocol.csv	step51	8497	846.638	STIMULATE	40.1	40.1	40.1	40.1	40.1	51	831.075
825.196	0	412598	10/Lo	2	1	0	1	0	8.0	0.0	8.0	0.0						864.9345394999254	870.1782656998839	870.1782656998839	5.5	['5', 'a', '5', 'return']	[3.855755800148472, 4.1988628001417965, 4.614628900075331, 5.5746933000627905]	5.24	5.42	0.0	10hz	low_pain	40.3			sub-043	250	43	40.3	41.4	COM11	COM15	COM3	2024-06-26_10h58.42.758	001-EEG_SVR_Officel	2022.2.5	144.05672391237135		5.420000000000073	0_sub-pilot043_SVR_EEG_block1-2.protocol.csv	step51	8497	846.638	STIMULATE	40.1	40.1	40.1	40.1	40.1	51	831.075
837.636	0	418818	wait	20	1	0	1	0	9.0	0.0	9.0	0.0						888.7776261998806	896.3479458999354	896.3479458999354	6.8	['6', 'a', '8', 'return']	[3.9725883998908103, 4.739868799922988, 5.996759099885821, 6.643217500066385]	7.56	5.95	1.0	40hz	low_pain	40.3			sub-043	250	43	40.3	41.4	COM11	COM15	COM3	2024-06-26_10h58.42.758	001-EEG_SVR_Officel	2022.2.5	144.05672391237135		13.18999999999994	0_sub-pilot043_SVR_EEG_block1-2.protocol.csv	step53	8752	873.33	STIMULATE	40.1	40.1	40.1	40.1	40.1	53	857.767
845.194	0	422597	40hz	9	1	0	1	0	9.0	0.0	9.0	0.0						888.7776261998806	896.3479458999354	896.3479458999354	6.8	['6', 'a', '8', 'return']	[3.9725883998908103, 4.739868799922988, 5.996759099885821, 6.643217500066385]	7.56	5.95	1.0	40hz	low_pain	40.3			sub-043	250	43	40.3	41.4	COM11	COM15	COM3	2024-06-26_10h58.42.758	001-EEG_SVR_Officel	2022.2.5	144.05672391237135		7.557999999999993	0_sub-pilot043_SVR_EEG_block1-2.protocol.csv	step53	8752	873.33	STIMULATE	40.1	40.1	40.1	40.1	40.1	53	857.767
851.894	0	425947	40/Lo	8	1	0	1	0	9.0	0.0	9.0	0.0						888.7776261998806	896.3479458999354	896.3479458999354	6.8	['6', 'a', '8', 'return']	[3.9725883998908103, 4.739868799922988, 5.996759099885821, 6.643217500066385]	7.56	5.95	1.0	40hz	low_pain	40.3			sub-043	250	43	40.3	41.4	COM11	COM15	COM3	2024-06-26_10h58.42.758	001-EEG_SVR_Officel	2022.2.5	144.05672391237135		5.9500000000000455	0_sub-pilot043_SVR_EEG_block1-2.protocol.csv	step53	8752	873.33	STIMULATE	40.1	40.1	40.1	40.1	40.1	53	857.767
864.862	0	432431	wait	20	1	0	1	0	10.0	0.0	10.0	0.0						916.0026704999618	923.3650638000108	923.3650638000108	7.2	['7', 'a', '2', 'return']	[2.9782852998469025, 3.339010699884966, 3.6581686998251826, 4.306519999867305]	7.35	5.27	2.0	controle	low_pain	40.3			sub-043	250	43	40.3	41.4	COM11	COM15	COM3	2024-06-26_10h58.42.758	001-EEG_SVR_Officel	2022.2.5	144.05672391237135		13.717999999999961	0_sub-pilot043_SVR_EEG_block1-2.protocol.csv	step55	9002	899.689	STIMULATE	40.1	40.1	40.1	40.1	40.1	55	884.126
872.212	0	436106	CNhz	12	1	0	1	0	10.0	0.0	10.0	0.0						916.0026704999618	923.3650638000108	923.3650638000108	7.2	['7', 'a', '2', 'return']	[2.9782852998469025, 3.339010699884966, 3.6581686998251826, 4.306519999867305]	7.35	5.27	2.0	controle	low_pain	40.3			sub-043	250	43	40.3	41.4	COM11	COM15	COM3	2024-06-26_10h58.42.758	001-EEG_SVR_Officel	2022.2.5	144.05672391237135		7.350000000000023	0_sub-pilot043_SVR_EEG_block1-2.protocol.csv	step55	9002	899.689	STIMULATE	40.1	40.1	40.1	40.1	40.1	55	884.126
878.23	0	439115	CN/Lo	11	1	0	1	0	10.0	0.0	10.0	0.0						916.0026704999618	923.3650638000108	923.3650638000108	7.2	['7', 'a', '2', 'return']	[2.9782852998469025, 3.339010699884966, 3.6581686998251826, 4.306519999867305]	7.35	5.27	2.0	controle	low_pain	40.3			sub-043	250	43	40.3	41.4	COM11	COM15	COM3	2024-06-26_10h58.42.758	001-EEG_SVR_Officel	2022.2.5	144.05672391237135		5.268000000000029	0_sub-pilot043_SVR_EEG_block1-2.protocol.csv	step55	9002	899.689	STIMULATE	40.1	40.1	40.1	40.1	40.1	55	884.126
889.552	0	444776	wait	20	1	0	1	0	11.0	0.0	11.0	0.0						940.6935407998972	947.611000200035	947.611000200035	8.2	['8', 'a', '2', 'return']	[3.1814222000539303, 3.5322470001410693, 3.9177266000770032, 4.588172300020233]	6.91	6.23	3.0	10hz	high_pain	41.4			sub-043	250	43	40.3	41.4	COM11	COM15	COM3	2024-06-26_10h58.42.758	001-EEG_SVR_Officel	2022.2.5	144.05672391237135		12.072000000000003	0_sub-pilot043_SVR_EEG_block1-2.protocol.csv	step57	9238	924.891	STIMULATE	41.2	41.2	41.2	41.2	41.2	57	909.328
896.456	0	448228	10hz	3	1	0	1	0	11.0	0.0	11.0	0.0						940.6935407998972	947.611000200035	947.611000200035	8.2	['8', 'a', '2', 'return']	[3.1814222000539303, 3.5322470001410693, 3.9177266000770032, 4.588172300020233]	6.91	6.23	3.0	10hz	high_pain	41.4			sub-043	250	43	40.3	41.4	COM11	COM15	COM3	2024-06-26_10h58.42.758	001-EEG_SVR_Officel	2022.2.5	144.05672391237135		6.903999999999996	0_sub-pilot043_SVR_EEG_block1-2.protocol.csv	step57	9238	924.891	STIMULATE	41.2	41.2	41.2	41.2	41.2	57	909.328
903.442	0	451721	10/Hi	1	1	0	1	0	11.0	0.0	11.0	0.0						940.6935407998972	947.611000200035	947.611000200035	8.2	['8', 'a', '2', 'return']	[3.1814222000539303, 3.5322470001410693, 3.9177266000770032, 4.588172300020233]	6.91	6.23	3.0	10hz	high_pain	41.4			sub-043	250	43	40.3	41.4	COM11	COM15	COM3	2024-06-26_10h58.42.758	001-EEG_SVR_Officel	2022.2.5	144.05672391237135		6.23599999999999	0_sub-pilot043_SVR_EEG_block1-2.protocol.csv	step57	9238	924.891	STIMULATE	41.2	41.2	41.2	41.2	41.2	57	909.328
914.068	0	457034	wait	20	1	0	1	0	12.0	0.0	12.0	0.0						965.2103319999296	972.7044639999511	972.7044639999511	6.7	['6', 'a', '7', 'return']	[4.048162600025535, 4.272131300065666, 4.58354050014168, 5.216999700060114]	7.49	5.03	0.0	40hz	high_pain	41.4			sub-043	250	43	40.3	41.4	COM11	COM15	COM3	2024-06-26_10h58.42.758	001-EEG_SVR_Officel	2022.2.5	144.05672391237135		11.375999999999976	0_sub-pilot043_SVR_EEG_block1-2.protocol.csv	step59	9460	948.802	STIMULATE	41.2	41.2	41.2	41.2	41.3	59	933.239
921.552	0	460776	40hz	9	1	0	1	0	12.0	0.0	12.0	0.0						965.2103319999296	972.7044639999511	972.7044639999511	6.7	['6', 'a', '7', 'return']	[4.048162600025535, 4.272131300065666, 4.58354050014168, 5.216999700060114]	7.49	5.03	0.0	40hz	high_pain	41.4			sub-043	250	43	40.3	41.4	COM11	COM15	COM3	2024-06-26_10h58.42.758	001-EEG_SVR_Officel	2022.2.5	144.05672391237135		7.484000000000037	0_sub-pilot043_SVR_EEG_block1-2.protocol.csv	step59	9460	948.802	STIMULATE	41.2	41.2	41.2	41.2	41.3	59	933.239
927.334	0	463667	40/Hi	7	1	0	1	0	12.0	0.0	12.0	0.0						965.2103319999296	972.7044639999511	972.7044639999511	6.7	['6', 'a', '7', 'return']	[4.048162600025535, 4.272131300065666, 4.58354050014168, 5.216999700060114]	7.49	5.03	0.0	40hz	high_pain	41.4			sub-043	250	43	40.3	41.4	COM11	COM15	COM3	2024-06-26_10h58.42.758	001-EEG_SVR_Officel	2022.2.5	144.05672391237135		5.031999999999925	0_sub-pilot043_SVR_EEG_block1-2.protocol.csv	step59	9460	948.802	STIMULATE	41.2	41.2	41.2	41.2	41.3	59	933.239
939.808	0	469904	wait	20	1	0	1	0	13.0	0.0	13.0	0.0						990.9498713999056	997.0197326999624	997.0197326999624	7.5	['7', 'a', '5', 'return']	[3.402829899918288, 3.9547405000776052, 4.594773400109261, 5.564160699956119]	6.06	6.12	1.0	controle	low_pain	40.3			sub-043	250	43	40.3	41.4	COM11	COM15	COM3	2024-06-26_10h58.42.758	001-EEG_SVR_Officel	2022.2.5	144.05672391237135		13.224000000000046	0_sub-pilot043_SVR_EEG_block1-2.protocol.csv	step61	9694	974.248	STIMULATE	40.1	40.1	40.1	40.1	40.1	61	958.6850000000001
945.866	0	472933	CNhz	12	1	0	1	0	13.0	0.0	13.0	0.0						990.9498713999056	997.0197326999624	997.0197326999624	7.5	['7', 'a', '5', 'return']	[3.402829899918288, 3.9547405000776052, 4.594773400109261, 5.564160699956119]	6.06	6.12	1.0	controle	low_pain	40.3			sub-043	250	43	40.3	41.4	COM11	COM15	COM3	2024-06-26_10h58.42.758	001-EEG_SVR_Officel	2022.2.5	144.05672391237135		6.057999999999993	0_sub-pilot043_SVR_EEG_block1-2.protocol.csv	step61	9694	974.248	STIMULATE	40.1	40.1	40.1	40.1	40.1	61	958.6850000000001
952.74	0	476370	CN/Lo	11	1	0	1	0	13.0	0.0	13.0	0.0						990.9498713999056	997.0197326999624	997.0197326999624	7.5	['7', 'a', '5', 'return']	[3.402829899918288, 3.9547405000776052, 4.594773400109261, 5.564160699956119]	6.06	6.12	1.0	controle	low_pain	40.3			sub-043	250	43	40.3	41.4	COM11	COM15	COM3	2024-06-26_10h58.42.758	001-EEG_SVR_Officel	2022.2.5	144.05672391237135		6.124000000000024	0_sub-pilot043_SVR_EEG_block1-2.protocol.csv	step61	9694	974.248	STIMULATE	40.1	40.1	40.1	40.1	40.1	61	958.6850000000001
964.462	0	482231	wait	20	1	0	1	0	14.0	0.0	14.0	0.0						1015.60539289983	1023.3423703999724	1023.3423703999724	7.5	['7', 'a', '5', 'return']	[3.897231000009924, 4.312892599962652, 4.609855499817058, 5.225685399957001]	7.73	5.94	2.0	40hz	low_pain	40.3			sub-043	250	43	40.3	41.4	COM11	COM15	COM3	2024-06-26_10h58.42.758	001-EEG_SVR_Officel	2022.2.5	144.05672391237135		12.47199999999998	0_sub-pilot043_SVR_EEG_block1-2.protocol.csv	step63	9932	1000.345	STIMULATE	40.1	40.1	40.1	40.1	40.1	63	984.782
972.188	0	486094	40hz	9	1	0	1	0	14.0	0.0	14.0	0.0						1015.60539289983	1023.3423703999724	1023.3423703999724	7.5	['7', 'a', '5', 'return']	[3.897231000009924, 4.312892599962652, 4.609855499817058, 5.225685399957001]	7.73	5.94	2.0	40hz	low_pain	40.3			sub-043	250	43	40.3	41.4	COM11	COM15	COM3	2024-06-26_10h58.42.758	001-EEG_SVR_Officel	2022.2.5	144.05672391237135		7.725999999999999	0_sub-pilot043_SVR_EEG_block1-2.protocol.csv	step63	9932	1000.345	STIMULATE	40.1	40.1	40.1	40.1	40.1	63	984.782
978.88	0	489440	40/Lo	8	1	0	1	0	14.0	0.0	14.0	0.0						1015.60539289983	1023.3423703999724	1023.3423703999724	7.5	['7', 'a', '5', 'return']	[3.897231000009924, 4.312892599962652, 4.609855499817058, 5.225685399957001]	7.73	5.94	2.0	40hz	low_pain	40.3			sub-043	250	43	40.3	41.4	COM11	COM15	COM3	2024-06-26_10h58.42.758	001-EEG_SVR_Officel	2022.2.5	144.05672391237135		5.942000000000007	0_sub-pilot043_SVR_EEG_block1-2.protocol.csv	step63	9932	1000.345	STIMULATE	40.1	40.1	40.1	40.1	40.1	63	984.782
990.438	0	495219	wait	20	1	0	1	0	15.0	0.0	15.0	0.0						1041.5805472999346	1047.5883434000425	1047.5883434000425	8.0	['8', 'return']	[3.2651998000219464, 3.7933018000330776]	6.0	5.06	3.0	20hz	high_pain	41.4			sub-043	250	43	40.3	41.4	COM11	COM15	COM3	2024-06-26_10h58.42.758	001-EEG_SVR_Officel	2022.2.5	144.05672391237135		12.307999999999993	0_sub-pilot043_SVR_EEG_block1-2.protocol.csv	step65	10143	1023.767	STIMULATE	41.2	41.2	41.2	41.2	41.2	65	1008.2040000000001
996.434	0	498217	20hz	6	1	0	1	0	15.0	0.0	15.0	0.0						1041.5805472999346	1047.5883434000425	1047.5883434000425	8.0	['8', 'return']	[3.2651998000219464, 3.7933018000330776]	6.0	5.06	3.0	20hz	high_pain	41.4			sub-043	250	43	40.3	41.4	COM11	COM15	COM3	2024-06-26_10h58.42.758	001-EEG_SVR_Officel	2022.2.5	144.05672391237135		5.995999999999981	0_sub-pilot043_SVR_EEG_block1-2.protocol.csv	step65	10143	1023.767	STIMULATE	41.2	41.2	41.2	41.2	41.2	65	1008.2040000000001
1002.244	0	501122	20/Hi	4	1	0	1	0	15.0	0.0	15.0	0.0						1041.5805472999346	1047.5883434000425	1047.5883434000425	8.0	['8', 'return']	[3.2651998000219464, 3.7933018000330776]	6.0	5.06	3.0	20hz	high_pain	41.4			sub-043	250	43	40.3	41.4	COM11	COM15	COM3	2024-06-26_10h58.42.758	001-EEG_SVR_Officel	2022.2.5	144.05672391237135		5.060000000000059	0_sub-pilot043_SVR_EEG_block1-2.protocol.csv	step65	10143	1023.767	STIMULATE	41.2	41.2	41.2	41.2	41.2	65	1008.2040000000001
1132.788	0	566394	wait	20	2	0	2	0	0.0	0.0	0.0	0.0				p	0.6497230001259595	1183.931013399968	1189.1399709999096	1189.1399709999096	6.5	['6', 'a', '5', 'return']	[2.7395646998193115, 2.9399947999045253, 3.188042299821973, 3.7711077998392284]	5.2	6.12	0.0	40hz	low_pain	40.3			sub-043	250	43	40.3	41.4	COM11	COM15	COM3	2024-06-26_10h58.42.758	001-EEG_SVR_Officel	2022.2.5	144.05672391237135		131.29399999999998	1_sub-pilot043_SVR_EEG_block3-4.protocol.csv	step3	1241	123.956	STIMULATE	40.1	40.1	40.1	40.1	40.1	3	1150.719
1137.984	0	568992	40hz	9	2	0	2	0	0.0	0.0	0.0	0.0				p	0.6497230001259595	1183.931013399968	1189.1399709999096	1189.1399709999096	6.5	['6', 'a', '5', 'return']	[2.7395646998193115, 2.9399947999045253, 3.188042299821973, 3.7711077998392284]	5.2	6.12	0.0	40hz	low_pain	40.3			sub-043	250	43	40.3	41.4	COM11	COM15	COM3	2024-06-26_10h58.42.758	001-EEG_SVR_Officel	2022.2.5	144.05672391237135		5.195999999999913	1_sub-pilot043_SVR_EEG_block3-4.protocol.csv	step3	1241	123.956	STIMULATE	40.1	40.1	40.1	40.1	40.1	3	1150.719
1144.858	0	572429	40/Lo	8	2	0	2	0	0.0	0.0	0.0	0.0				p	0.6497230001259595	1183.931013399968	1189.1399709999096	1189.1399709999096	6.5	['6', 'a', '5', 'return']	[2.7395646998193115, 2.9399947999045253, 3.188042299821973, 3.7711077998392284]	5.2	6.12	0.0	40hz	low_pain	40.3			sub-043	250	43	40.3	41.4	COM11	COM15	COM3	2024-06-26_10h58.42.758	001-EEG_SVR_Officel	2022.2.5	144.05672391237135		6.124000000000024	1_sub-pilot043_SVR_EEG_block3-4.protocol.csv	step3	1241	123.956	STIMULATE	40.1	40.1	40.1	40.1	40.1	3	1150.719
1154.782	0	577391	wait	20	2	0	2	0	1.0	0.0	1.0	0.0						1205.9265665998682	1213.1566937000025	1213.1566937000025	7.0	['7', 'return']	[2.723693899810314, 3.332096599973738]	7.22	5.75	1.0	controle	low_pain	40.3			sub-043	250	43	40.3	41.4	COM11	COM15	COM3	2024-06-26_10h58.42.758	001-EEG_SVR_Officel	2022.2.5	144.05672391237135		10.673999999999978	1_sub-pilot043_SVR_EEG_block3-4.protocol.csv	step5	1479	147.554	STIMULATE	40.1	40.1	40.1	40.1	40.1	5	1174.317
1162.002	0	581001	CNhz	12	2	0	2	0	1.0	0.0	1.0	0.0						1205.9265665998682	1213.1566937000025	1213.1566937000025	7.0	['7', 'return']	[2.723693899810314, 3.332096599973738]	7.22	5.75	1.0	controle	low_pain	40.3			sub-043	250	43	40.3	41.4	COM11	COM15	COM3	2024-06-26_10h58.42.758	001-EEG_SVR_Officel	2022.2.5	144.05672391237135		7.220000000000027	1_sub-pilot043_SVR_EEG_block3-4.protocol.csv	step5	1479	147.554	STIMULATE	40.1	40.1	40.1	40.1	40.1	5	1174.317
1168.5	0	584250	CN/Lo	11	2	0	2	0	1.0	0.0	1.0	0.0						1205.9265665998682	1213.1566937000025	1213.1566937000025	7.0	['7', 'return']	[2.723693899810314, 3.332096599973738]	7.22	5.75	1.0	controle	low_pain	40.3			sub-043	250	43	40.3	41.4	COM11	COM15	COM3	2024-06-26_10h58.42.758	001-EEG_SVR_Officel	2022.2.5	144.05672391237135		5.748000000000047	1_sub-pilot043_SVR_EEG_block3-4.protocol.csv	step5	1479	147.554	STIMULATE	40.1	40.1	40.1	40.1	40.1	5	1174.317
1178.364	0	589182	wait	20	2	0	2	0	2.0	0.0	2.0	0.0						1229.5064689000135	1234.958709599916	1234.958709599916	6.0	['6', 'return']	[3.2172393000219017, 3.8268834000919014]	5.44	6.19	2.0	controle	low_pain	40.3			sub-043	250	43	40.3	41.4	COM11	COM15	COM3	2024-06-26_10h58.42.758	001-EEG_SVR_Officel	2022.2.5	144.05672391237135		10.614000000000033	1_sub-pilot043_SVR_EEG_block3-4.protocol.csv	step7	1704	169.853	STIMULATE	40.1	40.1	40.1	40.1	40.1	7	1196.616
1183.806	0	591903	CNhz	12	2	0	2	0	2.0	0.0	2.0	0.0						1229.5064689000135	1234.958709599916	1234.958709599916	6.0	['6', 'return']	[3.2172393000219017, 3.8268834000919014]	5.44	6.19	2.0	controle	low_pain	40.3			sub-043	250	43	40.3	41.4	COM11	COM15	COM3	2024-06-26_10h58.42.758	001-EEG_SVR_Officel	2022.2.5	144.05672391237135		5.442000000000007	1_sub-pilot043_SVR_EEG_block3-4.protocol.csv	step7	1704	169.853	STIMULATE	40.1	40.1	40.1	40.1	40.1	7	1196.616
1190.748	0	595374	CN/Lo	11	2	0	2	0	2.0	0.0	2.0	0.0						1229.5064689000135	1234.958709599916	1234.958709599916	6.0	['6', 'return']	[3.2172393000219017, 3.8268834000919014]	5.44	6.19	2.0	controle	low_pain	40.3			sub-043	250	43	40.3	41.4	COM11	COM15	COM3	2024-06-26_10h58.42.758	001-EEG_SVR_Officel	2022.2.5	144.05672391237135		6.192000000000007	1_sub-pilot043_SVR_EEG_block3-4.protocol.csv	step7	1704	169.853	STIMULATE	40.1	40.1	40.1	40.1	40.1	7	1196.616
1200.67	0	600335	wait	20	2	0	2	0	3.0	0.0	3.0	0.0						1251.81417519995	1256.8701811998617	1256.8701811998617	7.8	['7', 'a', '8', 'return']	[2.665054300101474, 3.0574797000736, 3.377401700010523, 3.9299109000712633]	5.05	6.0	3.0	10hz	high_pain	41.4			sub-043	250	43	40.3	41.4	COM11	COM15	COM3	2024-06-26_10h58.42.758	001-EEG_SVR_Officel	2022.2.5	144.05672391237135		10.672000000000025	1_sub-pilot043_SVR_EEG_block3-4.protocol.csv	step9	1923	191.532	STIMULATE	41.2	41.2	41.2	41.2	41.2	9	1218.295
1205.716	0	602858	10hz	3	2	0	2	0	3.0	0.0	3.0	0.0						1251.81417519995	1256.8701811998617	1256.8701811998617	7.8	['7', 'a', '8', 'return']	[2.665054300101474, 3.0574797000736, 3.377401700010523, 3.9299109000712633]	5.05	6.0	3.0	10hz	high_pain	41.4			sub-043	250	43	40.3	41.4	COM11	COM15	COM3	2024-06-26_10h58.42.758	001-EEG_SVR_Officel	2022.2.5	144.05672391237135		5.045999999999822	1_sub-pilot043_SVR_EEG_block3-4.protocol.csv	step9	1923	191.532	STIMULATE	41.2	41.2	41.2	41.2	41.2	9	1218.295
1212.464	0	606232	10/Hi	1	2	0	2	0	3.0	0.0	3.0	0.0						1251.81417519995	1256.8701811998617	1256.8701811998617	7.8	['7', 'a', '8', 'return']	[2.665054300101474, 3.0574797000736, 3.377401700010523, 3.9299109000712633]	5.05	6.0	3.0	10hz	high_pain	41.4			sub-043	250	43	40.3	41.4	COM11	COM15	COM3	2024-06-26_10h58.42.758	001-EEG_SVR_Officel	2022.2.5	144.05672391237135		5.998000000000047	1_sub-pilot043_SVR_EEG_block3-4.protocol.csv	step9	1923	191.532	STIMULATE	41.2	41.2	41.2	41.2	41.2	9	1218.295
1222.666	0	611333	wait	20	2	0	2	0	4.0	0.0	4.0	0.0						1273.809629400028	1279.7619232998695	1279.7619232998695	7.2	['7', 'a', '2', 'return']	[3.6307076001539826, 3.8695922000333667, 4.22963700001128, 4.798331300029531]	5.94	5.47	0.0	20hz	high_pain	41.4			sub-043	250	43	40.3	41.4	COM11	COM15	COM3	2024-06-26_10h58.42.758	001-EEG_SVR_Officel	2022.2.5	144.05672391237135		10.951999999999998	1_sub-pilot043_SVR_EEG_block3-4.protocol.csv	step11	2148	213.807	STIMULATE	41.3	41.2	41.2	41.2	41.2	11	1240.57
1228.606	0	614303	20hz	6	2	0	2	0	4.0	0.0	4.0	0.0						1273.809629400028	1279.7619232998695	1279.7619232998695	7.2	['7', 'a', '2', 'return']	[3.6307076001539826, 3.8695922000333667, 4.22963700001128, 4.798331300029531]	5.94	5.47	0.0	20hz	high_pain	41.4			sub-043	250	43	40.3	41.4	COM11	COM15	COM3	2024-06-26_10h58.42.758	001-EEG_SVR_Officel	2022.2.5	144.05672391237135		5.940000000000055	1_sub-pilot043_SVR_EEG_block3-4.protocol.csv	step11	2148	213.807	STIMULATE	41.3	41.2	41.2	41.2	41.2	11	1240.57
1234.828	0	617414	20/Hi	4	2	0	2	0	4.0	0.0	4.0	0.0						1273.809629400028	1279.7619232998695	1279.7619232998695	7.2	['7', 'a', '2', 'return']	[3.6307076001539826, 3.8695922000333667, 4.22963700001128, 4.798331300029531]	5.94	5.47	0.0	20hz	high_pain	41.4			sub-043	250	43	40.3	41.4	COM11	COM15	COM3	2024-06-26_10h58.42.758	001-EEG_SVR_Officel	2022.2.5	144.05672391237135		5.47199999999998	1_sub-pilot043_SVR_EEG_block3-4.protocol.csv	step11	2148	213.807	STIMULATE	41.3	41.2	41.2	41.2	41.2	11	1240.57
1246.432	0	623216	wait	20	2	0	2	0	5.0	0.0	5.0	0.0						1297.5764523998369	1303.8341026999988	1303.8341026999988	8.0	['8', 'return']	[4.069836399983615, 4.6529806999024]	6.25	5.88	1.0	20hz	low_pain	40.3			sub-043	250	43	40.3	41.4	COM11	COM15	COM3	2024-06-26_10h58.42.758	001-EEG_SVR_Officel	2022.2.5	144.05672391237135		12.354000000000042	1_sub-pilot043_SVR_EEG_block3-4.protocol.csv	step13	2395	238.319	STIMULATE	40.1	40.1	40.1	40.1	40.1	13	1265.0819999999999
1252.678	0	626339	20hz	6	2	0	2	0	5.0	0.0	5.0	0.0						1297.5764523998369	1303.8341026999988	1303.8341026999988	8.0	['8', 'return']	[4.069836399983615, 4.6529806999024]	6.25	5.88	1.0	20hz	low_pain	40.3			sub-043	250	43	40.3	41.4	COM11	COM15	COM3	2024-06-26_10h58.42.758	001-EEG_SVR_Officel	2022.2.5	144.05672391237135		6.246000000000095	1_sub-pilot043_SVR_EEG_block3-4.protocol.csv	step13	2395	238.319	STIMULATE	40.1	40.1	40.1	40.1	40.1	13	1265.0819999999999
1259.31	0	629655	20/Lo	5	2	0	2	0	5.0	0.0	5.0	0.0						1297.5764523998369	1303.8341026999988	1303.8341026999988	8.0	['8', 'return']	[4.069836399983615, 4.6529806999024]	6.25	5.88	1.0	20hz	low_pain	40.3			sub-043	250	43	40.3	41.4	COM11	COM15	COM3	2024-06-26_10h58.42.758	001-EEG_SVR_Officel	2022.2.5	144.05672391237135		5.8819999999998345	1_sub-pilot043_SVR_EEG_block3-4.protocol.csv	step13	2395	238.319	STIMULATE	40.1	40.1	40.1	40.1	40.1	13	1265.0819999999999
1270.352	0	635176	wait	20	2	0	2	0	6.0	0.0	6.0	0.0						1321.495610699989	1328.9344492999371	1328.9344492999371	8.2	['8', 'a', '2', 'return']	[3.7830449000466615, 4.318948999978602, 4.680012400029227, 5.3901555999182165]	7.43	5.39	2.0	20hz	high_pain	41.4			sub-043	250	43	40.3	41.4	COM11	COM15	COM3	2024-06-26_10h58.42.758	001-EEG_SVR_Officel	2022.2.5	144.05672391237135		11.792000000000144	1_sub-pilot043_SVR_EEG_block3-4.protocol.csv	step15	2644	263.047	STIMULATE	41.3	41.2	41.2	41.2	41.2	15	1289.81
1277.778	0	638889	20hz	6	2	0	2	0	6.0	0.0	6.0	0.0						1321.495610699989	1328.9344492999371	1328.9344492999371	8.2	['8', 'a', '2', 'return']	[3.7830449000466615, 4.318948999978602, 4.680012400029227, 5.3901555999182165]	7.43	5.39	2.0	20hz	high_pain	41.4			sub-043	250	43	40.3	41.4	COM11	COM15	COM3	2024-06-26_10h58.42.758	001-EEG_SVR_Officel	2022.2.5	144.05672391237135		7.425999999999931	1_sub-pilot043_SVR_EEG_block3-4.protocol.csv	step15	2644	263.047	STIMULATE	41.3	41.2	41.2	41.2	41.2	15	1289.81
1283.924	0	641962	20/Hi	4	2	0	2	0	6.0	0.0	6.0	0.0						1321.495610699989	1328.9344492999371	1328.9344492999371	8.2	['8', 'a', '2', 'return']	[3.7830449000466615, 4.318948999978602, 4.680012400029227, 5.3901555999182165]	7.43	5.39	2.0	20hz	high_pain	41.4			sub-043	250	43	40.3	41.4	COM11	COM15	COM3	2024-06-26_10h58.42.758	001-EEG_SVR_Officel	2022.2.5	144.05672391237135		5.395999999999958	1_sub-pilot043_SVR_EEG_block3-4.protocol.csv	step15	2644	263.047	STIMULATE	41.3	41.2	41.2	41.2	41.2	15	1289.81
1296.202	0	648101	wait	20	2	0	2	0	7.0	0.0	7.0	0.0						1347.3466965998523	1352.958687099861	1352.958687099861	7.5	['7', 'a', '5', 'return']	[3.2105927001684904, 3.58619140018709, 4.0101708001457155, 4.674112000036985]	5.6	5.93	3.0	10hz	low_pain	40.3			sub-043	250	43	40.3	41.4	COM11	COM15	COM3	2024-06-26_10h58.42.758	001-EEG_SVR_Officel	2022.2.5	144.05672391237135		13.02800000000002	1_sub-pilot043_SVR_EEG_block3-4.protocol.csv	step17	2891	287.571	STIMULATE	40.1	40.1	40.1	40.1	40.1	17	1314.334
1301.802	0	650901	10hz	3	2	0	2	0	7.0	0.0	7.0	0.0						1347.3466965998523	1352.958687099861	1352.958687099861	7.5	['7', 'a', '5', 'return']	[3.2105927001684904, 3.58619140018709, 4.0101708001457155, 4.674112000036985]	5.6	5.93	3.0	10hz	low_pain	40.3			sub-043	250	43	40.3	41.4	COM11	COM15	COM3	2024-06-26_10h58.42.758	001-EEG_SVR_Officel	2022.2.5	144.05672391237135		5.599999999999909	1_sub-pilot043_SVR_EEG_block3-4.protocol.csv	step17	2891	287.571	STIMULATE	40.1	40.1	40.1	40.1	40.1	17	1314.334
1308.482	0	654241	10/Lo	2	2	0	2	0	7.0	0.0	7.0	0.0						1347.3466965998523	1352.958687099861	1352.958687099861	7.5	['7', 'a', '5', 'return']	[3.2105927001684904, 3.58619140018709, 4.0101708001457155, 4.674112000036985]	5.6	5.93	3.0	10hz	low_pain	40.3			sub-043	250	43	40.3	41.4	COM11	COM15	COM3	2024-06-26_10h58.42.758	001-EEG_SVR_Officel	2022.2.5	144.05672391237135		5.930000000000064	1_sub-pilot043_SVR_EEG_block3-4.protocol.csv	step17	2891	287.571	STIMULATE	40.1	40.1	40.1	40.1	40.1	17	1314.334
1319.51	0	659755	wait	20	2	0	2	0	8.0	0.0	8.0	0.0						1370.65464730002	1376.5309627999086	1376.5309627999086	5.0	['5', 'return']	[4.189502900000662, 4.806679900037125]	5.87	5.98	0.0	controle	low_pain	40.3			sub-043	250	43	40.3	41.4	COM11	COM15	COM3	2024-06-26_10h58.42.758	001-EEG_SVR_Officel	2022.2.5	144.05672391237135		11.77800000000002	1_sub-pilot043_SVR_EEG_block3-4.protocol.csv	step19	3129	311.12	STIMULATE	40.1	40.1	40.1	40.1	40.1	19	1337.883
1325.374	0	662687	CNhz	12	2	0	2	0	8.0	0.0	8.0	0.0						1370.65464730002	1376.5309627999086	1376.5309627999086	5.0	['5', 'return']	[4.189502900000662, 4.806679900037125]	5.87	5.98	0.0	controle	low_pain	40.3			sub-043	250	43	40.3	41.4	COM11	COM15	COM3	2024-06-26_10h58.42.758	001-EEG_SVR_Officel	2022.2.5	144.05672391237135		5.864000000000033	1_sub-pilot043_SVR_EEG_block3-4.protocol.csv	step19	3129	311.12	STIMULATE	40.1	40.1	40.1	40.1	40.1	19	1337.883
1332.108	0	666054	CN/Lo	11	2	0	2	0	8.0	0.0	8.0	0.0						1370.65464730002	1376.5309627999086	1376.5309627999086	5.0	['5', 'return']	[4.189502900000662, 4.806679900037125]	5.87	5.98	0.0	controle	low_pain	40.3			sub-043	250	43	40.3	41.4	COM11	COM15	COM3	2024-06-26_10h58.42.758	001-EEG_SVR_Officel	2022.2.5	144.05672391237135		5.983999999999924	1_sub-pilot043_SVR_EEG_block3-4.protocol.csv	step19	3129	311.12	STIMULATE	40.1	40.1	40.1	40.1	40.1	19	1337.883
1343.214	0	671607	wait	20	2	0	2	0	9.0	0.0	9.0	0.0						1394.358920000028	1402.1794348000549	1402.1794348000549	8.5	['8', 'a', '5', 'return']	[2.067807799903676, 2.4759913999587297, 2.7894232999533415, 3.428970699897036]	7.81	5.16	1.0	controle	high_pain	41.4			sub-043	250	43	40.3	41.4	COM11	COM15	COM3	2024-06-26_10h58.42.758	001-EEG_SVR_Officel	2022.2.5	144.05672391237135		11.855999999999995	1_sub-pilot043_SVR_EEG_block3-4.protocol.csv	step21	3380	336.086	STIMULATE	41.2	41.2	41.2	41.2	41.2	21	1362.849
1351.022	0	675511	CNhz	12	2	0	2	0	9.0	0.0	9.0	0.0						1394.358920000028	1402.1794348000549	1402.1794348000549	8.5	['8', 'a', '5', 'return']	[2.067807799903676, 2.4759913999587297, 2.7894232999533415, 3.428970699897036]	7.81	5.16	1.0	controle	high_pain	41.4			sub-043	250	43	40.3	41.4	COM11	COM15	COM3	2024-06-26_10h58.42.758	001-EEG_SVR_Officel	2022.2.5	144.05672391237135		7.807999999999993	1_sub-pilot043_SVR_EEG_block3-4.protocol.csv	step21	3380	336.086	STIMULATE	41.2	41.2	41.2	41.2	41.2	21	1362.849
1356.932	0	678466	CN/Hi	10	2	0	2	0	9.0	0.0	9.0	0.0						1394.358920000028	1402.1794348000549	1402.1794348000549	8.5	['8', 'a', '5', 'return']	[2.067807799903676, 2.4759913999587297, 2.7894232999533415, 3.428970699897036]	7.81	5.16	1.0	controle	high_pain	41.4			sub-043	250	43	40.3	41.4	COM11	COM15	COM3	2024-06-26_10h58.42.758	001-EEG_SVR_Officel	2022.2.5	144.05672391237135		5.160000000000082	1_sub-pilot043_SVR_EEG_block3-4.protocol.csv	step21	3380	336.086	STIMULATE	41.2	41.2	41.2	41.2	41.2	21	1362.849
1367.482	0	683741	wait	20	2	0	2	0	10.0	0.0	10.0	0.0						1418.6256234999746	1424.1958065999206	1424.1958065999206	7.0	['7', 'return']	[2.7822088000830263, 3.3735639001242816]	5.56	5.65	2.0	40hz	high_pain	41.4			sub-043	250	43	40.3	41.4	COM11	COM15	COM3	2024-06-26_10h58.42.758	001-EEG_SVR_Officel	2022.2.5	144.05672391237135		11.299999999999955	1_sub-pilot043_SVR_EEG_block3-4.protocol.csv	step23	3607	358.545	STIMULATE	41.3	41.2	41.2	41.2	41.2	23	1385.308
1373.042	0	686521	40hz	9	2	0	2	0	10.0	0.0	10.0	0.0						1418.6256234999746	1424.1958065999206	1424.1958065999206	7.0	['7', 'return']	[2.7822088000830263, 3.3735639001242816]	5.56	5.65	2.0	40hz	high_pain	41.4			sub-043	250	43	40.3	41.4	COM11	COM15	COM3	2024-06-26_10h58.42.758	001-EEG_SVR_Officel	2022.2.5	144.05672391237135		5.559999999999945	1_sub-pilot043_SVR_EEG_block3-4.protocol.csv	step23	3607	358.545	STIMULATE	41.3	41.2	41.2	41.2	41.2	23	1385.308
1379.44	0	689720	40/Hi	7	2	0	2	0	10.0	0.0	10.0	0.0						1418.6256234999746	1424.1958065999206	1424.1958065999206	7.0	['7', 'return']	[2.7822088000830263, 3.3735639001242816]	5.56	5.65	2.0	40hz	high_pain	41.4			sub-043	250	43	40.3	41.4	COM11	COM15	COM3	2024-06-26_10h58.42.758	001-EEG_SVR_Officel	2022.2.5	144.05672391237135		5.648000000000138	1_sub-pilot043_SVR_EEG_block3-4.protocol.csv	step23	3607	358.545	STIMULATE	41.3	41.2	41.2	41.2	41.2	23	1385.308
1389.442	0	694721	wait	20	2	0	2	0	11.0	0.0	11.0	0.0						1440.586522199912	1447.33776689996	1447.33776689996	7.0	['7', 'return']	[4.270369900157675, 4.813659300096333]	6.74	5.96	3.0	40hz	low_pain	40.3			sub-043	250	43	40.3	41.4	COM11	COM15	COM3	2024-06-26_10h58.42.758	001-EEG_SVR_Officel	2022.2.5	144.05672391237135		10.751999999999953	1_sub-pilot043_SVR_EEG_block3-4.protocol.csv	step25	3843	381.968	STIMULATE	40.1	40.1	40.1	40.1	40.1	25	1408.731
1396.182	0	698091	40hz	9	2	0	2	0	11.0	0.0	11.0	0.0						1440.586522199912	1447.33776689996	1447.33776689996	7.0	['7', 'return']	[4.270369900157675, 4.813659300096333]	6.74	5.96	3.0	40hz	low_pain	40.3			sub-043	250	43	40.3	41.4	COM11	COM15	COM3	2024-06-26_10h58.42.758	001-EEG_SVR_Officel	2022.2.5	144.05672391237135		6.740000000000009	1_sub-pilot043_SVR_EEG_block3-4.protocol.csv	step25	3843	381.968	STIMULATE	40.1	40.1	40.1	40.1	40.1	25	1408.731
1402.894	0	701447	40/Lo	8	2	0	2	0	11.0	0.0	11.0	0.0						1440.586522199912	1447.33776689996	1447.33776689996	7.0	['7', 'return']	[4.270369900157675, 4.813659300096333]	6.74	5.96	3.0	40hz	low_pain	40.3			sub-043	250	43	40.3	41.4	COM11	COM15	COM3	2024-06-26_10h58.42.758	001-EEG_SVR_Officel	2022.2.5	144.05672391237135		5.961999999999989	1_sub-pilot043_SVR_EEG_block3-4.protocol.csv	step25	3843	381.968	STIMULATE	40.1	40.1	40.1	40.1	40.1	25	1408.731
1414.014	0	707007	wait	20	2	0	2	0	12.0	0.0	12.0	0.0						1465.1592713999562	1472.7995148999617	1472.7995148999617	6.8	['6', 'a', '8', 'return']	[3.0247579000424594, 3.279766899999231, 3.66378750000149, 4.287782199913636]	7.63	5.47	0.0	10hz	low_pain	40.3			sub-043	250	43	40.3	41.4	COM11	COM15	COM3	2024-06-26_10h58.42.758	001-EEG_SVR_Officel	2022.2.5	144.05672391237135		11.86999999999989	1_sub-pilot043_SVR_EEG_block3-4.protocol.csv	step27	4095	406.941	STIMULATE	40.1	40.1	40.1	40.1	40.2	27	1433.704
1421.644	0	710822	10hz	3	2	0	2	0	12.0	0.0	12.0	0.0						1465.1592713999562	1472.7995148999617	1472.7995148999617	6.8	['6', 'a', '8', 'return']	[3.0247579000424594, 3.279766899999231, 3.66378750000149, 4.287782199913636]	7.63	5.47	0.0	10hz	low_pain	40.3			sub-043	250	43	40.3	41.4	COM11	COM15	COM3	2024-06-26_10h58.42.758	001-EEG_SVR_Officel	2022.2.5	144.05672391237135		7.630000000000109	1_sub-pilot043_SVR_EEG_block3-4.protocol.csv	step27	4095	406.941	STIMULATE	40.1	40.1	40.1	40.1	40.2	27	1433.704
1427.864	0	713932	10/Lo	2	2	0	2	0	12.0	0.0	12.0	0.0						1465.1592713999562	1472.7995148999617	1472.7995148999617	6.8	['6', 'a', '8', 'return']	[3.0247579000424594, 3.279766899999231, 3.66378750000149, 4.287782199913636]	7.63	5.47	0.0	10hz	low_pain	40.3			sub-043	250	43	40.3	41.4	COM11	COM15	COM3	2024-06-26_10h58.42.758	001-EEG_SVR_Officel	2022.2.5	144.05672391237135		5.470000000000027	1_sub-pilot043_SVR_EEG_block3-4.protocol.csv	step27	4095	406.941	STIMULATE	40.1	40.1	40.1	40.1	40.2	27	1433.704
1438.954	0	719477	wait	20	2	0	2	0	13.0	0.0	13.0	0.0						1490.0987447998486	1495.1209280998446	1495.1209280998446	7.5	['7', 'a', '5', 'return']	[3.7512238998897374, 4.046603299910203, 4.335039199795574, 4.9276582999154925]	5.01	6.23	1.0	10hz	high_pain	41.4			sub-043	250	43	40.3	41.4	COM11	COM15	COM3	2024-06-26_10h58.42.758	001-EEG_SVR_Officel	2022.2.5	144.05672391237135		11.839999999999918	1_sub-pilot043_SVR_EEG_block3-4.protocol.csv	step29	4328	430.067	STIMULATE	41.2	41.2	41.2	41.2	41.3	29	1456.83
1443.964	0	721982	10hz	3	2	0	2	0	13.0	0.0	13.0	0.0						1490.0987447998486	1495.1209280998446	1495.1209280998446	7.5	['7', 'a', '5', 'return']	[3.7512238998897374, 4.046603299910203, 4.335039199795574, 4.9276582999154925]	5.01	6.23	1.0	10hz	high_pain	41.4			sub-043	250	43	40.3	41.4	COM11	COM15	COM3	2024-06-26_10h58.42.758	001-EEG_SVR_Officel	2022.2.5	144.05672391237135		5.009999999999991	1_sub-pilot043_SVR_EEG_block3-4.protocol.csv	step29	4328	430.067	STIMULATE	41.2	41.2	41.2	41.2	41.3	29	1456.83
1450.944	0	725472	10/Hi	1	2	0	2	0	13.0	0.0	13.0	0.0						1490.0987447998486	1495.1209280998446	1495.1209280998446	7.5	['7', 'a', '5', 'return']	[3.7512238998897374, 4.046603299910203, 4.335039199795574, 4.9276582999154925]	5.01	6.23	1.0	10hz	high_pain	41.4			sub-043	250	43	40.3	41.4	COM11	COM15	COM3	2024-06-26_10h58.42.758	001-EEG_SVR_Officel	2022.2.5	144.05672391237135		6.230000000000018	1_sub-pilot043_SVR_EEG_block3-4.protocol.csv	step29	4328	430.067	STIMULATE	41.2	41.2	41.2	41.2	41.3	29	1456.83
1461.922	0	730961	wait	20	2	0	2	0	14.0	0.0	14.0	0.0						1513.0674775999505	1518.3181115000043	1518.3181115000043	7.5	['7', 'a', '5', 'return']	[3.3216203001793474, 3.6250385001767427, 3.9931723000481725, 4.657044199993834]	5.24	5.68	2.0	40hz	low_pain	40.3			sub-043	250	43	40.3	41.4	COM11	COM15	COM3	2024-06-26_10h58.42.758	001-EEG_SVR_Officel	2022.2.5	144.05672391237135		11.728000000000065	1_sub-pilot043_SVR_EEG_block3-4.protocol.csv	step31	4557	452.756	STIMULATE	40.1	40.1	40.1	40.1	40.1	31	1479.5189999999998
1467.16	0	733580	40hz	9	2	0	2	0	14.0	0.0	14.0	0.0						1513.0674775999505	1518.3181115000043	1518.3181115000043	7.5	['7', 'a', '5', 'return']	[3.3216203001793474, 3.6250385001767427, 3.9931723000481725, 4.657044199993834]	5.24	5.68	2.0	40hz	low_pain	40.3			sub-043	250	43	40.3	41.4	COM11	COM15	COM3	2024-06-26_10h58.42.758	001-EEG_SVR_Officel	2022.2.5	144.05672391237135		5.238000000000056	1_sub-pilot043_SVR_EEG_block3-4.protocol.csv	step31	4557	452.756	STIMULATE	40.1	40.1	40.1	40.1	40.1	31	1479.5189999999998
1473.59	0	736795	40/Lo	8	2	0	2	0	14.0	0.0	14.0	0.0						1513.0674775999505	1518.3181115000043	1518.3181115000043	7.5	['7', 'a', '5', 'return']	[3.3216203001793474, 3.6250385001767427, 3.9931723000481725, 4.657044199993834]	5.24	5.68	2.0	40hz	low_pain	40.3			sub-043	250	43	40.3	41.4	COM11	COM15	COM3	2024-06-26_10h58.42.758	001-EEG_SVR_Officel	2022.2.5	144.05672391237135		5.679999999999836	1_sub-pilot043_SVR_EEG_block3-4.protocol.csv	step31	4557	452.756	STIMULATE	40.1	40.1	40.1	40.1	40.1	31	1479.5189999999998
1484.842	0	742421	wait	20	2	0	2	0	15.0	0.0	15.0	0.0						1535.9864584000316	1543.0779637000524	1543.0779637000524	7.3	['7', 'a', '3', 'return']	[3.8904413001146168, 4.186163899954408, 4.65778290014714, 5.306921300012618]	7.08	5.9	3.0	controle	high_pain	41.4			sub-043	250	43	40.3	41.4	COM11	COM15	COM3	2024-06-26_10h58.42.758	001-EEG_SVR_Officel	2022.2.5	144.05672391237135		12.00200000000018	1_sub-pilot043_SVR_EEG_block3-4.protocol.csv	step33	4808	477.71	STIMULATE	41.2	41.2	41.2	41.2	41.2	33	1504.473
1491.922	0	745961	CNhz	12	2	0	2	0	15.0	0.0	15.0	0.0						1535.9864584000316	1543.0779637000524	1543.0779637000524	7.3	['7', 'a', '3', 'return']	[3.8904413001146168, 4.186163899954408, 4.65778290014714, 5.306921300012618]	7.08	5.9	3.0	controle	high_pain	41.4			sub-043	250	43	40.3	41.4	COM11	COM15	COM3	2024-06-26_10h58.42.758	001-EEG_SVR_Officel	2022.2.5	144.05672391237135		7.079999999999927	1_sub-pilot043_SVR_EEG_block3-4.protocol.csv	step33	4808	477.71	STIMULATE	41.2	41.2	41.2	41.2	41.2	33	1504.473
1498.572	0	749286	CN/Hi	10	2	0	2	0	15.0	0.0	15.0	0.0						1535.9864584000316	1543.0779637000524	1543.0779637000524	7.3	['7', 'a', '3', 'return']	[3.8904413001146168, 4.186163899954408, 4.65778290014714, 5.306921300012618]	7.08	5.9	3.0	controle	high_pain	41.4			sub-043	250	43	40.3	41.4	COM11	COM15	COM3	2024-06-26_10h58.42.758	001-EEG_SVR_Officel	2022.2.5	144.05672391237135		5.899999999999864	1_sub-pilot043_SVR_EEG_block3-4.protocol.csv	step33	4808	477.71	STIMULATE	41.2	41.2	41.2	41.2	41.2	33	1504.473
1570.9	0	785450	wait	20	3	0	3	0	0.0	0.0	0.0	0.0				p	1.2074555999133736	1622.045852100011	1628.36592989997	1628.36592989997	7.8	['7', 'a', '8', 'return']	[2.946397699881345, 3.273547599790618, 3.6255711999256164, 4.146655699936673]	6.31	6.41	0.0	controle	high_pain	41.4			sub-043	250	43	40.3	41.4	COM11	COM15	COM3	2024-06-26_10h58.42.758	001-EEG_SVR_Officel	2022.2.5	144.05672391237135		73.0780000000002	1_sub-pilot043_SVR_EEG_block3-4.protocol.csv	step35	5668	563.491	STIMULATE	41.4	41.2	41.2	41.2	41.2	35	1590.286
1577.208	0	788604	CNhz	12	3	0	3	0	0.0	0.0	0.0	0.0				p	1.2074555999133736	1622.045852100011	1628.36592989997	1628.36592989997	7.8	['7', 'a', '8', 'return']	[2.946397699881345, 3.273547599790618, 3.6255711999256164, 4.146655699936673]	6.31	6.41	0.0	controle	high_pain	41.4			sub-043	250	43	40.3	41.4	COM11	COM15	COM3	2024-06-26_10h58.42.758	001-EEG_SVR_Officel	2022.2.5	144.05672391237135		6.307999999999993	1_sub-pilot043_SVR_EEG_block3-4.protocol.csv	step35	5668	563.491	STIMULATE	41.4	41.2	41.2	41.2	41.2	35	1590.286
1584.366	0	792183	CN/Hi	10	3	0	3	0	0.0	0.0	0.0	0.0				p	1.2074555999133736	1622.045852100011	1628.36592989997	1628.36592989997	7.8	['7', 'a', '8', 'return']	[2.946397699881345, 3.273547599790618, 3.6255711999256164, 4.146655699936673]	6.31	6.41	0.0	controle	high_pain	41.4			sub-043	250	43	40.3	41.4	COM11	COM15	COM3	2024-06-26_10h58.42.758	001-EEG_SVR_Officel	2022.2.5	144.05672391237135		6.407999999999902	1_sub-pilot043_SVR_EEG_block3-4.protocol.csv	step35	5668	563.491	STIMULATE	41.4	41.2	41.2	41.2	41.2	35	1590.286
1594.388	0	797194	wait	20	3	0	3	0	1.0	0.0	1.0	0.0						1645.5347618998494	1651.153438899899	1651.153438899899	7.5	['7', 'a', '5', 'return']	[2.7816767999902368, 3.150687800021842, 3.414672299986705, 4.038056399906054]	5.61	5.48	1.0	40hz	low_pain	40.3			sub-043	250	43	40.3	41.4	COM11	COM15	COM3	2024-06-26_10h58.42.758	001-EEG_SVR_Officel	2022.2.5	144.05672391237135		10.771999999999935	1_sub-pilot043_SVR_EEG_block3-4.protocol.csv	step37	5889	585.382	STIMULATE	40.1	40.1	40.1	40.1	40.1	37	1612.177
1599.996	0	799998	40hz	9	3	0	3	0	1.0	0.0	1.0	0.0						1645.5347618998494	1651.153438899899	1651.153438899899	7.5	['7', 'a', '5', 'return']	[2.7816767999902368, 3.150687800021842, 3.414672299986705, 4.038056399906054]	5.61	5.48	1.0	40hz	low_pain	40.3			sub-043	250	43	40.3	41.4	COM11	COM15	COM3	2024-06-26_10h58.42.758	001-EEG_SVR_Officel	2022.2.5	144.05672391237135		5.608000000000175	1_sub-pilot043_SVR_EEG_block3-4.protocol.csv	step37	5889	585.382	STIMULATE	40.1	40.1	40.1	40.1	40.1	37	1612.177
1606.23	0	803115	40/Lo	8	3	0	3	0	1.0	0.0	1.0	0.0						1645.5347618998494	1651.153438899899	1651.153438899899	7.5	['7', 'a', '5', 'return']	[2.7816767999902368, 3.150687800021842, 3.414672299986705, 4.038056399906054]	5.61	5.48	1.0	40hz	low_pain	40.3			sub-043	250	43	40.3	41.4	COM11	COM15	COM3	2024-06-26_10h58.42.758	001-EEG_SVR_Officel	2022.2.5	144.05672391237135		5.483999999999924	1_sub-pilot043_SVR_EEG_block3-4.protocol.csv	step37	5889	585.382	STIMULATE	40.1	40.1	40.1	40.1	40.1	37	1612.177
1617.066	0	808533	wait	20	3	0	3	0	2.0	0.0	2.0	0.0						1668.2110051999334	1674.732598299859	1674.732598299859	6.5	['6', 'a', '5', 'return']	[3.226024799980223, 3.4750947998836637, 3.6899723999667913, 4.323802699800581]	6.51	5.16	2.0	10hz	low_pain	40.3			sub-043	250	43	40.3	41.4	COM11	COM15	COM3	2024-06-26_10h58.42.758	001-EEG_SVR_Officel	2022.2.5	144.05672391237135		11.586000000000013	1_sub-pilot043_SVR_EEG_block3-4.protocol.csv	step39	6123	608.564	STIMULATE	40.1	40.1	40.1	40.1	40.1	39	1635.359
1623.574	0	811787	10hz	3	3	0	3	0	2.0	0.0	2.0	0.0						1668.2110051999334	1674.732598299859	1674.732598299859	6.5	['6', 'a', '5', 'return']	[3.226024799980223, 3.4750947998836637, 3.6899723999667913, 4.323802699800581]	6.51	5.16	2.0	10hz	low_pain	40.3			sub-043	250	43	40.3	41.4	COM11	COM15	COM3	2024-06-26_10h58.42.758	001-EEG_SVR_Officel	2022.2.5	144.05672391237135		6.508000000000038	1_sub-pilot043_SVR_EEG_block3-4.protocol.csv	step39	6123	608.564	STIMULATE	40.1	40.1	40.1	40.1	40.1	39	1635.359
1629.49	0	814745	10/Lo	2	3	0	3	0	2.0	0.0	2.0	0.0						1668.2110051999334	1674.732598299859	1674.732598299859	6.5	['6', 'a', '5', 'return']	[3.226024799980223, 3.4750947998836637, 3.6899723999667913, 4.323802699800581]	6.51	5.16	2.0	10hz	low_pain	40.3			sub-043	250	43	40.3	41.4	COM11	COM15	COM3	2024-06-26_10h58.42.758	001-EEG_SVR_Officel	2022.2.5	144.05672391237135		5.16599999999994	1_sub-pilot043_SVR_EEG_block3-4.protocol.csv	step39	6123	608.564	STIMULATE	40.1	40.1	40.1	40.1	40.1	39	1635.359
1640.93	0	820465	wait	20	3	0	3	0	3.0	0.0	3.0	0.0						1692.075361999916	1697.8678939000238	1697.8678939000238	7.5	['7', 'a', '5', 'return']	[2.9958452999126166, 3.3407758998218924, 3.6758704998064786, 4.388709599850699]	5.78	5.79	3.0	20hz	high_pain	41.4			sub-043	250	43	40.3	41.4	COM11	COM15	COM3	2024-06-26_10h58.42.758	001-EEG_SVR_Officel	2022.2.5	144.05672391237135		12.190000000000055	1_sub-pilot043_SVR_EEG_block3-4.protocol.csv	step41	6363	632.339	STIMULATE	41.2	41.2	41.2	41.2	41.2	41	1659.134
1646.71	0	823355	20hz	6	3	0	3	0	3.0	0.0	3.0	0.0						1692.075361999916	1697.8678939000238	1697.8678939000238	7.5	['7', 'a', '5', 'return']	[2.9958452999126166, 3.3407758998218924, 3.6758704998064786, 4.388709599850699]	5.78	5.79	3.0	20hz	high_pain	41.4			sub-043	250	43	40.3	41.4	COM11	COM15	COM3	2024-06-26_10h58.42.758	001-EEG_SVR_Officel	2022.2.5	144.05672391237135		5.779999999999973	1_sub-pilot043_SVR_EEG_block3-4.protocol.csv	step41	6363	632.339	STIMULATE	41.2	41.2	41.2	41.2	41.2	41	1659.134
1653.25	0	826625	20/Hi	4	3	0	3	0	3.0	0.0	3.0	0.0						1692.075361999916	1697.8678939000238	1697.8678939000238	7.5	['7', 'a', '5', 'return']	[2.9958452999126166, 3.3407758998218924, 3.6758704998064786, 4.388709599850699]	5.78	5.79	3.0	20hz	high_pain	41.4			sub-043	250	43	40.3	41.4	COM11	COM15	COM3	2024-06-26_10h58.42.758	001-EEG_SVR_Officel	2022.2.5	144.05672391237135		5.789999999999964	1_sub-pilot043_SVR_EEG_block3-4.protocol.csv	step41	6363	632.339	STIMULATE	41.2	41.2	41.2	41.2	41.2	41	1659.134
1664.128	0	832064	wait	20	3	0	3	0	4.0	0.0	4.0	0.0						1715.2728960998356	1722.0999654999468	1722.0999654999468	6.8	['6', 'a', '8', 'return']	[2.9958693000953645, 3.4121034001000226, 3.957040600012988, 4.491647600196302]	6.82	6.43	0.0	20hz	low_pain	40.3			sub-043	250	43	40.3	41.4	COM11	COM15	COM3	2024-06-26_10h58.42.758	001-EEG_SVR_Officel	2022.2.5	144.05672391237135		11.627999999999929	1_sub-pilot043_SVR_EEG_block3-4.protocol.csv	step43	6614	657.228	STIMULATE	40.1	40.1	40.1	40.1	40.1	43	1684.023
1670.942	0	835471	20hz	6	3	0	3	0	4.0	0.0	4.0	0.0						1715.2728960998356	1722.0999654999468	1722.0999654999468	6.8	['6', 'a', '8', 'return']	[2.9958693000953645, 3.4121034001000226, 3.957040600012988, 4.491647600196302]	6.82	6.43	0.0	20hz	low_pain	40.3			sub-043	250	43	40.3	41.4	COM11	COM15	COM3	2024-06-26_10h58.42.758	001-EEG_SVR_Officel	2022.2.5	144.05672391237135		6.814000000000078	1_sub-pilot043_SVR_EEG_block3-4.protocol.csv	step43	6614	657.228	STIMULATE	40.1	40.1	40.1	40.1	40.1	43	1684.023
1678.12	0	839060	20/Lo	5	3	0	3	0	4.0	0.0	4.0	0.0						1715.2728960998356	1722.0999654999468	1722.0999654999468	6.8	['6', 'a', '8', 'return']	[2.9958693000953645, 3.4121034001000226, 3.957040600012988, 4.491647600196302]	6.82	6.43	0.0	20hz	low_pain	40.3			sub-043	250	43	40.3	41.4	COM11	COM15	COM3	2024-06-26_10h58.42.758	001-EEG_SVR_Officel	2022.2.5	144.05672391237135		6.427999999999884	1_sub-pilot043_SVR_EEG_block3-4.protocol.csv	step43	6614	657.228	STIMULATE	40.1	40.1	40.1	40.1	40.1	43	1684.023
1688.454	0	844227	wait	20	3	0	3	0	5.0	0.0	5.0	0.0						1739.6005985999946	1746.991233699955	1746.991233699955	7.3	['7', 'a', '3', 'return']	[2.689122300129384, 2.952159400098026, 3.3604466000106186, 4.024507900001481]	7.38	5.23	1.0	40hz	high_pain	41.4			sub-043	250	43	40.3	41.4	COM11	COM15	COM3	2024-06-26_10h58.42.758	001-EEG_SVR_Officel	2022.2.5	144.05672391237135		11.08400000000006	1_sub-pilot043_SVR_EEG_block3-4.protocol.csv	step45	6853	680.945	STIMULATE	41.2	41.2	41.2	41.2	41.3	45	1707.74
1695.834	0	847917	40hz	9	3	0	3	0	5.0	0.0	5.0	0.0						1739.6005985999946	1746.991233699955	1746.991233699955	7.3	['7', 'a', '3', 'return']	[2.689122300129384, 2.952159400098026, 3.3604466000106186, 4.024507900001481]	7.38	5.23	1.0	40hz	high_pain	41.4			sub-043	250	43	40.3	41.4	COM11	COM15	COM3	2024-06-26_10h58.42.758	001-EEG_SVR_Officel	2022.2.5	144.05672391237135		7.380000000000109	1_sub-pilot043_SVR_EEG_block3-4.protocol.csv	step45	6853	680.945	STIMULATE	41.2	41.2	41.2	41.2	41.3	45	1707.74
1701.818	0	850909	40/Hi	7	3	0	3	0	5.0	0.0	5.0	0.0						1739.6005985999946	1746.991233699955	1746.991233699955	7.3	['7', 'a', '3', 'return']	[2.689122300129384, 2.952159400098026, 3.3604466000106186, 4.024507900001481]	7.38	5.23	1.0	40hz	high_pain	41.4			sub-043	250	43	40.3	41.4	COM11	COM15	COM3	2024-06-26_10h58.42.758	001-EEG_SVR_Officel	2022.2.5	144.05672391237135		5.233999999999924	1_sub-pilot043_SVR_EEG_block3-4.protocol.csv	step45	6853	680.945	STIMULATE	41.2	41.2	41.2	41.2	41.3	45	1707.74
1712.882	0	856441	wait	20	3	0	3	0	6.0	0.0	6.0	0.0						1764.0279612999875	1770.8344566999003	1770.8344566999003	7.0	['7', 'return']	[2.564934399910271, 3.1333593998569995]	6.8	5.87	2.0	20hz	low_pain	40.3			sub-043	250	43	40.3	41.4	COM11	COM15	COM3	2024-06-26_10h58.42.758	001-EEG_SVR_Officel	2022.2.5	144.05672391237135		11.814000000000078	1_sub-pilot043_SVR_EEG_block3-4.protocol.csv	step47	7100	705.406	STIMULATE	40.1	40.1	40.1	40.1	40.1	47	1732.201
1719.676	0	859838	20hz	6	3	0	3	0	6.0	0.0	6.0	0.0						1764.0279612999875	1770.8344566999003	1770.8344566999003	7.0	['7', 'return']	[2.564934399910271, 3.1333593998569995]	6.8	5.87	2.0	20hz	low_pain	40.3			sub-043	250	43	40.3	41.4	COM11	COM15	COM3	2024-06-26_10h58.42.758	001-EEG_SVR_Officel	2022.2.5	144.05672391237135		6.793999999999869	1_sub-pilot043_SVR_EEG_block3-4.protocol.csv	step47	7100	705.406	STIMULATE	40.1	40.1	40.1	40.1	40.1	47	1732.201
1726.3	0	863150	20/Lo	5	3	0	3	0	6.0	0.0	6.0	0.0						1764.0279612999875	1770.8344566999003	1770.8344566999003	7.0	['7', 'return']	[2.564934399910271, 3.1333593998569995]	6.8	5.87	2.0	20hz	low_pain	40.3			sub-043	250	43	40.3	41.4	COM11	COM15	COM3	2024-06-26_10h58.42.758	001-EEG_SVR_Officel	2022.2.5	144.05672391237135		5.874000000000024	1_sub-pilot043_SVR_EEG_block3-4.protocol.csv	step47	7100	705.406	STIMULATE	40.1	40.1	40.1	40.1	40.1	47	1732.201
1735.85	0	867925	wait	20	3	0	3	0	7.0	0.0	7.0	0.0						1786.9960258000065	1794.4622853000185	1794.4622853000185	7.0	['7', 'return']	[3.577526999870315, 4.105961999855936]	7.46	5.12	3.0	controle	low_pain	40.3			sub-043	250	43	40.3	41.4	COM11	COM15	COM3	2024-06-26_10h58.42.758	001-EEG_SVR_Officel	2022.2.5	144.05672391237135		10.299999999999955	1_sub-pilot043_SVR_EEG_block3-4.protocol.csv	step49	7330	728.241	STIMULATE	40.1	40.1	40.1	40.1	40.1	49	1755.036
1743.304	0	871652	CNhz	12	3	0	3	0	7.0	0.0	7.0	0.0						1786.9960258000065	1794.4622853000185	1794.4622853000185	7.0	['7', 'return']	[3.577526999870315, 4.105961999855936]	7.46	5.12	3.0	controle	low_pain	40.3			sub-043	250	43	40.3	41.4	COM11	COM15	COM3	2024-06-26_10h58.42.758	001-EEG_SVR_Officel	2022.2.5	144.05672391237135		7.454000000000178	1_sub-pilot043_SVR_EEG_block3-4.protocol.csv	step49	7330	728.241	STIMULATE	40.1	40.1	40.1	40.1	40.1	49	1755.036
1749.178	0	874589	CN/Lo	11	3	0	3	0	7.0	0.0	7.0	0.0						1786.9960258000065	1794.4622853000185	1794.4622853000185	7.0	['7', 'return']	[3.577526999870315, 4.105961999855936]	7.46	5.12	3.0	controle	low_pain	40.3			sub-043	250	43	40.3	41.4	COM11	COM15	COM3	2024-06-26_10h58.42.758	001-EEG_SVR_Officel	2022.2.5	144.05672391237135		5.124000000000024	1_sub-pilot043_SVR_EEG_block3-4.protocol.csv	step49	7330	728.241	STIMULATE	40.1	40.1	40.1	40.1	40.1	49	1755.036
1760.436	0	880218	wait	20	3	0	3	0	8.0	0.0	8.0	0.0						1811.5818184998352	1818.4935216000304	1818.4935216000304	8.0	['8', 'return']	[2.9691805001348257, 3.4003611002117395]	6.9	6.0	0.0	40hz	high_pain	41.4			sub-043	250	43	40.3	41.4	COM11	COM15	COM3	2024-06-26_10h58.42.758	001-EEG_SVR_Officel	2022.2.5	144.05672391237135		12.00799999999981	1_sub-pilot043_SVR_EEG_block3-4.protocol.csv	step51	7582	753.326	STIMULATE	41.2	41.2	41.2	41.2	41.4	51	1780.121
1767.334	0	883667	40hz	9	3	0	3	0	8.0	0.0	8.0	0.0						1811.5818184998352	1818.4935216000304	1818.4935216000304	8.0	['8', 'return']	[2.9691805001348257, 3.4003611002117395]	6.9	6.0	0.0	40hz	high_pain	41.4			sub-043	250	43	40.3	41.4	COM11	COM15	COM3	2024-06-26_10h58.42.758	001-EEG_SVR_Officel	2022.2.5	144.05672391237135		6.898000000000138	1_sub-pilot043_SVR_EEG_block3-4.protocol.csv	step51	7582	753.326	STIMULATE	41.2	41.2	41.2	41.2	41.4	51	1780.121
1774.084	0	887042	40/Hi	7	3	0	3	0	8.0	0.0	8.0	0.0						1811.5818184998352	1818.4935216000304	1818.4935216000304	8.0	['8', 'return']	[2.9691805001348257, 3.4003611002117395]	6.9	6.0	0.0	40hz	high_pain	41.4			sub-043	250	43	40.3	41.4	COM11	COM15	COM3	2024-06-26_10h58.42.758	001-EEG_SVR_Officel	2022.2.5	144.05672391237135		6.0	1_sub-pilot043_SVR_EEG_block3-4.protocol.csv	step51	7582	753.326	STIMULATE	41.2	41.2	41.2	41.2	41.4	51	1780.121
1783.764	0	891882	wait	20	3	0	3	0	9.0	0.0	9.0	0.0						1834.9119251999075	1841.18445489998	1841.18445489998	8.0	['8', 'return']	[2.816271699965, 3.37652359995991]	6.26	5.23	1.0	20hz	high_pain	41.4			sub-043	250	43	40.3	41.4	COM11	COM15	COM3	2024-06-26_10h58.42.758	001-EEG_SVR_Officel	2022.2.5	144.05672391237135		10.429999999999836	1_sub-pilot043_SVR_EEG_block3-4.protocol.csv	step53	7801	775.21	STIMULATE	41.2	41.2	41.2	41.2	41.3	53	1802.005
1790.024	0	895012	20hz	6	3	0	3	0	9.0	0.0	9.0	0.0						1834.9119251999075	1841.18445489998	1841.18445489998	8.0	['8', 'return']	[2.816271699965, 3.37652359995991]	6.26	5.23	1.0	20hz	high_pain	41.4			sub-043	250	43	40.3	41.4	COM11	COM15	COM3	2024-06-26_10h58.42.758	001-EEG_SVR_Officel	2022.2.5	144.05672391237135		6.259999999999991	1_sub-pilot043_SVR_EEG_block3-4.protocol.csv	step53	7801	775.21	STIMULATE	41.2	41.2	41.2	41.2	41.3	53	1802.005
1796.002	0	898001	20/Hi	4	3	0	3	0	9.0	0.0	9.0	0.0						1834.9119251999075	1841.18445489998	1841.18445489998	8.0	['8', 'return']	[2.816271699965, 3.37652359995991]	6.26	5.23	1.0	20hz	high_pain	41.4			sub-043	250	43	40.3	41.4	COM11	COM15	COM3	2024-06-26_10h58.42.758	001-EEG_SVR_Officel	2022.2.5	144.05672391237135		5.2280000000000655	1_sub-pilot043_SVR_EEG_block3-4.protocol.csv	step53	7801	775.21	STIMULATE	41.2	41.2	41.2	41.2	41.3	53	1802.005
1806.426	0	903213	wait	20	3	0	3	0	10.0	0.0	10.0	0.0						1857.573403300019	1864.755346999969	1864.755346999969	7.8	['7', 'a', '8', 'return']	[3.5805732998996973, 3.8923511998727918, 4.252379399957135, 4.908525499980897]	7.17	5.06	2.0	10hz	high_pain	41.4			sub-043	250	43	40.3	41.4	COM11	COM15	COM3	2024-06-26_10h58.42.758	001-EEG_SVR_Officel	2022.2.5	144.05672391237135		11.173999999999978	1_sub-pilot043_SVR_EEG_block3-4.protocol.csv	step55	8029	798.517	STIMULATE	41.3	41.2	41.2	41.2	41.2	55	1825.312
1813.596	0	906798	10hz	3	3	0	3	0	10.0	0.0	10.0	0.0						1857.573403300019	1864.755346999969	1864.755346999969	7.8	['7', 'a', '8', 'return']	[3.5805732998996973, 3.8923511998727918, 4.252379399957135, 4.908525499980897]	7.17	5.06	2.0	10hz	high_pain	41.4			sub-043	250	43	40.3	41.4	COM11	COM15	COM3	2024-06-26_10h58.42.758	001-EEG_SVR_Officel	2022.2.5	144.05672391237135		7.170000000000073	1_sub-pilot043_SVR_EEG_block3-4.protocol.csv	step55	8029	798.517	STIMULATE	41.3	41.2	41.2	41.2	41.2	55	1825.312
1819.406	0	909703	10/Hi	1	3	0	3	0	10.0	0.0	10.0	0.0						1857.573403300019	1864.755346999969	1864.755346999969	7.8	['7', 'a', '8', 'return']	[3.5805732998996973, 3.8923511998727918, 4.252379399957135, 4.908525499980897]	7.17	5.06	2.0	10hz	high_pain	41.4			sub-043	250	43	40.3	41.4	COM11	COM15	COM3	2024-06-26_10h58.42.758	001-EEG_SVR_Officel	2022.2.5	144.05672391237135		5.059999999999945	1_sub-pilot043_SVR_EEG_block3-4.protocol.csv	step55	8029	798.517	STIMULATE	41.3	41.2	41.2	41.2	41.2	55	1825.312
1831.534	0	915767	wait	20	3	0	3	0	11.0	0.0	11.0	0.0						1882.681092399871	1888.0428190999664	1888.0428190999664	8.0	['8', 'return']	[2.4831119999289513, 2.995560099836439]	5.35	5.8	3.0	20hz	low_pain	40.3			sub-043	250	43	40.3	41.4	COM11	COM15	COM3	2024-06-26_10h58.42.758	001-EEG_SVR_Officel	2022.2.5	144.05672391237135		12.878000000000156	1_sub-pilot043_SVR_EEG_block3-4.protocol.csv	step57	8261	822.584	STIMULATE	40.1	40.1	40.1	40.1	40.1	57	1849.379
1836.886	0	918443	20hz	6	3	0	3	0	11.0	0.0	11.0	0.0						1882.681092399871	1888.0428190999664	1888.0428190999664	8.0	['8', 'return']	[2.4831119999289513, 2.995560099836439]	5.35	5.8	3.0	20hz	low_pain	40.3			sub-043	250	43	40.3	41.4	COM11	COM15	COM3	2024-06-26_10h58.42.758	001-EEG_SVR_Officel	2022.2.5	144.05672391237135		5.351999999999862	1_sub-pilot043_SVR_EEG_block3-4.protocol.csv	step57	8261	822.584	STIMULATE	40.1	40.1	40.1	40.1	40.1	57	1849.379
1843.438	0	921719	20/Lo	5	3	0	3	0	11.0	0.0	11.0	0.0						1882.681092399871	1888.0428190999664	1888.0428190999664	8.0	['8', 'return']	[2.4831119999289513, 2.995560099836439]	5.35	5.8	3.0	20hz	low_pain	40.3			sub-043	250	43	40.3	41.4	COM11	COM15	COM3	2024-06-26_10h58.42.758	001-EEG_SVR_Officel	2022.2.5	144.05672391237135		5.802000000000135	1_sub-pilot043_SVR_EEG_block3-4.protocol.csv	step57	8261	822.584	STIMULATE	40.1	40.1	40.1	40.1	40.1	57	1849.379
1852.918	0	926459	wait	20	3	0	3	0	12.0	0.0	12.0	0.0						1904.0656840000304	1909.649718399858	1909.649718399858	6.8	['6', 'a', '8', 'return']	[3.013457200024277, 3.365360900061205, 3.750510700047016, 4.29368510004133]	5.57	6.29	0.0	10hz	high_pain	41.4			sub-043	250	43	40.3	41.4	COM11	COM15	COM3	2024-06-26_10h58.42.758	001-EEG_SVR_Officel	2022.2.5	144.05672391237135		10.22999999999979	1_sub-pilot043_SVR_EEG_block3-4.protocol.csv	step59	8472	844.699	STIMULATE	41.2	41.2	41.2	41.2	41.4	59	1871.494
1858.49	0	929245	10hz	3	3	0	3	0	12.0	0.0	12.0	0.0						1904.0656840000304	1909.649718399858	1909.649718399858	6.8	['6', 'a', '8', 'return']	[3.013457200024277, 3.365360900061205, 3.750510700047016, 4.29368510004133]	5.57	6.29	0.0	10hz	high_pain	41.4			sub-043	250	43	40.3	41.4	COM11	COM15	COM3	2024-06-26_10h58.42.758	001-EEG_SVR_Officel	2022.2.5	144.05672391237135		5.572000000000116	1_sub-pilot043_SVR_EEG_block3-4.protocol.csv	step59	8472	844.699	STIMULATE	41.2	41.2	41.2	41.2	41.4	59	1871.494
1865.532	0	932766	10/Hi	1	3	0	3	0	12.0	0.0	12.0	0.0						1904.0656840000304	1909.649718399858	1909.649718399858	6.8	['6', 'a', '8', 'return']	[3.013457200024277, 3.365360900061205, 3.750510700047016, 4.29368510004133]	5.57	6.29	0.0	10hz	high_pain	41.4			sub-043	250	43	40.3	41.4	COM11	COM15	COM3	2024-06-26_10h58.42.758	001-EEG_SVR_Officel	2022.2.5	144.05672391237135		6.291999999999916	1_sub-pilot043_SVR_EEG_block3-4.protocol.csv	step59	8472	844.699	STIMULATE	41.2	41.2	41.2	41.2	41.4	59	1871.494
1875.81	0	937905	wait	20	3	0	3	0	13.0	0.0	13.0	0.0						1926.9567418999504	1933.8746992999224	1933.8746992999224	5.5	['5', 'a', '5', 'return']	[3.461836300091818, 3.772952100029215, 4.029076599981636, 4.765530300093815]	6.91	5.61	1.0	10hz	low_pain	40.3			sub-043	250	43	40.3	41.4	COM11	COM15	COM3	2024-06-26_10h58.42.758	001-EEG_SVR_Officel	2022.2.5	144.05672391237135		11.02800000000002	1_sub-pilot043_SVR_EEG_block3-4.protocol.csv	step61	8696	868.316	STIMULATE	40.1	40.1	40.1	40.1	40.1	61	1895.1109999999999
1882.716	0	941358	10hz	3	3	0	3	0	13.0	0.0	13.0	0.0						1926.9567418999504	1933.8746992999224	1933.8746992999224	5.5	['5', 'a', '5', 'return']	[3.461836300091818, 3.772952100029215, 4.029076599981636, 4.765530300093815]	6.91	5.61	1.0	10hz	low_pain	40.3			sub-043	250	43	40.3	41.4	COM11	COM15	COM3	2024-06-26_10h58.42.758	001-EEG_SVR_Officel	2022.2.5	144.05672391237135		6.905999999999949	1_sub-pilot043_SVR_EEG_block3-4.protocol.csv	step61	8696	868.316	STIMULATE	40.1	40.1	40.1	40.1	40.1	61	1895.1109999999999
1889.076	0	944538	10/Lo	2	3	0	3	0	13.0	0.0	13.0	0.0						1926.9567418999504	1933.8746992999224	1933.8746992999224	5.5	['5', 'a', '5', 'return']	[3.461836300091818, 3.772952100029215, 4.029076599981636, 4.765530300093815]	6.91	5.61	1.0	10hz	low_pain	40.3			sub-043	250	43	40.3	41.4	COM11	COM15	COM3	2024-06-26_10h58.42.758	001-EEG_SVR_Officel	2022.2.5	144.05672391237135		5.610000000000127	1_sub-pilot043_SVR_EEG_block3-4.protocol.csv	step61	8696	868.316	STIMULATE	40.1	40.1	40.1	40.1	40.1	61	1895.1109999999999
1900.514	0	950257	wait	20	3	0	3	0	14.0	0.0	14.0	0.0						1951.6624008000365	1958.351032800041	1958.351032800041	6.8	['6', 'a', '8', 'return']	[4.129657000070438, 4.329562700120732, 4.689297900069505, 5.266616699984297]	6.68	6.36	2.0	controle	high_pain	41.4			sub-043	250	43	40.3	41.4	COM11	COM15	COM3	2024-06-26_10h58.42.758	001-EEG_SVR_Officel	2022.2.5	144.05672391237135		12.187999999999874	1_sub-pilot043_SVR_EEG_block3-4.protocol.csv	step63	8932	893.446	STIMULATE	41.3	41.2	41.2	41.2	41.2	63	1920.241
1907.19	0	953595	CNhz	12	3	0	3	0	14.0	0.0	14.0	0.0						1951.6624008000365	1958.351032800041	1958.351032800041	6.8	['6', 'a', '8', 'return']	[4.129657000070438, 4.329562700120732, 4.689297900069505, 5.266616699984297]	6.68	6.36	2.0	controle	high_pain	41.4			sub-043	250	43	40.3	41.4	COM11	COM15	COM3	2024-06-26_10h58.42.758	001-EEG_SVR_Officel	2022.2.5	144.05672391237135		6.676000000000158	1_sub-pilot043_SVR_EEG_block3-4.protocol.csv	step63	8932	893.446	STIMULATE	41.3	41.2	41.2	41.2	41.2	63	1920.241
1914.3	0	957150	CN/Hi	10	3	0	3	0	14.0	0.0	14.0	0.0						1951.6624008000365	1958.351032800041	1958.351032800041	6.8	['6', 'a', '8', 'return']	[4.129657000070438, 4.329562700120732, 4.689297900069505, 5.266616699984297]	6.68	6.36	2.0	controle	high_pain	41.4			sub-043	250	43	40.3	41.4	COM11	COM15	COM3	2024-06-26_10h58.42.758	001-EEG_SVR_Officel	2022.2.5	144.05672391237135		6.3599999999999	1_sub-pilot043_SVR_EEG_block3-4.protocol.csv	step63	8932	893.446	STIMULATE	41.3	41.2	41.2	41.2	41.2	63	1920.241
1925.482	0	962741	wait	20	3	0	3	0	15.0	0.0	15.0	0.0						1976.629698100034	1983.151422200026	1983.151422200026	8.0	['8', 'return']	[2.9052573000080884, 3.3763345000334084]	6.51	5.34	3.0	40hz	high_pain	41.4			sub-043	250	43	40.3	41.4	COM11	COM15	COM3	2024-06-26_10h58.42.758	001-EEG_SVR_Officel	2022.2.5	144.05672391237135		11.932000000000016	1_sub-pilot043_SVR_EEG_block3-4.protocol.csv	step65	9154	917.311	STIMULATE	41.2	41.2	41.2	41.2	41.2	65	1944.106
1931.992	0	965996	40hz	9	3	0	3	0	15.0	0.0	15.0	0.0						1976.629698100034	1983.151422200026	1983.151422200026	8.0	['8', 'return']	[2.9052573000080884, 3.3763345000334084]	6.51	5.34	3.0	40hz	high_pain	41.4			sub-043	250	43	40.3	41.4	COM11	COM15	COM3	2024-06-26_10h58.42.758	001-EEG_SVR_Officel	2022.2.5	144.05672391237135		6.509999999999991	1_sub-pilot043_SVR_EEG_block3-4.protocol.csv	step65	9154	917.311	STIMULATE	41.2	41.2	41.2	41.2	41.2	65	1944.106
1938.082	0	969041	40/Hi	7	3	0	3	0	15.0	0.0	15.0	0.0						1976.629698100034	1983.151422200026	1983.151422200026	8.0	['8', 'return']	[2.9052573000080884, 3.3763345000334084]	6.51	5.34	3.0	40hz	high_pain	41.4			sub-043	250	43	40.3	41.4	COM11	COM15	COM3	2024-06-26_10h58.42.758	001-EEG_SVR_Officel	2022.2.5	144.05672391237135		5.3400000000001455	1_sub-pilot043_SVR_EEG_block3-4.protocol.csv	step65	9154	917.311	STIMULATE	41.2	41.2	41.2	41.2	41.2	65	1944.106
2028.406	0	1014203	wait	20	4	0	4	0	0.0	0.0	0.0	0.0				p	2.075827799970284	2079.552249399945	2087.497804600047	2087.497804600047	5.5	['5', 'a', '5', 'return']	[2.6709048999473453, 2.91877599991858, 3.0947408999782056, 3.6790098999626935]	7.94	5.43	0.0	20hz	low_pain	40.3			sub-043	250	43	40.3	41.4	COM11	COM15	COM3	2024-06-26_10h58.42.758	001-EEG_SVR_Officel	2022.2.5	144.05672391237135		91.07399999999984	2_sub-pilot043_SVR_EEG_block5-6.protocol.csv	step3	917	91.508	STIMULATE	40.1	40.1	40.1	40.1	40.2	3	2048.295
2036.34	0	1018170	20hz	6	4	0	4	0	0.0	0.0	0.0	0.0				p	2.075827799970284	2079.552249399945	2087.497804600047	2087.497804600047	5.5	['5', 'a', '5', 'return']	[2.6709048999473453, 2.91877599991858, 3.0947408999782056, 3.6790098999626935]	7.94	5.43	0.0	20hz	low_pain	40.3			sub-043	250	43	40.3	41.4	COM11	COM15	COM3	2024-06-26_10h58.42.758	001-EEG_SVR_Officel	2022.2.5	144.05672391237135		7.933999999999969	2_sub-pilot043_SVR_EEG_block5-6.protocol.csv	step3	917	91.508	STIMULATE	40.1	40.1	40.1	40.1	40.2	3	2048.295
2042.524	0	1021262	20/Lo	5	4	0	4	0	0.0	0.0	0.0	0.0				p	2.075827799970284	2079.552249399945	2087.497804600047	2087.497804600047	5.5	['5', 'a', '5', 'return']	[2.6709048999473453, 2.91877599991858, 3.0947408999782056, 3.6790098999626935]	7.94	5.43	0.0	20hz	low_pain	40.3			sub-043	250	43	40.3	41.4	COM11	COM15	COM3	2024-06-26_10h58.42.758	001-EEG_SVR_Officel	2022.2.5	144.05672391237135		5.433999999999969	2_sub-pilot043_SVR_EEG_block5-6.protocol.csv	step3	917	91.508	STIMULATE	40.1	40.1	40.1	40.1	40.2	3	2048.295
2053.044	0	1026521	wait	20	4	0	4	0	1.0	0.0	1.0	0.0						2104.1936260999646	2110.0346798999235	2110.0346798999235	7.4	['7', 'a', '4', 'return']	[2.98869049991481, 3.212080500088632, 3.4369391000363976, 4.037764200009406]	5.83	5.3	1.0	10hz	high_pain	41.4			sub-043	250	43	40.3	41.4	COM11	COM15	COM3	2024-06-26_10h58.42.758	001-EEG_SVR_Officel	2022.2.5	144.05672391237135		11.269999999999982	2_sub-pilot043_SVR_EEG_block5-6.protocol.csv	step5	1144	114.012	STIMULATE	41.2	41.2	41.2	41.2	41.3	5	2070.799
2058.874	0	1029436	10hz	3	4	0	4	0	1.0	0.0	1.0	0.0						2104.1936260999646	2110.0346798999235	2110.0346798999235	7.4	['7', 'a', '4', 'return']	[2.98869049991481, 3.212080500088632, 3.4369391000363976, 4.037764200009406]	5.83	5.3	1.0	10hz	high_pain	41.4			sub-043	250	43	40.3	41.4	COM11	COM15	COM3	2024-06-26_10h58.42.758	001-EEG_SVR_Officel	2022.2.5	144.05672391237135		5.829999999999927	2_sub-pilot043_SVR_EEG_block5-6.protocol.csv	step5	1144	114.012	STIMULATE	41.2	41.2	41.2	41.2	41.3	5	2070.799
2064.928	0	1032464	10/Hi	1	4	0	4	0	1.0	0.0	1.0	0.0						2104.1936260999646	2110.0346798999235	2110.0346798999235	7.4	['7', 'a', '4', 'return']	[2.98869049991481, 3.212080500088632, 3.4369391000363976, 4.037764200009406]	5.83	5.3	1.0	10hz	high_pain	41.4			sub-043	250	43	40.3	41.4	COM11	COM15	COM3	2024-06-26_10h58.42.758	001-EEG_SVR_Officel	2022.2.5	144.05672391237135		5.304000000000087	2_sub-pilot043_SVR_EEG_block5-6.protocol.csv	step5	1144	114.012	STIMULATE	41.2	41.2	41.2	41.2	41.3	5	2070.799
2075.938	0	1037969	wait	20	4	0	4	0	2.0	0.0	2.0	0.0						2127.085272399941	2134.093112099916	2134.093112099916	7.0	['7', 'return']	[2.954555799951777, 3.4756094999611378]	7.0	5.32	2.0	40hz	high_pain	41.4			sub-043	250	43	40.3	41.4	COM11	COM15	COM3	2024-06-26_10h58.42.758	001-EEG_SVR_Officel	2022.2.5	144.05672391237135		11.760000000000218	2_sub-pilot043_SVR_EEG_block5-6.protocol.csv	step7	1386	138.058	STIMULATE	41.3	41.2	41.2	41.2	41.2	7	2094.845
2082.934	0	1041467	40hz	9	4	0	4	0	2.0	0.0	2.0	0.0						2127.085272399941	2134.093112099916	2134.093112099916	7.0	['7', 'return']	[2.954555799951777, 3.4756094999611378]	7.0	5.32	2.0	40hz	high_pain	41.4			sub-043	250	43	40.3	41.4	COM11	COM15	COM3	2024-06-26_10h58.42.758	001-EEG_SVR_Officel	2022.2.5	144.05672391237135		6.996000000000095	2_sub-pilot043_SVR_EEG_block5-6.protocol.csv	step7	1386	138.058	STIMULATE	41.3	41.2	41.2	41.2	41.2	7	2094.845
2089.0	0	1044500	40/Hi	7	4	0	4	0	2.0	0.0	2.0	0.0						2127.085272399941	2134.093112099916	2134.093112099916	7.0	['7', 'return']	[2.954555799951777, 3.4756094999611378]	7.0	5.32	2.0	40hz	high_pain	41.4			sub-043	250	43	40.3	41.4	COM11	COM15	COM3	2024-06-26_10h58.42.758	001-EEG_SVR_Officel	2022.2.5	144.05672391237135		5.3159999999998035	2_sub-pilot043_SVR_EEG_block5-6.protocol.csv	step7	1386	138.058	STIMULATE	41.3	41.2	41.2	41.2	41.2	7	2094.845
2099.432	0	1049716	wait	20	4	0	4	0	3.0	0.0	3.0	0.0						2150.58074330003	2158.2903934998903	2158.2903934998903	7.0	['7', 'return']	[2.4860306999180466, 3.045600000070408]	7.7	5.82	3.0	10hz	low_pain	40.3			sub-043	250	43	40.3	41.4	COM11	COM15	COM3	2024-06-26_10h58.42.758	001-EEG_SVR_Officel	2022.2.5	144.05672391237135		11.181999999999789	2_sub-pilot043_SVR_EEG_block5-6.protocol.csv	step9	1635	162.744	STIMULATE	40.1	40.1	40.1	40.1	40.1	9	2119.531
2107.13	0	1053565	10hz	3	4	0	4	0	3.0	0.0	3.0	0.0						2150.58074330003	2158.2903934998903	2158.2903934998903	7.0	['7', 'return']	[2.4860306999180466, 3.045600000070408]	7.7	5.82	3.0	10hz	low_pain	40.3			sub-043	250	43	40.3	41.4	COM11	COM15	COM3	2024-06-26_10h58.42.758	001-EEG_SVR_Officel	2022.2.5	144.05672391237135		7.69800000000032	2_sub-pilot043_SVR_EEG_block5-6.protocol.csv	step9	1635	162.744	STIMULATE	40.1	40.1	40.1	40.1	40.1	9	2119.531
2113.698	0	1056849	10/Lo	2	4	0	4	0	3.0	0.0	3.0	0.0						2150.58074330003	2158.2903934998903	2158.2903934998903	7.0	['7', 'return']	[2.4860306999180466, 3.045600000070408]	7.7	5.82	3.0	10hz	low_pain	40.3			sub-043	250	43	40.3	41.4	COM11	COM15	COM3	2024-06-26_10h58.42.758	001-EEG_SVR_Officel	2022.2.5	144.05672391237135		5.817999999999756	2_sub-pilot043_SVR_EEG_block5-6.protocol.csv	step9	1635	162.744	STIMULATE	40.1	40.1	40.1	40.1	40.1	9	2119.531
2123.2	0	1061600	wait	20	4	0	4	0	4.0	0.0	4.0	0.0						2174.347862499999	2181.140360399848	2181.140360399848	7.8	['7', 'a', '8', 'return']	[2.724227099912241, 2.988245799904689, 3.4605300999246538, 4.1798119999002665]	6.78	5.3	0.0	10hz	high_pain	41.4			sub-043	250	43	40.3	41.4	COM11	COM15	COM3	2024-06-26_10h58.42.758	001-EEG_SVR_Officel	2022.2.5	144.05672391237135		10.251999999999953	2_sub-pilot043_SVR_EEG_block5-6.protocol.csv	step11	1861	185.11	STIMULATE	41.2	41.2	41.2	41.2	41.4	11	2141.897
