onset	duration	sample	trial_type	value	block.thisRepN	block.thisTrialN	block.thisN	block.thisIndex	reps.thisRepN	reps.thisTrialN	reps.thisN	reps.thisIndex	afrec_start	rec_start	rec_start_egi	key_resp.keys	key_resp.rt	wait_time_text.started	wait_time_text.stopped	therm_loca_text.started	subResponse	keyResp.keys	keyResp.rt	ITI_wait	wait_trigger	loca_thermode	Hz_condition	temp_condition	temp_valeur	text.started	text.stopped	participant	brightness	num_part	low	high	com_svr	com_thermode	com_eeg	date	expName	psychopyVersion	frameRate	Unnamed: 39	distance_from_previous	file	step	index	time	type	temp1	temp2	temp3	temp4	temp5	step_num	time_sync
3.642	0	1821	wait	20	0	0	0	0	0.0	0.0	0.0	0.0	158.47733489994425	158.26777619996574	1711724225.883658	p	3.4139188999542966	161.90870509995148	167.208396299975	167.208396299975	2.0	['2', 'return']	[4.865184299997054, 5.568526200018823]	5.29	6.46	0.0	40hz	low_pain	44.3			sub-029	250	29	44.3	45.7	COM14	COM15	COM3	2024-03-29_10h54.53.743	001-EEG_SVR_Officel	2022.2.5	144.06502514820073		3.642	0_sub-pilot029_SVR_EEG_block1-2.protocol.csv	step3	879	87.76	STIMULATE	44.4	44.2	44.2	44.2	44.3	3	21.99900000000001
8.926	0	4463	40hz	9	0	0	0	0	0.0	0.0	0.0	0.0	158.47733489994425	158.26777619996574	1711724225.883658	p	3.4139188999542966	161.90870509995148	167.208396299975	167.208396299975	2.0	['2', 'return']	[4.865184299997054, 5.568526200018823]	5.29	6.46	0.0	40hz	low_pain	44.3			sub-029	250	29	44.3	45.7	COM14	COM15	COM3	2024-03-29_10h54.53.743	001-EEG_SVR_Officel	2022.2.5	144.06502514820073		5.284000000000001	0_sub-pilot029_SVR_EEG_block1-2.protocol.csv	step3	879	87.76	STIMULATE	44.4	44.2	44.2	44.2	44.3	3	21.99900000000001
16.14	0	8070	40/Lo	8	0	0	0	0	0.0	0.0	0.0	0.0	158.47733489994425	158.26777619996574	1711724225.883658	p	3.4139188999542966	161.90870509995148	167.208396299975	167.208396299975	2.0	['2', 'return']	[4.865184299997054, 5.568526200018823]	5.29	6.46	0.0	40hz	low_pain	44.3			sub-029	250	29	44.3	45.7	COM14	COM15	COM3	2024-03-29_10h54.53.743	001-EEG_SVR_Officel	2022.2.5	144.06502514820073		6.464	0_sub-pilot029_SVR_EEG_block1-2.protocol.csv	step3	879	87.76	STIMULATE	44.4	44.2	44.2	44.2	44.3	3	21.99900000000001
27.516	0	13758	wait	20	0	0	0	0	1.0	0.0	1.0	0.0						185.7849931999808	192.43807789997663	192.43807789997663	3.0	['3', 'return']	[2.922502600005828, 3.4899214999750257]	6.65	6.38	1.0	10hz	low_pain	44.3			sub-029	250	29	44.3	45.7	COM14	COM15	COM3	2024-03-29_10h54.53.743	001-EEG_SVR_Officel	2022.2.5	144.06502514820073		12.125999999999998	0_sub-pilot029_SVR_EEG_block1-2.protocol.csv	step5	1133	112.903	STIMULATE	44.3	44.2	44.2	44.2	44.2	5	47.14200000000001
34.166	0	17083	10hz	3	0	0	0	0	1.0	0.0	1.0	0.0						185.7849931999808	192.43807789997663	192.43807789997663	3.0	['3', 'return']	[2.922502600005828, 3.4899214999750257]	6.65	6.38	1.0	10hz	low_pain	44.3			sub-029	250	29	44.3	45.7	COM14	COM15	COM3	2024-03-29_10h54.53.743	001-EEG_SVR_Officel	2022.2.5	144.06502514820073		6.649999999999999	0_sub-pilot029_SVR_EEG_block1-2.protocol.csv	step5	1133	112.903	STIMULATE	44.3	44.2	44.2	44.2	44.2	5	47.14200000000001
41.296	0	20648	10/Lo	2	0	0	0	0	1.0	0.0	1.0	0.0						185.7849931999808	192.43807789997663	192.43807789997663	3.0	['3', 'return']	[2.922502600005828, 3.4899214999750257]	6.65	6.38	1.0	10hz	low_pain	44.3			sub-029	250	29	44.3	45.7	COM14	COM15	COM3	2024-03-29_10h54.53.743	001-EEG_SVR_Officel	2022.2.5	144.06502514820073		6.380000000000003	0_sub-pilot029_SVR_EEG_block1-2.protocol.csv	step5	1133	112.903	STIMULATE	44.3	44.2	44.2	44.2	44.2	5	47.14200000000001
50.678	0	25339	wait	20	0	0	0	0	2.0	0.0	2.0	0.0						208.94717049994503	216.33826029999184	216.33826029999184	4.0	['4', 'return']	[3.351909999968484, 4.119348799926229]	7.39	5.77	2.0	20hz	low_pain	44.3			sub-029	250	29	44.3	45.7	COM14	COM15	COM3	2024-03-29_10h54.53.743	001-EEG_SVR_Officel	2022.2.5	144.06502514820073		10.131999999999998	0_sub-pilot029_SVR_EEG_block1-2.protocol.csv	step7	1368	136.271	STIMULATE	44.3	44.2	44.2	44.2	44.4	7	70.50999999999999
58.064	0	29032	20hz	6	0	0	0	0	2.0	0.0	2.0	0.0						208.94717049994503	216.33826029999184	216.33826029999184	4.0	['4', 'return']	[3.351909999968484, 4.119348799926229]	7.39	5.77	2.0	20hz	low_pain	44.3			sub-029	250	29	44.3	45.7	COM14	COM15	COM3	2024-03-29_10h54.53.743	001-EEG_SVR_Officel	2022.2.5	144.06502514820073		7.386000000000003	0_sub-pilot029_SVR_EEG_block1-2.protocol.csv	step7	1368	136.271	STIMULATE	44.3	44.2	44.2	44.2	44.4	7	70.50999999999999
64.584	0	32292	20/Lo	5	0	0	0	0	2.0	0.0	2.0	0.0						208.94717049994503	216.33826029999184	216.33826029999184	4.0	['4', 'return']	[3.351909999968484, 4.119348799926229]	7.39	5.77	2.0	20hz	low_pain	44.3			sub-029	250	29	44.3	45.7	COM14	COM15	COM3	2024-03-29_10h54.53.743	001-EEG_SVR_Officel	2022.2.5	144.06502514820073		5.770000000000003	0_sub-pilot029_SVR_EEG_block1-2.protocol.csv	step7	1368	136.271	STIMULATE	44.3	44.2	44.2	44.2	44.4	7	70.50999999999999
75.21	0	37605	wait	20	0	0	0	0	3.0	0.0	3.0	0.0						233.47850460000336	240.7288447000319	240.7288447000319	6.0	['6', 'return']	[2.287269699969329, 3.4157150998944417]	7.25	5.58	3.0	20hz	high_pain	45.7			sub-029	250	29	44.3	45.7	COM14	COM15	COM3	2024-03-29_10h54.53.743	001-EEG_SVR_Officel	2022.2.5	144.06502514820073		11.37599999999999	0_sub-pilot029_SVR_EEG_block1-2.protocol.csv	step9	1611	160.302	STIMULATE	45.7	45.6	45.6	45.7	45.7	9	94.541
82.456	0	41228	20hz	6	0	0	0	0	3.0	0.0	3.0	0.0						233.47850460000336	240.7288447000319	240.7288447000319	6.0	['6', 'return']	[2.287269699969329, 3.4157150998944417]	7.25	5.58	3.0	20hz	high_pain	45.7			sub-029	250	29	44.3	45.7	COM14	COM15	COM3	2024-03-29_10h54.53.743	001-EEG_SVR_Officel	2022.2.5	144.06502514820073		7.246000000000009	0_sub-pilot029_SVR_EEG_block1-2.protocol.csv	step9	1611	160.302	STIMULATE	45.7	45.6	45.6	45.7	45.7	9	94.541
88.788	0	44394	20/Hi	4	0	0	0	0	3.0	0.0	3.0	0.0						233.47850460000336	240.7288447000319	240.7288447000319	6.0	['6', 'return']	[2.287269699969329, 3.4157150998944417]	7.25	5.58	3.0	20hz	high_pain	45.7			sub-029	250	29	44.3	45.7	COM14	COM15	COM3	2024-03-29_10h54.53.743	001-EEG_SVR_Officel	2022.2.5	144.06502514820073		5.581999999999994	0_sub-pilot029_SVR_EEG_block1-2.protocol.csv	step9	1611	160.302	STIMULATE	45.7	45.6	45.6	45.7	45.7	9	94.541
98.894	0	49447	wait	20	0	0	0	0	4.0	0.0	4.0	0.0						257.16127979999874	262.3911458000075	262.3911458000075	4.0	['4', 'return']	[3.001691799960099, 4.520879799965769]	5.23	5.33	0.0	20hz	high_pain	45.7			sub-029	250	29	44.3	45.7	COM14	COM15	COM3	2024-03-29_10h54.53.743	001-EEG_SVR_Officel	2022.2.5	144.06502514820073		10.856000000000009	0_sub-pilot029_SVR_EEG_block1-2.protocol.csv	step11	1828	181.832	STIMULATE	45.7	45.6	45.6	45.7	45.9	11	116.071
104.118	0	52059	20hz	6	0	0	0	0	4.0	0.0	4.0	0.0						257.16127979999874	262.3911458000075	262.3911458000075	4.0	['4', 'return']	[3.001691799960099, 4.520879799965769]	5.23	5.33	0.0	20hz	high_pain	45.7			sub-029	250	29	44.3	45.7	COM14	COM15	COM3	2024-03-29_10h54.53.743	001-EEG_SVR_Officel	2022.2.5	144.06502514820073		5.2239999999999895	0_sub-pilot029_SVR_EEG_block1-2.protocol.csv	step11	1828	181.832	STIMULATE	45.7	45.6	45.6	45.7	45.9	11	116.071
110.2	0	55100	20/Hi	4	0	0	0	0	4.0	0.0	4.0	0.0						257.16127979999874	262.3911458000075	262.3911458000075	4.0	['4', 'return']	[3.001691799960099, 4.520879799965769]	5.23	5.33	0.0	20hz	high_pain	45.7			sub-029	250	29	44.3	45.7	COM14	COM15	COM3	2024-03-29_10h54.53.743	001-EEG_SVR_Officel	2022.2.5	144.06502514820073		5.332000000000008	0_sub-pilot029_SVR_EEG_block1-2.protocol.csv	step11	1828	181.832	STIMULATE	45.7	45.6	45.6	45.7	45.9	11	116.071
121.66	0	60830	wait	20	0	0	0	0	5.0	0.0	5.0	0.0						279.9279408999719	286.62414820003323	286.62414820003323	2.0	['2', 'return']	[2.5222805999219418, 3.489041499909945]	6.69	5.45	1.0	controle	low_pain	44.3			sub-029	250	29	44.3	45.7	COM14	COM15	COM3	2024-03-29_10h54.53.743	001-EEG_SVR_Officel	2022.2.5	144.06502514820073		12.209999999999994	0_sub-pilot029_SVR_EEG_block1-2.protocol.csv	step13	2073	206.164	STIMULATE	44.3	44.2	44.2	44.2	44.3	13	140.403
128.352	0	64176	CNhz	12	0	0	0	0	5.0	0.0	5.0	0.0						279.9279408999719	286.62414820003323	286.62414820003323	2.0	['2', 'return']	[2.5222805999219418, 3.489041499909945]	6.69	5.45	1.0	controle	low_pain	44.3			sub-029	250	29	44.3	45.7	COM14	COM15	COM3	2024-03-29_10h54.53.743	001-EEG_SVR_Officel	2022.2.5	144.06502514820073		6.692000000000007	0_sub-pilot029_SVR_EEG_block1-2.protocol.csv	step13	2073	206.164	STIMULATE	44.3	44.2	44.2	44.2	44.3	13	140.403
134.552	0	67276	CN/Lo	11	0	0	0	0	5.0	0.0	5.0	0.0						279.9279408999719	286.62414820003323	286.62414820003323	2.0	['2', 'return']	[2.5222805999219418, 3.489041499909945]	6.69	5.45	1.0	controle	low_pain	44.3			sub-029	250	29	44.3	45.7	COM14	COM15	COM3	2024-03-29_10h54.53.743	001-EEG_SVR_Officel	2022.2.5	144.06502514820073		5.449999999999989	0_sub-pilot029_SVR_EEG_block1-2.protocol.csv	step13	2073	206.164	STIMULATE	44.3	44.2	44.2	44.2	44.3	13	140.403
144.864	0	72432	wait	20	0	0	0	0	6.0	0.0	6.0	0.0						303.13268299994525	308.5980330000166	308.5980330000166	3.0	['3', 'return']	[2.330106300069019, 3.0256134000374004]	5.46	6.41	2.0	40hz	low_pain	44.3			sub-029	250	29	44.3	45.7	COM14	COM15	COM3	2024-03-29_10h54.53.743	001-EEG_SVR_Officel	2022.2.5	144.06502514820073		11.062000000000012	0_sub-pilot029_SVR_EEG_block1-2.protocol.csv	step15	2304	229.005	STIMULATE	44.2	44.2	44.2	44.2	44.3	15	163.24399999999997
150.326	0	75163	40hz	9	0	0	0	0	6.0	0.0	6.0	0.0						303.13268299994525	308.5980330000166	308.5980330000166	3.0	['3', 'return']	[2.330106300069019, 3.0256134000374004]	5.46	6.41	2.0	40hz	low_pain	44.3			sub-029	250	29	44.3	45.7	COM14	COM15	COM3	2024-03-29_10h54.53.743	001-EEG_SVR_Officel	2022.2.5	144.06502514820073		5.461999999999989	0_sub-pilot029_SVR_EEG_block1-2.protocol.csv	step15	2304	229.005	STIMULATE	44.2	44.2	44.2	44.2	44.3	15	163.24399999999997
157.484	0	78742	40/Lo	8	0	0	0	0	6.0	0.0	6.0	0.0						303.13268299994525	308.5980330000166	308.5980330000166	3.0	['3', 'return']	[2.330106300069019, 3.0256134000374004]	5.46	6.41	2.0	40hz	low_pain	44.3			sub-029	250	29	44.3	45.7	COM14	COM15	COM3	2024-03-29_10h54.53.743	001-EEG_SVR_Officel	2022.2.5	144.06502514820073		6.4080000000000155	0_sub-pilot029_SVR_EEG_block1-2.protocol.csv	step15	2304	229.005	STIMULATE	44.2	44.2	44.2	44.2	44.3	15	163.24399999999997
166.374	0	83187	wait	20	0	0	0	0	7.0	0.0	7.0	0.0						324.641699800035	331.52443909994327	331.52443909994327	5.0	['5', 'return']	[2.4278597000520676, 3.036265700007789]	6.88	6.02	3.0	40hz	high_pain	45.7			sub-029	250	29	44.3	45.7	COM14	COM15	COM3	2024-03-29_10h54.53.743	001-EEG_SVR_Officel	2022.2.5	144.06502514820073		9.639999999999986	0_sub-pilot029_SVR_EEG_block1-2.protocol.csv	step17	2532	251.646	STIMULATE	45.7	45.6	45.7	45.7	45.7	17	185.885
173.252	0	86626	40hz	9	0	0	0	0	7.0	0.0	7.0	0.0						324.641699800035	331.52443909994327	331.52443909994327	5.0	['5', 'return']	[2.4278597000520676, 3.036265700007789]	6.88	6.02	3.0	40hz	high_pain	45.7			sub-029	250	29	44.3	45.7	COM14	COM15	COM3	2024-03-29_10h54.53.743	001-EEG_SVR_Officel	2022.2.5	144.06502514820073		6.878000000000014	0_sub-pilot029_SVR_EEG_block1-2.protocol.csv	step17	2532	251.646	STIMULATE	45.7	45.6	45.7	45.7	45.7	17	185.885
180.02	0	90010	40/Hi	7	0	0	0	0	7.0	0.0	7.0	0.0						324.641699800035	331.52443909994327	331.52443909994327	5.0	['5', 'return']	[2.4278597000520676, 3.036265700007789]	6.88	6.02	3.0	40hz	high_pain	45.7			sub-029	250	29	44.3	45.7	COM14	COM15	COM3	2024-03-29_10h54.53.743	001-EEG_SVR_Officel	2022.2.5	144.06502514820073		6.018000000000001	0_sub-pilot029_SVR_EEG_block1-2.protocol.csv	step17	2532	251.646	STIMULATE	45.7	45.6	45.7	45.7	45.7	17	185.885
189.314	0	94657	wait	20	0	0	0	0	8.0	0.0	8.0	0.0						347.5819198000245	353.3048822999699	353.3048822999699	3.0	['3', 'return']	[2.767558499937877, 3.5680786999873817]	5.72	6.45	0.0	10hz	high_pain	45.7			sub-029	250	29	44.3	45.7	COM14	COM15	COM3	2024-03-29_10h54.53.743	001-EEG_SVR_Officel	2022.2.5	144.06502514820073		10.043999999999983	0_sub-pilot029_SVR_EEG_block1-2.protocol.csv	step19	2757	273.918	STIMULATE	45.7	45.6	45.6	45.7	45.9	19	208.15699999999998
195.032	0	97516	10hz	3	0	0	0	0	8.0	0.0	8.0	0.0						347.5819198000245	353.3048822999699	353.3048822999699	3.0	['3', 'return']	[2.767558499937877, 3.5680786999873817]	5.72	6.45	0.0	10hz	high_pain	45.7			sub-029	250	29	44.3	45.7	COM14	COM15	COM3	2024-03-29_10h54.53.743	001-EEG_SVR_Officel	2022.2.5	144.06502514820073		5.718000000000018	0_sub-pilot029_SVR_EEG_block1-2.protocol.csv	step19	2757	273.918	STIMULATE	45.7	45.6	45.6	45.7	45.9	19	208.15699999999998
202.232	0	101116	10/Hi	1	0	0	0	0	8.0	0.0	8.0	0.0						347.5819198000245	353.3048822999699	353.3048822999699	3.0	['3', 'return']	[2.767558499937877, 3.5680786999873817]	5.72	6.45	0.0	10hz	high_pain	45.7			sub-029	250	29	44.3	45.7	COM14	COM15	COM3	2024-03-29_10h54.53.743	001-EEG_SVR_Officel	2022.2.5	144.06502514820073		6.449999999999989	0_sub-pilot029_SVR_EEG_block1-2.protocol.csv	step19	2757	273.918	STIMULATE	45.7	45.6	45.6	45.7	45.9	19	208.15699999999998
211.622	0	105811	wait	20	0	0	0	0	9.0	0.0	9.0	0.0						369.8905902999686	376.25204429996666	376.25204429996666	4.0	['4', 'return']	[2.2517727001104504, 3.012201700010337]	6.36	5.29	1.0	20hz	high_pain	45.7			sub-029	250	29	44.3	45.7	COM14	COM15	COM3	2024-03-29_10h54.53.743	001-EEG_SVR_Officel	2022.2.5	144.06502514820073		10.140000000000015	0_sub-pilot029_SVR_EEG_block1-2.protocol.csv	step21	2976	295.63	STIMULATE	45.7	45.6	45.7	45.6	45.7	21	229.86899999999997
217.98	0	108990	20hz	6	0	0	0	0	9.0	0.0	9.0	0.0						369.8905902999686	376.25204429996666	376.25204429996666	4.0	['4', 'return']	[2.2517727001104504, 3.012201700010337]	6.36	5.29	1.0	20hz	high_pain	45.7			sub-029	250	29	44.3	45.7	COM14	COM15	COM3	2024-03-29_10h54.53.743	001-EEG_SVR_Officel	2022.2.5	144.06502514820073		6.357999999999976	0_sub-pilot029_SVR_EEG_block1-2.protocol.csv	step21	2976	295.63	STIMULATE	45.7	45.6	45.7	45.6	45.7	21	229.86899999999997
224.018	0	112009	20/Hi	4	0	0	0	0	9.0	0.0	9.0	0.0						369.8905902999686	376.25204429996666	376.25204429996666	4.0	['4', 'return']	[2.2517727001104504, 3.012201700010337]	6.36	5.29	1.0	20hz	high_pain	45.7			sub-029	250	29	44.3	45.7	COM14	COM15	COM3	2024-03-29_10h54.53.743	001-EEG_SVR_Officel	2022.2.5	144.06502514820073		5.288000000000011	0_sub-pilot029_SVR_EEG_block1-2.protocol.csv	step21	2976	295.63	STIMULATE	45.7	45.6	45.7	45.6	45.7	21	229.86899999999997
234.012	0	117006	wait	20	0	0	0	0	10.0	0.0	10.0	0.0						392.2817574000219	400.1852878000354	400.1852878000354	3.0	['3', 'return']	[2.9997035999549553, 3.7745643999660388]	7.9	5.65	2.0	controle	low_pain	44.3			sub-029	250	29	44.3	45.7	COM14	COM15	COM3	2024-03-29_10h54.53.743	001-EEG_SVR_Officel	2022.2.5	144.06502514820073		10.744	0_sub-pilot029_SVR_EEG_block1-2.protocol.csv	step23	3221	319.95	STIMULATE	44.2	44.2	44.2	44.2	44.3	23	254.18899999999996
241.912	0	120956	CNhz	12	0	0	0	0	10.0	0.0	10.0	0.0						392.2817574000219	400.1852878000354	400.1852878000354	3.0	['3', 'return']	[2.9997035999549553, 3.7745643999660388]	7.9	5.65	2.0	controle	low_pain	44.3			sub-029	250	29	44.3	45.7	COM14	COM15	COM3	2024-03-29_10h54.53.743	001-EEG_SVR_Officel	2022.2.5	144.06502514820073		7.900000000000006	0_sub-pilot029_SVR_EEG_block1-2.protocol.csv	step23	3221	319.95	STIMULATE	44.2	44.2	44.2	44.2	44.3	23	254.18899999999996
248.314	0	124157	CN/Lo	11	0	0	0	0	10.0	0.0	10.0	0.0						392.2817574000219	400.1852878000354	400.1852878000354	3.0	['3', 'return']	[2.9997035999549553, 3.7745643999660388]	7.9	5.65	2.0	controle	low_pain	44.3			sub-029	250	29	44.3	45.7	COM14	COM15	COM3	2024-03-29_10h54.53.743	001-EEG_SVR_Officel	2022.2.5	144.06502514820073		5.651999999999987	0_sub-pilot029_SVR_EEG_block1-2.protocol.csv	step23	3221	319.95	STIMULATE	44.2	44.2	44.2	44.2	44.3	23	254.18899999999996
258.71	0	129354	wait	20	0	0	0	0	11.0	0.0	11.0	0.0						416.979209800018	423.001099199988	423.001099199988	5.0	['5', 'return']	[2.5274322000332177, 3.2163754999637604]	6.02	5.16	3.0	10hz	high_pain	45.7			sub-029	250	29	44.3	45.7	COM14	COM15	COM3	2024-03-29_10h54.53.743	001-EEG_SVR_Officel	2022.2.5	144.06502514820073		11.145999999999987	0_sub-pilot029_SVR_EEG_block1-2.protocol.csv	step25	3446	342.254	STIMULATE	45.7	45.6	45.7	45.7	45.7	25	276.493
264.728	0	132364	10hz	3	0	0	0	0	11.0	0.0	11.0	0.0						416.979209800018	423.001099199988	423.001099199988	5.0	['5', 'return']	[2.5274322000332177, 3.2163754999637604]	6.02	5.16	3.0	10hz	high_pain	45.7			sub-029	250	29	44.3	45.7	COM14	COM15	COM3	2024-03-29_10h54.53.743	001-EEG_SVR_Officel	2022.2.5	144.06502514820073		6.018000000000029	0_sub-pilot029_SVR_EEG_block1-2.protocol.csv	step25	3446	342.254	STIMULATE	45.7	45.6	45.7	45.7	45.7	25	276.493
270.636	0	135318	10/Hi	1	0	0	0	0	11.0	0.0	11.0	0.0						416.979209800018	423.001099199988	423.001099199988	5.0	['5', 'return']	[2.5274322000332177, 3.2163754999637604]	6.02	5.16	3.0	10hz	high_pain	45.7			sub-029	250	29	44.3	45.7	COM14	COM15	COM3	2024-03-29_10h54.53.743	001-EEG_SVR_Officel	2022.2.5	144.06502514820073		5.1580000000000155	0_sub-pilot029_SVR_EEG_block1-2.protocol.csv	step25	3446	342.254	STIMULATE	45.7	45.6	45.7	45.7	45.7	25	276.493
280.97	0	140485	wait	20	0	0	0	0	12.0	0.0	12.0	0.0						439.2388651999645	445.19237299996894	445.19237299996894	1.0	['1', 'return']	[2.5616934000281617, 3.4970238999230787]	5.95	5.84	0.0	10hz	low_pain	44.3			sub-029	250	29	44.3	45.7	COM14	COM15	COM3	2024-03-29_10h54.53.743	001-EEG_SVR_Officel	2022.2.5	144.06502514820073		11.084000000000003	0_sub-pilot029_SVR_EEG_block1-2.protocol.csv	step27	3676	365.021	STIMULATE	44.2	44.2	44.2	44.2	44.4	27	299.26
286.918	0	143459	10hz	3	0	0	0	0	12.0	0.0	12.0	0.0						439.2388651999645	445.19237299996894	445.19237299996894	1.0	['1', 'return']	[2.5616934000281617, 3.4970238999230787]	5.95	5.84	0.0	10hz	low_pain	44.3			sub-029	250	29	44.3	45.7	COM14	COM15	COM3	2024-03-29_10h54.53.743	001-EEG_SVR_Officel	2022.2.5	144.06502514820073		5.947999999999979	0_sub-pilot029_SVR_EEG_block1-2.protocol.csv	step27	3676	365.021	STIMULATE	44.2	44.2	44.2	44.2	44.4	27	299.26
293.506	0	146753	10/Lo	2	0	0	0	0	12.0	0.0	12.0	0.0						439.2388651999645	445.19237299996894	445.19237299996894	1.0	['1', 'return']	[2.5616934000281617, 3.4970238999230787]	5.95	5.84	0.0	10hz	low_pain	44.3			sub-029	250	29	44.3	45.7	COM14	COM15	COM3	2024-03-29_10h54.53.743	001-EEG_SVR_Officel	2022.2.5	144.06502514820073		5.837999999999965	0_sub-pilot029_SVR_EEG_block1-2.protocol.csv	step27	3676	365.021	STIMULATE	44.2	44.2	44.2	44.2	44.4	27	299.26
303.438	0	151719	wait	20	0	0	0	0	13.0	0.0	13.0	0.0						461.7068603000371	468.9724826000165	468.9724826000165	3.0	['3', 'return']	[2.6368268000660464, 3.4445841000415385]	7.26	5.15	1.0	40hz	low_pain	44.3			sub-029	250	29	44.3	45.7	COM14	COM15	COM3	2024-03-29_10h54.53.743	001-EEG_SVR_Officel	2022.2.5	144.06502514820073		10.682000000000016	0_sub-pilot029_SVR_EEG_block1-2.protocol.csv	step29	3910	388.217	STIMULATE	44.2	44.2	44.2	44.2	44.4	29	322.45599999999996
310.698	0	155349	40hz	9	0	0	0	0	13.0	0.0	13.0	0.0						461.7068603000371	468.9724826000165	468.9724826000165	3.0	['3', 'return']	[2.6368268000660464, 3.4445841000415385]	7.26	5.15	1.0	40hz	low_pain	44.3			sub-029	250	29	44.3	45.7	COM14	COM15	COM3	2024-03-29_10h54.53.743	001-EEG_SVR_Officel	2022.2.5	144.06502514820073		7.259999999999991	0_sub-pilot029_SVR_EEG_block1-2.protocol.csv	step29	3910	388.217	STIMULATE	44.2	44.2	44.2	44.2	44.4	29	322.45599999999996
316.598	0	158299	40/Lo	8	0	0	0	0	13.0	0.0	13.0	0.0						461.7068603000371	468.9724826000165	468.9724826000165	3.0	['3', 'return']	[2.6368268000660464, 3.4445841000415385]	7.26	5.15	1.0	40hz	low_pain	44.3			sub-029	250	29	44.3	45.7	COM14	COM15	COM3	2024-03-29_10h54.53.743	001-EEG_SVR_Officel	2022.2.5	144.06502514820073		5.150000000000034	0_sub-pilot029_SVR_EEG_block1-2.protocol.csv	step29	3910	388.217	STIMULATE	44.2	44.2	44.2	44.2	44.4	29	322.45599999999996
327.162	0	163581	wait	20	0	0	0	0	14.0	0.0	14.0	0.0						485.4324439000338	492.18976290000137	492.18976290000137	6.0	['6', 'return']	[2.8585853000404313, 3.4828350000316277]	6.75	5.12	2.0	10hz	high_pain	45.7			sub-029	250	29	44.3	45.7	COM14	COM15	COM3	2024-03-29_10h54.53.743	001-EEG_SVR_Officel	2022.2.5	144.06502514820073		11.313999999999965	0_sub-pilot029_SVR_EEG_block1-2.protocol.csv	step31	4144	411.456	STIMULATE	45.7	45.6	45.7	45.7	45.6	31	345.695
333.908	0	166954	10hz	3	0	0	0	0	14.0	0.0	14.0	0.0						485.4324439000338	492.18976290000137	492.18976290000137	6.0	['6', 'return']	[2.8585853000404313, 3.4828350000316277]	6.75	5.12	2.0	10hz	high_pain	45.7			sub-029	250	29	44.3	45.7	COM14	COM15	COM3	2024-03-29_10h54.53.743	001-EEG_SVR_Officel	2022.2.5	144.06502514820073		6.746000000000038	0_sub-pilot029_SVR_EEG_block1-2.protocol.csv	step31	4144	411.456	STIMULATE	45.7	45.6	45.7	45.7	45.6	31	345.695
339.782	0	169891	10/Hi	1	0	0	0	0	14.0	0.0	14.0	0.0						485.4324439000338	492.18976290000137	492.18976290000137	6.0	['6', 'return']	[2.8585853000404313, 3.4828350000316277]	6.75	5.12	2.0	10hz	high_pain	45.7			sub-029	250	29	44.3	45.7	COM14	COM15	COM3	2024-03-29_10h54.53.743	001-EEG_SVR_Officel	2022.2.5	144.06502514820073		5.123999999999967	0_sub-pilot029_SVR_EEG_block1-2.protocol.csv	step31	4144	411.456	STIMULATE	45.7	45.6	45.7	45.7	45.6	31	345.695
350.414	0	175207	wait	20	0	0	0	0	15.0	0.0	15.0	0.0						508.68472889997065	515.2963801999576	515.2963801999576	3.0	['3', 'return']	[2.6157178999856114, 3.3919825999764726]	6.61	6.48	3.0	40hz	low_pain	44.3			sub-029	250	29	44.3	45.7	COM14	COM15	COM3	2024-03-29_10h54.53.743	001-EEG_SVR_Officel	2022.2.5	144.06502514820073		11.382000000000005	0_sub-pilot029_SVR_EEG_block1-2.protocol.csv	step33	4390	435.882	STIMULATE	44.3	44.2	44.2	44.2	44.2	33	370.121
357.024	0	178512	40hz	9	0	0	0	0	15.0	0.0	15.0	0.0						508.68472889997065	515.2963801999576	515.2963801999576	3.0	['3', 'return']	[2.6157178999856114, 3.3919825999764726]	6.61	6.48	3.0	40hz	low_pain	44.3			sub-029	250	29	44.3	45.7	COM14	COM15	COM3	2024-03-29_10h54.53.743	001-EEG_SVR_Officel	2022.2.5	144.06502514820073		6.610000000000014	0_sub-pilot029_SVR_EEG_block1-2.protocol.csv	step33	4390	435.882	STIMULATE	44.3	44.2	44.2	44.2	44.2	33	370.121
364.258	0	182129	40/Lo	8	0	0	0	0	15.0	0.0	15.0	0.0						508.68472889997065	515.2963801999576	515.2963801999576	3.0	['3', 'return']	[2.6157178999856114, 3.3919825999764726]	6.61	6.48	3.0	40hz	low_pain	44.3			sub-029	250	29	44.3	45.7	COM14	COM15	COM3	2024-03-29_10h54.53.743	001-EEG_SVR_Officel	2022.2.5	144.06502514820073		6.4839999999999804	0_sub-pilot029_SVR_EEG_block1-2.protocol.csv	step33	4390	435.882	STIMULATE	44.3	44.2	44.2	44.2	44.2	33	370.121
445.088	0	222544	wait	20	1	0	1	0	0.0	0.0	0.0	0.0				p	1.0247045999858528	603.3559313999722	610.3497455000179	610.3497455000179	5.0	['5', 'return']	[2.1939073000103235, 2.70006950001698]	6.99	6.3	0.0	40hz	high_pain	45.7			sub-029	250	29	44.3	45.7	COM14	COM15	COM3	2024-03-29_10h54.53.743	001-EEG_SVR_Officel	2022.2.5	144.06502514820073		81.58000000000004	0_sub-pilot029_SVR_EEG_block1-2.protocol.csv	step35	5341	530.734	STIMULATE	45.9	45.6	45.6	45.6	45.6	35	464.98300000000006
452.074	0	226037	40hz	9	1	0	1	0	0.0	0.0	0.0	0.0				p	1.0247045999858528	603.3559313999722	610.3497455000179	610.3497455000179	5.0	['5', 'return']	[2.1939073000103235, 2.70006950001698]	6.99	6.3	0.0	40hz	high_pain	45.7			sub-029	250	29	44.3	45.7	COM14	COM15	COM3	2024-03-29_10h54.53.743	001-EEG_SVR_Officel	2022.2.5	144.06502514820073		6.98599999999999	0_sub-pilot029_SVR_EEG_block1-2.protocol.csv	step35	5341	530.734	STIMULATE	45.9	45.6	45.6	45.6	45.6	35	464.98300000000006
459.13	0	229565	40/Hi	7	1	0	1	0	0.0	0.0	0.0	0.0				p	1.0247045999858528	603.3559313999722	610.3497455000179	610.3497455000179	5.0	['5', 'return']	[2.1939073000103235, 2.70006950001698]	6.99	6.3	0.0	40hz	high_pain	45.7			sub-029	250	29	44.3	45.7	COM14	COM15	COM3	2024-03-29_10h54.53.743	001-EEG_SVR_Officel	2022.2.5	144.06502514820073		6.305999999999983	0_sub-pilot029_SVR_EEG_block1-2.protocol.csv	step35	5341	530.734	STIMULATE	45.9	45.6	45.6	45.6	45.6	35	464.98300000000006
467.796	0	233898	wait	20	1	0	1	0	1.0	0.0	1.0	0.0						626.0670983999735	633.0469056000002	633.0469056000002	4.0	['4', 'return']	[1.9533082999987528, 2.5855505000799894]	6.98	5.62	1.0	10hz	high_pain	45.7			sub-029	250	29	44.3	45.7	COM14	COM15	COM3	2024-03-29_10h54.53.743	001-EEG_SVR_Officel	2022.2.5	144.06502514820073		9.415999999999997	0_sub-pilot029_SVR_EEG_block1-2.protocol.csv	step37	5564	552.83	STIMULATE	45.7	45.6	45.6	45.7	45.7	37	487.07900000000006
474.772	0	237386	10hz	3	1	0	1	0	1.0	0.0	1.0	0.0						626.0670983999735	633.0469056000002	633.0469056000002	4.0	['4', 'return']	[1.9533082999987528, 2.5855505000799894]	6.98	5.62	1.0	10hz	high_pain	45.7			sub-029	250	29	44.3	45.7	COM14	COM15	COM3	2024-03-29_10h54.53.743	001-EEG_SVR_Officel	2022.2.5	144.06502514820073		6.975999999999999	0_sub-pilot029_SVR_EEG_block1-2.protocol.csv	step37	5564	552.83	STIMULATE	45.7	45.6	45.6	45.7	45.7	37	487.07900000000006
481.146	0	240573	10/Hi	1	1	0	1	0	1.0	0.0	1.0	0.0						626.0670983999735	633.0469056000002	633.0469056000002	4.0	['4', 'return']	[1.9533082999987528, 2.5855505000799894]	6.98	5.62	1.0	10hz	high_pain	45.7			sub-029	250	29	44.3	45.7	COM14	COM15	COM3	2024-03-29_10h54.53.743	001-EEG_SVR_Officel	2022.2.5	144.06502514820073		5.624000000000024	0_sub-pilot029_SVR_EEG_block1-2.protocol.csv	step37	5564	552.83	STIMULATE	45.7	45.6	45.6	45.7	45.7	37	487.07900000000006
490.382	0	245191	wait	20	1	0	1	0	2.0	0.0	2.0	0.0						648.6532015999546	654.9869685999583	654.9869685999583	6.0	['6', 'return']	[2.396719199954532, 3.1250832999357954]	6.33	6.18	2.0	20hz	high_pain	45.7			sub-029	250	29	44.3	45.7	COM14	COM15	COM3	2024-03-29_10h54.53.743	001-EEG_SVR_Officel	2022.2.5	144.06502514820073		9.98599999999999	0_sub-pilot029_SVR_EEG_block1-2.protocol.csv	step39	5791	575.356	STIMULATE	45.7	45.6	45.6	45.6	45.7	39	509.605
496.712	0	248356	20hz	6	1	0	1	0	2.0	0.0	2.0	0.0						648.6532015999546	654.9869685999583	654.9869685999583	6.0	['6', 'return']	[2.396719199954532, 3.1250832999357954]	6.33	6.18	2.0	20hz	high_pain	45.7			sub-029	250	29	44.3	45.7	COM14	COM15	COM3	2024-03-29_10h54.53.743	001-EEG_SVR_Officel	2022.2.5	144.06502514820073		6.329999999999984	0_sub-pilot029_SVR_EEG_block1-2.protocol.csv	step39	5791	575.356	STIMULATE	45.7	45.6	45.6	45.6	45.7	39	509.605
503.642	0	251821	20/Hi	4	1	0	1	0	2.0	0.0	2.0	0.0						648.6532015999546	654.9869685999583	654.9869685999583	6.0	['6', 'return']	[2.396719199954532, 3.1250832999357954]	6.33	6.18	2.0	20hz	high_pain	45.7			sub-029	250	29	44.3	45.7	COM14	COM15	COM3	2024-03-29_10h54.53.743	001-EEG_SVR_Officel	2022.2.5	144.06502514820073		6.180000000000007	0_sub-pilot029_SVR_EEG_block1-2.protocol.csv	step39	5791	575.356	STIMULATE	45.7	45.6	45.6	45.6	45.7	39	509.605
512.858	0	256428	wait	20	1	0	1	0	3.0	0.0	3.0	0.0						671.1281438999576	676.9202343999641	676.9202343999641	1.0	['1', 'return']	[3.3922141999937594, 4.719684000010602]	5.79	5.59	3.0	10hz	low_pain	44.3			sub-029	250	29	44.3	45.7	COM14	COM15	COM3	2024-03-29_10h54.53.743	001-EEG_SVR_Officel	2022.2.5	144.06502514820073		9.965999999999951	0_sub-pilot029_SVR_EEG_block1-2.protocol.csv	step41	6007	596.709	STIMULATE	44.2	44.2	44.2	44.2	44.2	41	530.958
518.646	0	259322	10hz	3	1	0	1	0	3.0	0.0	3.0	0.0						671.1281438999576	676.9202343999641	676.9202343999641	1.0	['1', 'return']	[3.3922141999937594, 4.719684000010602]	5.79	5.59	3.0	10hz	low_pain	44.3			sub-029	250	29	44.3	45.7	COM14	COM15	COM3	2024-03-29_10h54.53.743	001-EEG_SVR_Officel	2022.2.5	144.06502514820073		5.788000000000011	0_sub-pilot029_SVR_EEG_block1-2.protocol.csv	step41	6007	596.709	STIMULATE	44.2	44.2	44.2	44.2	44.2	41	530.958
524.984	0	262492	10/Lo	2	1	0	1	0	3.0	0.0	3.0	0.0						671.1281438999576	676.9202343999641	676.9202343999641	1.0	['1', 'return']	[3.3922141999937594, 4.719684000010602]	5.79	5.59	3.0	10hz	low_pain	44.3			sub-029	250	29	44.3	45.7	COM14	COM15	COM3	2024-03-29_10h54.53.743	001-EEG_SVR_Officel	2022.2.5	144.06502514820073		5.588000000000079	0_sub-pilot029_SVR_EEG_block1-2.protocol.csv	step41	6007	596.709	STIMULATE	44.2	44.2	44.2	44.2	44.2	41	530.958
536.39	0	268195	wait	20	1	0	1	0	4.0	0.0	4.0	0.0						694.6586096000392	702.3538339999504	702.3538339999504	1.0	['1', 'return']	[2.2862573999445885, 2.9436896999832243]	7.69	6.29	0.0	20hz	low_pain	44.3			sub-029	250	29	44.3	45.7	COM14	COM15	COM3	2024-03-29_10h54.53.743	001-EEG_SVR_Officel	2022.2.5	144.06502514820073		12.155999999999949	0_sub-pilot029_SVR_EEG_block1-2.protocol.csv	step43	6270	622.837	STIMULATE	44.3	44.2	44.2	44.2	44.3	43	557.086
544.08	0	272040	20hz	6	1	0	1	0	4.0	0.0	4.0	0.0						694.6586096000392	702.3538339999504	702.3538339999504	1.0	['1', 'return']	[2.2862573999445885, 2.9436896999832243]	7.69	6.29	0.0	20hz	low_pain	44.3			sub-029	250	29	44.3	45.7	COM14	COM15	COM3	2024-03-29_10h54.53.743	001-EEG_SVR_Officel	2022.2.5	144.06502514820073		7.690000000000055	0_sub-pilot029_SVR_EEG_block1-2.protocol.csv	step43	6270	622.837	STIMULATE	44.3	44.2	44.2	44.2	44.3	43	557.086
551.12	0	275560	20/Lo	5	1	0	1	0	4.0	0.0	4.0	0.0						694.6586096000392	702.3538339999504	702.3538339999504	1.0	['1', 'return']	[2.2862573999445885, 2.9436896999832243]	7.69	6.29	0.0	20hz	low_pain	44.3			sub-029	250	29	44.3	45.7	COM14	COM15	COM3	2024-03-29_10h54.53.743	001-EEG_SVR_Officel	2022.2.5	144.06502514820073		6.289999999999964	0_sub-pilot029_SVR_EEG_block1-2.protocol.csv	step43	6270	622.837	STIMULATE	44.3	44.2	44.2	44.2	44.3	43	557.086
560.044	0	280022	wait	20	1	0	1	0	5.0	0.0	5.0	0.0						718.3142368999543	725.3773079999955	725.3773079999955	3.0	['3', 'return']	[2.454773799981922, 3.11902410001494]	7.06	6.06	1.0	controle	high_pain	45.7			sub-029	250	29	44.3	45.7	COM14	COM15	COM3	2024-03-29_10h54.53.743	001-EEG_SVR_Officel	2022.2.5	144.06502514820073		9.673999999999978	0_sub-pilot029_SVR_EEG_block1-2.protocol.csv	step45	6500	645.618	STIMULATE	45.7	45.6	45.7	45.6	45.7	45	579.8670000000001
567.102	0	283551	CNhz	12	1	0	1	0	5.0	0.0	5.0	0.0						718.3142368999543	725.3773079999955	725.3773079999955	3.0	['3', 'return']	[2.454773799981922, 3.11902410001494]	7.06	6.06	1.0	controle	high_pain	45.7			sub-029	250	29	44.3	45.7	COM14	COM15	COM3	2024-03-29_10h54.53.743	001-EEG_SVR_Officel	2022.2.5	144.06502514820073		7.057999999999993	0_sub-pilot029_SVR_EEG_block1-2.protocol.csv	step45	6500	645.618	STIMULATE	45.7	45.6	45.7	45.6	45.7	45	579.8670000000001
573.914	0	286957	CN/Hi	10	1	0	1	0	5.0	0.0	5.0	0.0						718.3142368999543	725.3773079999955	725.3773079999955	3.0	['3', 'return']	[2.454773799981922, 3.11902410001494]	7.06	6.06	1.0	controle	high_pain	45.7			sub-029	250	29	44.3	45.7	COM14	COM15	COM3	2024-03-29_10h54.53.743	001-EEG_SVR_Officel	2022.2.5	144.06502514820073		6.062000000000012	0_sub-pilot029_SVR_EEG_block1-2.protocol.csv	step45	6500	645.618	STIMULATE	45.7	45.6	45.7	45.6	45.7	45	579.8670000000001
583.248	0	291624	wait	20	1	0	1	0	6.0	0.0	6.0	0.0						741.5184847000055	749.3387235000264	749.3387235000264	5.0	['5', 'return']	[2.429359400062822, 3.0137312000151724]	7.82	6.06	2.0	40hz	high_pain	45.7			sub-029	250	29	44.3	45.7	COM14	COM15	COM3	2024-03-29_10h54.53.743	001-EEG_SVR_Officel	2022.2.5	144.06502514820073		10.08400000000006	0_sub-pilot029_SVR_EEG_block1-2.protocol.csv	step47	6741	669.545	STIMULATE	45.7	45.6	45.6	45.7	45.7	47	603.794
591.064	0	295532	40hz	9	1	0	1	0	6.0	0.0	6.0	0.0						741.5184847000055	749.3387235000264	749.3387235000264	5.0	['5', 'return']	[2.429359400062822, 3.0137312000151724]	7.82	6.06	2.0	40hz	high_pain	45.7			sub-029	250	29	44.3	45.7	COM14	COM15	COM3	2024-03-29_10h54.53.743	001-EEG_SVR_Officel	2022.2.5	144.06502514820073		7.815999999999917	0_sub-pilot029_SVR_EEG_block1-2.protocol.csv	step47	6741	669.545	STIMULATE	45.7	45.6	45.6	45.7	45.7	47	603.794
597.874	0	298937	40/Hi	7	1	0	1	0	6.0	0.0	6.0	0.0						741.5184847000055	749.3387235000264	749.3387235000264	5.0	['5', 'return']	[2.429359400062822, 3.0137312000151724]	7.82	6.06	2.0	40hz	high_pain	45.7			sub-029	250	29	44.3	45.7	COM14	COM15	COM3	2024-03-29_10h54.53.743	001-EEG_SVR_Officel	2022.2.5	144.06502514820073		6.060000000000059	0_sub-pilot029_SVR_EEG_block1-2.protocol.csv	step47	6741	669.545	STIMULATE	45.7	45.6	45.6	45.7	45.7	47	603.794
607.098	0	303549	wait	20	1	0	1	0	7.0	0.0	7.0	0.0						765.369020299986	772.619909800007	772.619909800007	1.0	['1', 'return']	[6.14956930000335, 7.14958279998973]	7.25	5.54	3.0	controle	low_pain	44.3			sub-029	250	29	44.3	45.7	COM14	COM15	COM3	2024-03-29_10h54.53.743	001-EEG_SVR_Officel	2022.2.5	144.06502514820073		9.973999999999933	0_sub-pilot029_SVR_EEG_block1-2.protocol.csv	step49	6971	692.329	STIMULATE	44.2	44.2	44.2	44.2	44.2	49	626.578
614.344	0	307172	CNhz	12	1	0	1	0	7.0	0.0	7.0	0.0						765.369020299986	772.619909800007	772.619909800007	1.0	['1', 'return']	[6.14956930000335, 7.14958279998973]	7.25	5.54	3.0	controle	low_pain	44.3			sub-029	250	29	44.3	45.7	COM14	COM15	COM3	2024-03-29_10h54.53.743	001-EEG_SVR_Officel	2022.2.5	144.06502514820073		7.246000000000095	0_sub-pilot029_SVR_EEG_block1-2.protocol.csv	step49	6971	692.329	STIMULATE	44.2	44.2	44.2	44.2	44.2	49	626.578
620.634	0	310317	CN/Lo	11	1	0	1	0	7.0	0.0	7.0	0.0						765.369020299986	772.619909800007	772.619909800007	1.0	['1', 'return']	[6.14956930000335, 7.14958279998973]	7.25	5.54	3.0	controle	low_pain	44.3			sub-029	250	29	44.3	45.7	COM14	COM15	COM3	2024-03-29_10h54.53.743	001-EEG_SVR_Officel	2022.2.5	144.06502514820073		5.539999999999964	0_sub-pilot029_SVR_EEG_block1-2.protocol.csv	step49	6971	692.329	STIMULATE	44.2	44.2	44.2	44.2	44.2	49	626.578
634.518	0	317259	wait	20	1	0	1	0	8.0	0.0	8.0	0.0						792.7884710000362	800.3309413000243	800.3309413000243	4.0	['4', 'return']	[2.1736598000861704, 2.9575606000144035]	7.54	5.35	0.0	controle	high_pain	45.7			sub-029	250	29	44.3	45.7	COM14	COM15	COM3	2024-03-29_10h54.53.743	001-EEG_SVR_Officel	2022.2.5	144.06502514820073		14.634000000000015	0_sub-pilot029_SVR_EEG_block1-2.protocol.csv	step51	7249	719.931	STIMULATE	45.7	45.6	45.6	45.6	45.9	51	654.1800000000001
642.056	0	321028	CNhz	12	1	0	1	0	8.0	0.0	8.0	0.0						792.7884710000362	800.3309413000243	800.3309413000243	4.0	['4', 'return']	[2.1736598000861704, 2.9575606000144035]	7.54	5.35	0.0	controle	high_pain	45.7			sub-029	250	29	44.3	45.7	COM14	COM15	COM3	2024-03-29_10h54.53.743	001-EEG_SVR_Officel	2022.2.5	144.06502514820073		7.538000000000011	0_sub-pilot029_SVR_EEG_block1-2.protocol.csv	step51	7249	719.931	STIMULATE	45.7	45.6	45.6	45.6	45.9	51	654.1800000000001
648.158	0	324079	CN/Hi	10	1	0	1	0	8.0	0.0	8.0	0.0						792.7884710000362	800.3309413000243	800.3309413000243	4.0	['4', 'return']	[2.1736598000861704, 2.9575606000144035]	7.54	5.35	0.0	controle	high_pain	45.7			sub-029	250	29	44.3	45.7	COM14	COM15	COM3	2024-03-29_10h54.53.743	001-EEG_SVR_Officel	2022.2.5	144.06502514820073		5.351999999999975	0_sub-pilot029_SVR_EEG_block1-2.protocol.csv	step51	7249	719.931	STIMULATE	45.7	45.6	45.6	45.6	45.9	51	654.1800000000001
658.034	0	329017	wait	20	1	0	1	0	9.0	0.0	9.0	0.0						816.3054594999412	821.6619109000312	821.6619109000312	1.0	['1', 'return']	[5.645299499970861, 6.701131600071676]	5.35	6.26	1.0	20hz	low_pain	44.3			sub-029	250	29	44.3	45.7	COM14	COM15	COM3	2024-03-29_10h54.53.743	001-EEG_SVR_Officel	2022.2.5	144.06502514820073		10.625999999999976	0_sub-pilot029_SVR_EEG_block1-2.protocol.csv	step53	7473	742.098	STIMULATE	44.2	44.2	44.2	44.2	44.4	53	676.347
663.386	0	331693	20hz	6	1	0	1	0	9.0	0.0	9.0	0.0						816.3054594999412	821.6619109000312	821.6619109000312	1.0	['1', 'return']	[5.645299499970861, 6.701131600071676]	5.35	6.26	1.0	20hz	low_pain	44.3			sub-029	250	29	44.3	45.7	COM14	COM15	COM3	2024-03-29_10h54.53.743	001-EEG_SVR_Officel	2022.2.5	144.06502514820073		5.351999999999975	0_sub-pilot029_SVR_EEG_block1-2.protocol.csv	step53	7473	742.098	STIMULATE	44.2	44.2	44.2	44.2	44.4	53	676.347
670.396	0	335198	20/Lo	5	1	0	1	0	9.0	0.0	9.0	0.0						816.3054594999412	821.6619109000312	821.6619109000312	1.0	['1', 'return']	[5.645299499970861, 6.701131600071676]	5.35	6.26	1.0	20hz	low_pain	44.3			sub-029	250	29	44.3	45.7	COM14	COM15	COM3	2024-03-29_10h54.53.743	001-EEG_SVR_Officel	2022.2.5	144.06502514820073		6.259999999999991	0_sub-pilot029_SVR_EEG_block1-2.protocol.csv	step53	7473	742.098	STIMULATE	44.2	44.2	44.2	44.2	44.4	53	676.347
683.106	0	341553	wait	20	1	0	1	0	10.0	0.0	10.0	0.0						841.3775236000074	849.288931600051	849.288931600051	2.0	['2', 'return']	[2.376589999999851, 3.0881789000704885]	7.91	5.05	2.0	10hz	low_pain	44.3			sub-029	250	29	44.3	45.7	COM14	COM15	COM3	2024-03-29_10h54.53.743	001-EEG_SVR_Officel	2022.2.5	144.06502514820073		13.460000000000036	0_sub-pilot029_SVR_EEG_block1-2.protocol.csv	step55	7739	768.505	STIMULATE	44.3	44.2	44.2	44.2	44.2	55	702.754
691.014	0	345507	10hz	3	1	0	1	0	10.0	0.0	10.0	0.0						841.3775236000074	849.288931600051	849.288931600051	2.0	['2', 'return']	[2.376589999999851, 3.0881789000704885]	7.91	5.05	2.0	10hz	low_pain	44.3			sub-029	250	29	44.3	45.7	COM14	COM15	COM3	2024-03-29_10h54.53.743	001-EEG_SVR_Officel	2022.2.5	144.06502514820073		7.9080000000000155	0_sub-pilot029_SVR_EEG_block1-2.protocol.csv	step55	7739	768.505	STIMULATE	44.3	44.2	44.2	44.2	44.2	55	702.754
696.816	0	348408	10/Lo	2	1	0	1	0	10.0	0.0	10.0	0.0						841.3775236000074	849.288931600051	849.288931600051	2.0	['2', 'return']	[2.376589999999851, 3.0881789000704885]	7.91	5.05	2.0	10hz	low_pain	44.3			sub-029	250	29	44.3	45.7	COM14	COM15	COM3	2024-03-29_10h54.53.743	001-EEG_SVR_Officel	2022.2.5	144.06502514820073		5.052000000000021	0_sub-pilot029_SVR_EEG_block1-2.protocol.csv	step55	7739	768.505	STIMULATE	44.3	44.2	44.2	44.2	44.2	55	702.754
707.122	0	353561	wait	20	1	0	1	0	11.0	0.0	11.0	0.0						865.3941958999494	871.4996312999865	871.4996312999865	3.0	['3', 'return']	[4.669644300010987, 5.757572100032121]	6.1	6.43	3.0	controle	high_pain	45.7			sub-029	250	29	44.3	45.7	COM14	COM15	COM3	2024-03-29_10h54.53.743	001-EEG_SVR_Officel	2022.2.5	144.06502514820073		11.055999999999926	0_sub-pilot029_SVR_EEG_block1-2.protocol.csv	step57	7975	792.045	STIMULATE	45.7	45.6	45.6	45.6	45.7	57	726.294
713.224	0	356612	CNhz	12	1	0	1	0	11.0	0.0	11.0	0.0						865.3941958999494	871.4996312999865	871.4996312999865	3.0	['3', 'return']	[4.669644300010987, 5.757572100032121]	6.1	6.43	3.0	controle	high_pain	45.7			sub-029	250	29	44.3	45.7	COM14	COM15	COM3	2024-03-29_10h54.53.743	001-EEG_SVR_Officel	2022.2.5	144.06502514820073		6.102000000000089	0_sub-pilot029_SVR_EEG_block1-2.protocol.csv	step57	7975	792.045	STIMULATE	45.7	45.6	45.6	45.6	45.7	57	726.294
720.402	0	360201	CN/Hi	10	1	0	1	0	11.0	0.0	11.0	0.0						865.3941958999494	871.4996312999865	871.4996312999865	3.0	['3', 'return']	[4.669644300010987, 5.757572100032121]	6.1	6.43	3.0	controle	high_pain	45.7			sub-029	250	29	44.3	45.7	COM14	COM15	COM3	2024-03-29_10h54.53.743	001-EEG_SVR_Officel	2022.2.5	144.06502514820073		6.427999999999997	0_sub-pilot029_SVR_EEG_block1-2.protocol.csv	step57	7975	792.045	STIMULATE	45.7	45.6	45.6	45.6	45.7	57	726.294
732.008	0	366004	wait	20	1	0	1	0	12.0	0.0	12.0	0.0						890.2790770999854	897.7937665999634	897.7937665999634	1.0	['1', 'return']	[2.9117961999727413, 3.5910067999502644]	7.51	6.4	0.0	controle	low_pain	44.3			sub-029	250	29	44.3	45.7	COM14	COM15	COM3	2024-03-29_10h54.53.743	001-EEG_SVR_Officel	2022.2.5	144.06502514820073		12.355999999999995	0_sub-pilot029_SVR_EEG_block1-2.protocol.csv	step59	8238	818.428	STIMULATE	44.2	44.2	44.2	44.2	44.4	59	752.677
739.518	0	369759	CNhz	12	1	0	1	0	12.0	0.0	12.0	0.0						890.2790770999854	897.7937665999634	897.7937665999634	1.0	['1', 'return']	[2.9117961999727413, 3.5910067999502644]	7.51	6.4	0.0	controle	low_pain	44.3			sub-029	250	29	44.3	45.7	COM14	COM15	COM3	2024-03-29_10h54.53.743	001-EEG_SVR_Officel	2022.2.5	144.06502514820073		7.509999999999991	0_sub-pilot029_SVR_EEG_block1-2.protocol.csv	step59	8238	818.428	STIMULATE	44.2	44.2	44.2	44.2	44.4	59	752.677
746.67	0	373335	CN/Lo	11	1	0	1	0	12.0	0.0	12.0	0.0						890.2790770999854	897.7937665999634	897.7937665999634	1.0	['1', 'return']	[2.9117961999727413, 3.5910067999502644]	7.51	6.4	0.0	controle	low_pain	44.3			sub-029	250	29	44.3	45.7	COM14	COM15	COM3	2024-03-29_10h54.53.743	001-EEG_SVR_Officel	2022.2.5	144.06502514820073		6.40199999999993	0_sub-pilot029_SVR_EEG_block1-2.protocol.csv	step59	8238	818.428	STIMULATE	44.2	44.2	44.2	44.2	44.4	59	752.677
756.128	0	378064	wait	20	1	0	1	0	13.0	0.0	13.0	0.0						914.4004729000152	922.0603849999608	922.0603849999608	3.0	['3', 'return']	[2.4364165000151843, 2.987697400036268]	7.66	5.92	1.0	40hz	high_pain	45.7			sub-029	250	29	44.3	45.7	COM14	COM15	COM3	2024-03-29_10h54.53.743	001-EEG_SVR_Officel	2022.2.5	144.06502514820073		10.208000000000084	0_sub-pilot029_SVR_EEG_block1-2.protocol.csv	step61	8469	842.216	STIMULATE	45.7	45.6	45.7	45.6	45.7	61	776.465
763.786	0	381893	40hz	9	1	0	1	0	13.0	0.0	13.0	0.0						914.4004729000152	922.0603849999608	922.0603849999608	3.0	['3', 'return']	[2.4364165000151843, 2.987697400036268]	7.66	5.92	1.0	40hz	high_pain	45.7			sub-029	250	29	44.3	45.7	COM14	COM15	COM3	2024-03-29_10h54.53.743	001-EEG_SVR_Officel	2022.2.5	144.06502514820073		7.657999999999902	0_sub-pilot029_SVR_EEG_block1-2.protocol.csv	step61	8469	842.216	STIMULATE	45.7	45.6	45.7	45.6	45.7	61	776.465
770.458	0	385229	40/Hi	7	1	0	1	0	13.0	0.0	13.0	0.0						914.4004729000152	922.0603849999608	922.0603849999608	3.0	['3', 'return']	[2.4364165000151843, 2.987697400036268]	7.66	5.92	1.0	40hz	high_pain	45.7			sub-029	250	29	44.3	45.7	COM14	COM15	COM3	2024-03-29_10h54.53.743	001-EEG_SVR_Officel	2022.2.5	144.06502514820073		5.9220000000000255	0_sub-pilot029_SVR_EEG_block1-2.protocol.csv	step61	8469	842.216	STIMULATE	45.7	45.6	45.7	45.6	45.7	61	776.465
779.798	0	389899	wait	20	1	0	1	0	14.0	0.0	14.0	0.0						938.0695521000308	945.5535522999708	945.5535522999708	5.0	['5', 'return']	[2.4767577999737114, 3.0367823999840766]	7.48	6.04	2.0	controle	high_pain	45.7			sub-029	250	29	44.3	45.7	COM14	COM15	COM3	2024-03-29_10h54.53.743	001-EEG_SVR_Officel	2022.2.5	144.06502514820073		10.090000000000032	0_sub-pilot029_SVR_EEG_block1-2.protocol.csv	step63	8696	865.792	STIMULATE	45.7	45.6	45.6	45.7	45.7	63	800.041
787.276	0	393638	CNhz	12	1	0	1	0	14.0	0.0	14.0	0.0						938.0695521000308	945.5535522999708	945.5535522999708	5.0	['5', 'return']	[2.4767577999737114, 3.0367823999840766]	7.48	6.04	2.0	controle	high_pain	45.7			sub-029	250	29	44.3	45.7	COM14	COM15	COM3	2024-03-29_10h54.53.743	001-EEG_SVR_Officel	2022.2.5	144.06502514820073		7.477999999999952	0_sub-pilot029_SVR_EEG_block1-2.protocol.csv	step63	8696	865.792	STIMULATE	45.7	45.6	45.6	45.7	45.7	63	800.041
794.07	0	397035	CN/Hi	10	1	0	1	0	14.0	0.0	14.0	0.0						938.0695521000308	945.5535522999708	945.5535522999708	5.0	['5', 'return']	[2.4767577999737114, 3.0367823999840766]	7.48	6.04	2.0	controle	high_pain	45.7			sub-029	250	29	44.3	45.7	COM14	COM15	COM3	2024-03-29_10h54.53.743	001-EEG_SVR_Officel	2022.2.5	144.06502514820073		6.044000000000096	0_sub-pilot029_SVR_EEG_block1-2.protocol.csv	step63	8696	865.792	STIMULATE	45.7	45.6	45.6	45.7	45.7	63	800.041
803.342	0	401671	wait	20	1	0	1	0	15.0	0.0	15.0	0.0						961.6139510000356	968.7257506999886	968.7257506999886	1.0	['1', 'return']	[2.225832700030878, 2.8034992000320926]	7.11	6.38	3.0	20hz	low_pain	44.3			sub-029	250	29	44.3	45.7	COM14	COM15	COM3	2024-03-29_10h54.53.743	001-EEG_SVR_Officel	2022.2.5	144.06502514820073		10.021999999999935	0_sub-pilot029_SVR_EEG_block1-2.protocol.csv	step65	8920	889.269	STIMULATE	44.2	44.2	44.2	44.2	44.2	65	823.518
810.45	0	405225	20hz	6	1	0	1	0	15.0	0.0	15.0	0.0						961.6139510000356	968.7257506999886	968.7257506999886	1.0	['1', 'return']	[2.225832700030878, 2.8034992000320926]	7.11	6.38	3.0	20hz	low_pain	44.3			sub-029	250	29	44.3	45.7	COM14	COM15	COM3	2024-03-29_10h54.53.743	001-EEG_SVR_Officel	2022.2.5	144.06502514820073		7.108000000000061	0_sub-pilot029_SVR_EEG_block1-2.protocol.csv	step65	8920	889.269	STIMULATE	44.2	44.2	44.2	44.2	44.2	65	823.518
817.58	0	408790	20/Lo	5	1	0	1	0	15.0	0.0	15.0	0.0						961.6139510000356	968.7257506999886	968.7257506999886	1.0	['1', 'return']	[2.225832700030878, 2.8034992000320926]	7.11	6.38	3.0	20hz	low_pain	44.3			sub-029	250	29	44.3	45.7	COM14	COM15	COM3	2024-03-29_10h54.53.743	001-EEG_SVR_Officel	2022.2.5	144.06502514820073		6.3799999999999955	0_sub-pilot029_SVR_EEG_block1-2.protocol.csv	step65	8920	889.269	STIMULATE	44.2	44.2	44.2	44.2	44.2	65	823.518
888.636	0	444318	wait	20	2	0	2	0	0.0	0.0	0.0	0.0				p	1.746410600026138	1046.9086190999951	1052.2009136000415	1052.2009136000415	2.0	['2', 'return']	[2.7760928999632597, 3.3518233000067994]	5.29	6.2	0.0	controle	low_pain	44.3			sub-029	250	29	44.3	45.7	COM14	COM15	COM3	2024-03-29_10h54.53.743	001-EEG_SVR_Officel	2022.2.5	144.06502514820073		71.80599999999993	1_sub-pilot029_SVR_EEG_block3-4.protocol.csv	step3	722	72.065	STIMULATE	44.3	44.2	44.2	44.2	44.2	3	906.746
893.924	0	446962	CNhz	12	2	0	2	0	0.0	0.0	0.0	0.0				p	1.746410600026138	1046.9086190999951	1052.2009136000415	1052.2009136000415	2.0	['2', 'return']	[2.7760928999632597, 3.3518233000067994]	5.29	6.2	0.0	controle	low_pain	44.3			sub-029	250	29	44.3	45.7	COM14	COM15	COM3	2024-03-29_10h54.53.743	001-EEG_SVR_Officel	2022.2.5	144.06502514820073		5.288000000000011	1_sub-pilot029_SVR_EEG_block3-4.protocol.csv	step3	722	72.065	STIMULATE	44.3	44.2	44.2	44.2	44.2	3	906.746
900.874	0	450437	CN/Lo	11	2	0	2	0	0.0	0.0	0.0	0.0				p	1.746410600026138	1046.9086190999951	1052.2009136000415	1052.2009136000415	2.0	['2', 'return']	[2.7760928999632597, 3.3518233000067994]	5.29	6.2	0.0	controle	low_pain	44.3			sub-029	250	29	44.3	45.7	COM14	COM15	COM3	2024-03-29_10h54.53.743	001-EEG_SVR_Officel	2022.2.5	144.06502514820073		6.2000000000000455	1_sub-pilot029_SVR_EEG_block3-4.protocol.csv	step3	722	72.065	STIMULATE	44.3	44.2	44.2	44.2	44.2	3	906.746
910.298	0	455149	wait	20	2	0	2	0	1.0	0.0	1.0	0.0						1068.5709069999866	1076.0715538000222	1076.0715538000222	6.0	['6', 'return']	[2.369186299969442, 2.9369532000273466]	7.5	5.79	1.0	controle	high_pain	45.7			sub-029	250	29	44.3	45.7	COM14	COM15	COM3	2024-03-29_10h54.53.743	001-EEG_SVR_Officel	2022.2.5	144.06502514820073		10.173999999999978	1_sub-pilot029_SVR_EEG_block3-4.protocol.csv	step5	958	95.441	STIMULATE	45.7	45.6	45.6	45.7	45.7	5	930.1220000000001
917.796	0	458898	CNhz	12	2	0	2	0	1.0	0.0	1.0	0.0						1068.5709069999866	1076.0715538000222	1076.0715538000222	6.0	['6', 'return']	[2.369186299969442, 2.9369532000273466]	7.5	5.79	1.0	controle	high_pain	45.7			sub-029	250	29	44.3	45.7	COM14	COM15	COM3	2024-03-29_10h54.53.743	001-EEG_SVR_Officel	2022.2.5	144.06502514820073		7.498000000000047	1_sub-pilot029_SVR_EEG_block3-4.protocol.csv	step5	958	95.441	STIMULATE	45.7	45.6	45.6	45.7	45.7	5	930.1220000000001
924.336	0	462168	CN/Hi	10	2	0	2	0	1.0	0.0	1.0	0.0						1068.5709069999866	1076.0715538000222	1076.0715538000222	6.0	['6', 'return']	[2.369186299969442, 2.9369532000273466]	7.5	5.79	1.0	controle	high_pain	45.7			sub-029	250	29	44.3	45.7	COM14	COM15	COM3	2024-03-29_10h54.53.743	001-EEG_SVR_Officel	2022.2.5	144.06502514820073		5.789999999999964	1_sub-pilot029_SVR_EEG_block3-4.protocol.csv	step5	958	95.441	STIMULATE	45.7	45.6	45.6	45.7	45.7	5	930.1220000000001
933.754	0	466877	wait	20	2	0	2	0	2.0	0.0	2.0	0.0						1092.025093000033	1097.276912500034	1097.276912500034	2.0	['2', 'return']	[2.9410266999620944, 3.597667899914086]	5.25	5.94	2.0	20hz	low_pain	44.3			sub-029	250	29	44.3	45.7	COM14	COM15	COM3	2024-03-29_10h54.53.743	001-EEG_SVR_Officel	2022.2.5	144.06502514820073		10.168000000000006	1_sub-pilot029_SVR_EEG_block3-4.protocol.csv	step7	1174	116.849	STIMULATE	44.2	44.2	44.2	44.2	44.2	7	951.53
939.0	0	469500	20hz	6	2	0	2	0	2.0	0.0	2.0	0.0						1092.025093000033	1097.276912500034	1097.276912500034	2.0	['2', 'return']	[2.9410266999620944, 3.597667899914086]	5.25	5.94	2.0	20hz	low_pain	44.3			sub-029	250	29	44.3	45.7	COM14	COM15	COM3	2024-03-29_10h54.53.743	001-EEG_SVR_Officel	2022.2.5	144.06502514820073		5.245999999999981	1_sub-pilot029_SVR_EEG_block3-4.protocol.csv	step7	1174	116.849	STIMULATE	44.2	44.2	44.2	44.2	44.2	7	951.53
945.692	0	472846	20/Lo	5	2	0	2	0	2.0	0.0	2.0	0.0						1092.025093000033	1097.276912500034	1097.276912500034	2.0	['2', 'return']	[2.9410266999620944, 3.597667899914086]	5.25	5.94	2.0	20hz	low_pain	44.3			sub-029	250	29	44.3	45.7	COM14	COM15	COM3	2024-03-29_10h54.53.743	001-EEG_SVR_Officel	2022.2.5	144.06502514820073		5.942000000000007	1_sub-pilot029_SVR_EEG_block3-4.protocol.csv	step7	1174	116.849	STIMULATE	44.2	44.2	44.2	44.2	44.2	7	951.53
955.616	0	477808	wait	20	2	0	2	0	3.0	0.0	3.0	0.0						1113.8892691000365	1119.0501840000506	1119.0501840000506	6.0	['6', 'return']	[1.7677275000605732, 2.2960636999923736]	5.16	6.48	3.0	10hz	high_pain	45.7			sub-029	250	29	44.3	45.7	COM14	COM15	COM3	2024-03-29_10h54.53.743	001-EEG_SVR_Officel	2022.2.5	144.06502514820073		10.673999999999978	1_sub-pilot029_SVR_EEG_block3-4.protocol.csv	step9	1400	139.203	STIMULATE	45.7	45.6	45.6	45.7	45.7	9	973.884
960.772	0	480386	10hz	3	2	0	2	0	3.0	0.0	3.0	0.0						1113.8892691000365	1119.0501840000506	1119.0501840000506	6.0	['6', 'return']	[1.7677275000605732, 2.2960636999923736]	5.16	6.48	3.0	10hz	high_pain	45.7			sub-029	250	29	44.3	45.7	COM14	COM15	COM3	2024-03-29_10h54.53.743	001-EEG_SVR_Officel	2022.2.5	144.06502514820073		5.156000000000063	1_sub-pilot029_SVR_EEG_block3-4.protocol.csv	step9	1400	139.203	STIMULATE	45.7	45.6	45.6	45.7	45.7	9	973.884
968.006	0	484003	10/Hi	1	2	0	2	0	3.0	0.0	3.0	0.0						1113.8892691000365	1119.0501840000506	1119.0501840000506	6.0	['6', 'return']	[1.7677275000605732, 2.2960636999923736]	5.16	6.48	3.0	10hz	high_pain	45.7			sub-029	250	29	44.3	45.7	COM14	COM15	COM3	2024-03-29_10h54.53.743	001-EEG_SVR_Officel	2022.2.5	144.06502514820073		6.483999999999924	1_sub-pilot029_SVR_EEG_block3-4.protocol.csv	step9	1400	139.203	STIMULATE	45.7	45.6	45.6	45.7	45.7	9	973.884
976.092	0	488046	wait	20	2	0	2	0	4.0	0.0	4.0	0.0						1134.363464999944	1140.538119600038	1140.538119600038	5.0	['5', 'return']	[1.4398090000031516, 2.054264499922283]	6.17	5.07	0.0	40hz	high_pain	45.7			sub-029	250	29	44.3	45.7	COM14	COM15	COM3	2024-03-29_10h54.53.743	001-EEG_SVR_Officel	2022.2.5	144.06502514820073		8.836000000000013	1_sub-pilot029_SVR_EEG_block3-4.protocol.csv	step11	1601	159.119	STIMULATE	45.8	45.6	45.6	45.6	45.7	11	993.8000000000001
982.26	0	491130	40hz	9	2	0	2	0	4.0	0.0	4.0	0.0						1134.363464999944	1140.538119600038	1140.538119600038	5.0	['5', 'return']	[1.4398090000031516, 2.054264499922283]	6.17	5.07	0.0	40hz	high_pain	45.7			sub-029	250	29	44.3	45.7	COM14	COM15	COM3	2024-03-29_10h54.53.743	001-EEG_SVR_Officel	2022.2.5	144.06502514820073		6.168000000000006	1_sub-pilot029_SVR_EEG_block3-4.protocol.csv	step11	1601	159.119	STIMULATE	45.8	45.6	45.6	45.6	45.7	11	993.8000000000001
988.084	0	494042	40/Hi	7	2	0	2	0	4.0	0.0	4.0	0.0						1134.363464999944	1140.538119600038	1140.538119600038	5.0	['5', 'return']	[1.4398090000031516, 2.054264499922283]	6.17	5.07	0.0	40hz	high_pain	45.7			sub-029	250	29	44.3	45.7	COM14	COM15	COM3	2024-03-29_10h54.53.743	001-EEG_SVR_Officel	2022.2.5	144.06502514820073		5.073999999999955	1_sub-pilot029_SVR_EEG_block3-4.protocol.csv	step11	1601	159.119	STIMULATE	45.8	45.6	45.6	45.6	45.7	11	993.8000000000001
997.336	0	498668	wait	20	2	0	2	0	5.0	0.0	5.0	0.0						1155.6089066000422	1161.088741800049	1161.088741800049	4.0	['4', 'return']	[1.9596117999171838, 2.6248732999665663]	5.48	5.57	1.0	10hz	high_pain	45.7			sub-029	250	29	44.3	45.7	COM14	COM15	COM3	2024-03-29_10h54.53.743	001-EEG_SVR_Officel	2022.2.5	144.06502514820073		10.002000000000066	1_sub-pilot029_SVR_EEG_block3-4.protocol.csv	step13	1814	180.222	STIMULATE	45.7	45.6	45.6	45.7	45.7	13	1014.903
1002.812	0	501406	10hz	3	2	0	2	0	5.0	0.0	5.0	0.0						1155.6089066000422	1161.088741800049	1161.088741800049	4.0	['4', 'return']	[1.9596117999171838, 2.6248732999665663]	5.48	5.57	1.0	10hz	high_pain	45.7			sub-029	250	29	44.3	45.7	COM14	COM15	COM3	2024-03-29_10h54.53.743	001-EEG_SVR_Officel	2022.2.5	144.06502514820073		5.475999999999999	1_sub-pilot029_SVR_EEG_block3-4.protocol.csv	step13	1814	180.222	STIMULATE	45.7	45.6	45.6	45.7	45.7	13	1014.903
1009.13	0	504565	10/Hi	1	2	0	2	0	5.0	0.0	5.0	0.0						1155.6089066000422	1161.088741800049	1161.088741800049	4.0	['4', 'return']	[1.9596117999171838, 2.6248732999665663]	5.48	5.57	1.0	10hz	high_pain	45.7			sub-029	250	29	44.3	45.7	COM14	COM15	COM3	2024-03-29_10h54.53.743	001-EEG_SVR_Officel	2022.2.5	144.06502514820073		5.567999999999984	1_sub-pilot029_SVR_EEG_block3-4.protocol.csv	step13	1814	180.222	STIMULATE	45.7	45.6	45.6	45.7	45.7	13	1014.903
1018.456	0	509228	wait	20	2	0	2	0	6.0	0.0	6.0	0.0						1176.7294541000156	1182.744615499978	1182.744615499978	1.0	['1', 'return']	[2.008429400040768, 2.7681130000855774]	6.01	5.55	2.0	40hz	low_pain	44.3			sub-029	250	29	44.3	45.7	COM14	COM15	COM3	2024-03-29_10h54.53.743	001-EEG_SVR_Officel	2022.2.5	144.06502514820073		10.076000000000022	1_sub-pilot029_SVR_EEG_block3-4.protocol.csv	step15	2033	201.958	STIMULATE	44.2	44.2	44.2	44.2	44.2	15	1036.6390000000001
1024.466	0	512232	40hz	9	2	0	2	0	6.0	0.0	6.0	0.0						1176.7294541000156	1182.744615499978	1182.744615499978	1.0	['1', 'return']	[2.008429400040768, 2.7681130000855774]	6.01	5.55	2.0	40hz	low_pain	44.3			sub-029	250	29	44.3	45.7	COM14	COM15	COM3	2024-03-29_10h54.53.743	001-EEG_SVR_Officel	2022.2.5	144.06502514820073		6.009999999999877	1_sub-pilot029_SVR_EEG_block3-4.protocol.csv	step15	2033	201.958	STIMULATE	44.2	44.2	44.2	44.2	44.2	15	1036.6390000000001
1030.77	0	515385	40/Lo	8	2	0	2	0	6.0	0.0	6.0	0.0						1176.7294541000156	1182.744615499978	1182.744615499978	1.0	['1', 'return']	[2.008429400040768, 2.7681130000855774]	6.01	5.55	2.0	40hz	low_pain	44.3			sub-029	250	29	44.3	45.7	COM14	COM15	COM3	2024-03-29_10h54.53.743	001-EEG_SVR_Officel	2022.2.5	144.06502514820073		5.554000000000087	1_sub-pilot029_SVR_EEG_block3-4.protocol.csv	step15	2033	201.958	STIMULATE	44.2	44.2	44.2	44.2	44.2	15	1036.6390000000001
1040.258	0	520129	wait	20	2	0	2	0	7.0	0.0	7.0	0.0						1198.5307415999705	1206.4622261000331	1206.4622261000331	2.0	['2', 'return']	[2.129947099951096, 2.898480199975893]	7.93	6.3	3.0	10hz	low_pain	44.3			sub-029	250	29	44.3	45.7	COM14	COM15	COM3	2024-03-29_10h54.53.743	001-EEG_SVR_Officel	2022.2.5	144.06502514820073		10.238000000000056	1_sub-pilot029_SVR_EEG_block3-4.protocol.csv	step17	2280	226.485	STIMULATE	44.2	44.2	44.2	44.2	44.2	17	1061.1660000000002
1048.184	0	524092	10hz	3	2	0	2	0	7.0	0.0	7.0	0.0						1198.5307415999705	1206.4622261000331	1206.4622261000331	2.0	['2', 'return']	[2.129947099951096, 2.898480199975893]	7.93	6.3	3.0	10hz	low_pain	44.3			sub-029	250	29	44.3	45.7	COM14	COM15	COM3	2024-03-29_10h54.53.743	001-EEG_SVR_Officel	2022.2.5	144.06502514820073		7.925999999999931	1_sub-pilot029_SVR_EEG_block3-4.protocol.csv	step17	2280	226.485	STIMULATE	44.2	44.2	44.2	44.2	44.2	17	1061.1660000000002
1055.238	0	527619	10/Lo	2	2	0	2	0	7.0	0.0	7.0	0.0						1198.5307415999705	1206.4622261000331	1206.4622261000331	2.0	['2', 'return']	[2.129947099951096, 2.898480199975893]	7.93	6.3	3.0	10hz	low_pain	44.3			sub-029	250	29	44.3	45.7	COM14	COM15	COM3	2024-03-29_10h54.53.743	001-EEG_SVR_Officel	2022.2.5	144.06502514820073		6.304000000000087	1_sub-pilot029_SVR_EEG_block3-4.protocol.csv	step17	2280	226.485	STIMULATE	44.2	44.2	44.2	44.2	44.2	17	1061.1660000000002
1064.106	0	532053	wait	20	2	0	2	0	8.0	0.0	8.0	0.0						1222.3807805000106	1229.3555315999547	1229.3555315999547	1.0	['1', 'return']	[2.5743024999974295, 3.3998912000097334]	6.97	5.43	0.0	10hz	low_pain	44.3			sub-029	250	29	44.3	45.7	COM14	COM15	COM3	2024-03-29_10h54.53.743	001-EEG_SVR_Officel	2022.2.5	144.06502514820073		9.617999999999938	1_sub-pilot029_SVR_EEG_block3-4.protocol.csv	step19	2502	248.422	STIMULATE	44.3	44.2	44.2	44.2	44.3	19	1083.103
1071.076	0	535538	10hz	3	2	0	2	0	8.0	0.0	8.0	0.0						1222.3807805000106	1229.3555315999547	1229.3555315999547	1.0	['1', 'return']	[2.5743024999974295, 3.3998912000097334]	6.97	5.43	0.0	10hz	low_pain	44.3			sub-029	250	29	44.3	45.7	COM14	COM15	COM3	2024-03-29_10h54.53.743	001-EEG_SVR_Officel	2022.2.5	144.06502514820073		6.970000000000027	1_sub-pilot029_SVR_EEG_block3-4.protocol.csv	step19	2502	248.422	STIMULATE	44.3	44.2	44.2	44.2	44.3	19	1083.103
1077.256	0	538628	10/Lo	2	2	0	2	0	8.0	0.0	8.0	0.0						1222.3807805000106	1229.3555315999547	1229.3555315999547	1.0	['1', 'return']	[2.5743024999974295, 3.3998912000097334]	6.97	5.43	0.0	10hz	low_pain	44.3			sub-029	250	29	44.3	45.7	COM14	COM15	COM3	2024-03-29_10h54.53.743	001-EEG_SVR_Officel	2022.2.5	144.06502514820073		5.430000000000064	1_sub-pilot029_SVR_EEG_block3-4.protocol.csv	step19	2502	248.422	STIMULATE	44.3	44.2	44.2	44.2	44.3	19	1083.103
1087.5	0	543750	wait	20	2	0	2	0	9.0	0.0	9.0	0.0						1245.7729789000005	1252.9883938999849	1252.9883938999849	3.0	['3', 'return']	[2.620284300064668, 3.3318388999905437]	7.21	6.44	1.0	20hz	high_pain	45.7			sub-029	250	29	44.3	45.7	COM14	COM15	COM3	2024-03-29_10h54.53.743	001-EEG_SVR_Officel	2022.2.5	144.06502514820073		10.993999999999915	1_sub-pilot029_SVR_EEG_block3-4.protocol.csv	step21	2750	273.038	STIMULATE	45.7	45.6	45.6	45.6	45.6	21	1107.719
1094.712	0	547356	20hz	6	2	0	2	0	9.0	0.0	9.0	0.0						1245.7729789000005	1252.9883938999849	1252.9883938999849	3.0	['3', 'return']	[2.620284300064668, 3.3318388999905437]	7.21	6.44	1.0	20hz	high_pain	45.7			sub-029	250	29	44.3	45.7	COM14	COM15	COM3	2024-03-29_10h54.53.743	001-EEG_SVR_Officel	2022.2.5	144.06502514820073		7.211999999999989	1_sub-pilot029_SVR_EEG_block3-4.protocol.csv	step21	2750	273.038	STIMULATE	45.7	45.6	45.6	45.6	45.6	21	1107.719
1101.904	0	550952	20/Hi	4	2	0	2	0	9.0	0.0	9.0	0.0						1245.7729789000005	1252.9883938999849	1252.9883938999849	3.0	['3', 'return']	[2.620284300064668, 3.3318388999905437]	7.21	6.44	1.0	20hz	high_pain	45.7			sub-029	250	29	44.3	45.7	COM14	COM15	COM3	2024-03-29_10h54.53.743	001-EEG_SVR_Officel	2022.2.5	144.06502514820073		6.442000000000007	1_sub-pilot029_SVR_EEG_block3-4.protocol.csv	step21	2750	273.038	STIMULATE	45.7	45.6	45.6	45.6	45.6	21	1107.719
1111.064	0	555532	wait	20	2	0	2	0	10.0	0.0	10.0	0.0						1269.337659599958	1276.9079122999683	1276.9079122999683	3.0	['3', 'return']	[1.974128199974075, 2.6767574000405148]	7.57	5.55	2.0	controle	low_pain	44.3			sub-029	250	29	44.3	45.7	COM14	COM15	COM3	2024-03-29_10h54.53.743	001-EEG_SVR_Officel	2022.2.5	144.06502514820073		9.910000000000082	1_sub-pilot029_SVR_EEG_block3-4.protocol.csv	step23	2983	296.12	STIMULATE	44.2	44.2	44.2	44.2	44.2	23	1130.801
1118.63	0	559315	CNhz	12	2	0	2	0	10.0	0.0	10.0	0.0						1269.337659599958	1276.9079122999683	1276.9079122999683	3.0	['3', 'return']	[1.974128199974075, 2.6767574000405148]	7.57	5.55	2.0	controle	low_pain	44.3			sub-029	250	29	44.3	45.7	COM14	COM15	COM3	2024-03-29_10h54.53.743	001-EEG_SVR_Officel	2022.2.5	144.06502514820073		7.566000000000031	1_sub-pilot029_SVR_EEG_block3-4.protocol.csv	step23	2983	296.12	STIMULATE	44.2	44.2	44.2	44.2	44.2	23	1130.801
1124.934	0	562467	CN/Lo	11	2	0	2	0	10.0	0.0	10.0	0.0						1269.337659599958	1276.9079122999683	1276.9079122999683	3.0	['3', 'return']	[1.974128199974075, 2.6767574000405148]	7.57	5.55	2.0	controle	low_pain	44.3			sub-029	250	29	44.3	45.7	COM14	COM15	COM3	2024-03-29_10h54.53.743	001-EEG_SVR_Officel	2022.2.5	144.06502514820073		5.55399999999986	1_sub-pilot029_SVR_EEG_block3-4.protocol.csv	step23	2983	296.12	STIMULATE	44.2	44.2	44.2	44.2	44.2	23	1130.801
1134.33	0	567165	wait	20	2	0	2	0	11.0	0.0	11.0	0.0						1292.6042876000283	1299.077312999987	1299.077312999987	5.0	['5', 'return']	[2.17249999998603, 2.947017699945718]	6.47	5.5	3.0	40hz	high_pain	45.7			sub-029	250	29	44.3	45.7	COM14	COM15	COM3	2024-03-29_10h54.53.743	001-EEG_SVR_Officel	2022.2.5	144.06502514820073		10.145999999999958	1_sub-pilot029_SVR_EEG_block3-4.protocol.csv	step25	3206	318.225	STIMULATE	45.7	45.6	45.7	45.7	45.7	25	1152.906
1140.798	0	570399	40hz	9	2	0	2	0	11.0	0.0	11.0	0.0						1292.6042876000283	1299.077312999987	1299.077312999987	5.0	['5', 'return']	[2.17249999998603, 2.947017699945718]	6.47	5.5	3.0	40hz	high_pain	45.7			sub-029	250	29	44.3	45.7	COM14	COM15	COM3	2024-03-29_10h54.53.743	001-EEG_SVR_Officel	2022.2.5	144.06502514820073		6.468000000000075	1_sub-pilot029_SVR_EEG_block3-4.protocol.csv	step25	3206	318.225	STIMULATE	45.7	45.6	45.7	45.7	45.7	25	1152.906
1147.048	0	573524	40/Hi	7	2	0	2	0	11.0	0.0	11.0	0.0						1292.6042876000283	1299.077312999987	1299.077312999987	5.0	['5', 'return']	[2.17249999998603, 2.947017699945718]	6.47	5.5	3.0	40hz	high_pain	45.7			sub-029	250	29	44.3	45.7	COM14	COM15	COM3	2024-03-29_10h54.53.743	001-EEG_SVR_Officel	2022.2.5	144.06502514820073		5.5	1_sub-pilot029_SVR_EEG_block3-4.protocol.csv	step25	3206	318.225	STIMULATE	45.7	45.6	45.7	45.7	45.7	25	1152.906
1156.77	0	578385	wait	20	2	0	2	0	12.0	0.0	12.0	0.0						1315.0445009999676	1320.5588909999933	1320.5588909999933	1.0	['1', 'return']	[3.288737199967727, 4.529341600020416]	5.51	6.08	0.0	40hz	low_pain	44.3			sub-029	250	29	44.3	45.7	COM14	COM15	COM3	2024-03-29_10h54.53.743	001-EEG_SVR_Officel	2022.2.5	144.06502514820073		10.47199999999998	1_sub-pilot029_SVR_EEG_block3-4.protocol.csv	step27	3428	340.299	STIMULATE	44.2	44.2	44.2	44.2	44.3	27	1174.98
1162.28	0	581140	40hz	9	2	0	2	0	12.0	0.0	12.0	0.0						1315.0445009999676	1320.5588909999933	1320.5588909999933	1.0	['1', 'return']	[3.288737199967727, 4.529341600020416]	5.51	6.08	0.0	40hz	low_pain	44.3			sub-029	250	29	44.3	45.7	COM14	COM15	COM3	2024-03-29_10h54.53.743	001-EEG_SVR_Officel	2022.2.5	144.06502514820073		5.509999999999991	1_sub-pilot029_SVR_EEG_block3-4.protocol.csv	step27	3428	340.299	STIMULATE	44.2	44.2	44.2	44.2	44.3	27	1174.98
1169.112	0	584556	40/Lo	8	2	0	2	0	12.0	0.0	12.0	0.0						1315.0445009999676	1320.5588909999933	1320.5588909999933	1.0	['1', 'return']	[3.288737199967727, 4.529341600020416]	5.51	6.08	0.0	40hz	low_pain	44.3			sub-029	250	29	44.3	45.7	COM14	COM15	COM3	2024-03-29_10h54.53.743	001-EEG_SVR_Officel	2022.2.5	144.06502514820073		6.082000000000107	1_sub-pilot029_SVR_EEG_block3-4.protocol.csv	step27	3428	340.299	STIMULATE	44.2	44.2	44.2	44.2	44.3	27	1174.98
1179.834	0	589917	wait	20	2	0	2	0	13.0	0.0	13.0	0.0						1338.109685500036	1343.9016802000117	1343.9016802000117	4.0	['4', 'return']	[2.2426718999631703, 2.963765099993907]	5.79	6.48	1.0	40hz	high_pain	45.7			sub-029	250	29	44.3	45.7	COM14	COM15	COM3	2024-03-29_10h54.53.743	001-EEG_SVR_Officel	2022.2.5	144.06502514820073		11.47199999999998	1_sub-pilot029_SVR_EEG_block3-4.protocol.csv	step29	3667	363.92	STIMULATE	45.7	45.6	45.6	45.6	45.7	29	1198.601
1185.624	0	592812	40hz	9	2	0	2	0	13.0	0.0	13.0	0.0						1338.109685500036	1343.9016802000117	1343.9016802000117	4.0	['4', 'return']	[2.2426718999631703, 2.963765099993907]	5.79	6.48	1.0	40hz	high_pain	45.7			sub-029	250	29	44.3	45.7	COM14	COM15	COM3	2024-03-29_10h54.53.743	001-EEG_SVR_Officel	2022.2.5	144.06502514820073		5.789999999999964	1_sub-pilot029_SVR_EEG_block3-4.protocol.csv	step29	3667	363.92	STIMULATE	45.7	45.6	45.6	45.6	45.7	29	1198.601
1192.858	0	596429	40/Hi	7	2	0	2	0	13.0	0.0	13.0	0.0						1338.109685500036	1343.9016802000117	1343.9016802000117	4.0	['4', 'return']	[2.2426718999631703, 2.963765099993907]	5.79	6.48	1.0	40hz	high_pain	45.7			sub-029	250	29	44.3	45.7	COM14	COM15	COM3	2024-03-29_10h54.53.743	001-EEG_SVR_Officel	2022.2.5	144.06502514820073		6.483999999999924	1_sub-pilot029_SVR_EEG_block3-4.protocol.csv	step29	3667	363.92	STIMULATE	45.7	45.6	45.6	45.6	45.7	29	1198.601
1201.61	0	600805	wait	20	2	0	2	0	14.0	0.0	14.0	0.0						1359.8835581999738	1365.7656145000365	1365.7656145000365	4.0	['4', 'return']	[2.4024060000665486, 3.5075498999794945]	5.88	5.62	2.0	20hz	high_pain	45.7			sub-029	250	29	44.3	45.7	COM14	COM15	COM3	2024-03-29_10h54.53.743	001-EEG_SVR_Officel	2022.2.5	144.06502514820073		9.501999999999953	1_sub-pilot029_SVR_EEG_block3-4.protocol.csv	step31	3880	385.04	STIMULATE	45.7	45.6	45.7	45.7	45.7	31	1219.721
1207.486	0	603743	20hz	6	2	0	2	0	14.0	0.0	14.0	0.0						1359.8835581999738	1365.7656145000365	1365.7656145000365	4.0	['4', 'return']	[2.4024060000665486, 3.5075498999794945]	5.88	5.62	2.0	20hz	high_pain	45.7			sub-029	250	29	44.3	45.7	COM14	COM15	COM3	2024-03-29_10h54.53.743	001-EEG_SVR_Officel	2022.2.5	144.06502514820073		5.876000000000204	1_sub-pilot029_SVR_EEG_block3-4.protocol.csv	step31	3880	385.04	STIMULATE	45.7	45.6	45.7	45.7	45.7	31	1219.721
1213.86	0	606930	20/Hi	4	2	0	2	0	14.0	0.0	14.0	0.0						1359.8835581999738	1365.7656145000365	1365.7656145000365	4.0	['4', 'return']	[2.4024060000665486, 3.5075498999794945]	5.88	5.62	2.0	20hz	high_pain	45.7			sub-029	250	29	44.3	45.7	COM14	COM15	COM3	2024-03-29_10h54.53.743	001-EEG_SVR_Officel	2022.2.5	144.06502514820073		5.623999999999796	1_sub-pilot029_SVR_EEG_block3-4.protocol.csv	step31	3880	385.04	STIMULATE	45.7	45.6	45.7	45.7	45.7	31	1219.721
1224.022	0	612011	wait	20	2	0	2	0	15.0	0.0	15.0	0.0						1382.295414100052	1388.4905798999823	1388.4905798999823	3.0	['3', 'return']	[2.5582908999640495, 3.1905374999623746]	6.19	5.36	3.0	40hz	low_pain	44.3			sub-029	250	29	44.3	45.7	COM14	COM15	COM3	2024-03-29_10h54.53.743	001-EEG_SVR_Officel	2022.2.5	144.06502514820073		10.912000000000035	1_sub-pilot029_SVR_EEG_block3-4.protocol.csv	step33	4107	407.524	STIMULATE	44.2	44.2	44.2	44.2	44.3	33	1242.205
1230.21	0	615105	40hz	9	2	0	2	0	15.0	0.0	15.0	0.0						1382.295414100052	1388.4905798999823	1388.4905798999823	3.0	['3', 'return']	[2.5582908999640495, 3.1905374999623746]	6.19	5.36	3.0	40hz	low_pain	44.3			sub-029	250	29	44.3	45.7	COM14	COM15	COM3	2024-03-29_10h54.53.743	001-EEG_SVR_Officel	2022.2.5	144.06502514820073		6.188000000000102	1_sub-pilot029_SVR_EEG_block3-4.protocol.csv	step33	4107	407.524	STIMULATE	44.2	44.2	44.2	44.2	44.3	33	1242.205
1236.32	0	618160	40/Lo	8	2	0	2	0	15.0	0.0	15.0	0.0						1382.295414100052	1388.4905798999823	1388.4905798999823	3.0	['3', 'return']	[2.5582908999640495, 3.1905374999623746]	6.19	5.36	3.0	40hz	low_pain	44.3			sub-029	250	29	44.3	45.7	COM14	COM15	COM3	2024-03-29_10h54.53.743	001-EEG_SVR_Officel	2022.2.5	144.06502514820073		5.3599999999999	1_sub-pilot029_SVR_EEG_block3-4.protocol.csv	step33	4107	407.524	STIMULATE	44.2	44.2	44.2	44.2	44.3	33	1242.205
1306.28	0	653140	wait	20	3	0	3	0	0.0	0.0	0.0	0.0				p	0.4571235999464988	1464.5550152000503	1471.2855114999693	1471.2855114999693	3.0	['3', 'return']	[2.3311943999724463, 2.8528748999815434]	6.73	5.76	0.0	10hz	high_pain	45.7			sub-029	250	29	44.3	45.7	COM14	COM15	COM3	2024-03-29_10h54.53.743	001-EEG_SVR_Officel	2022.2.5	144.06502514820073		70.71000000000004	1_sub-pilot029_SVR_EEG_block3-4.protocol.csv	step35	4940	490.669	STIMULATE	45.8	45.6	45.6	45.6	45.7	35	1325.3690000000001
1313.006	0	656503	10hz	3	3	0	3	0	0.0	0.0	0.0	0.0				p	0.4571235999464988	1464.5550152000503	1471.2855114999693	1471.2855114999693	3.0	['3', 'return']	[2.3311943999724463, 2.8528748999815434]	6.73	5.76	0.0	10hz	high_pain	45.7			sub-029	250	29	44.3	45.7	COM14	COM15	COM3	2024-03-29_10h54.53.743	001-EEG_SVR_Officel	2022.2.5	144.06502514820073		6.726000000000113	1_sub-pilot029_SVR_EEG_block3-4.protocol.csv	step35	4940	490.669	STIMULATE	45.8	45.6	45.6	45.6	45.7	35	1325.3690000000001
1319.518	0	659759	10/Hi	1	3	0	3	0	0.0	0.0	0.0	0.0				p	0.4571235999464988	1464.5550152000503	1471.2855114999693	1471.2855114999693	3.0	['3', 'return']	[2.3311943999724463, 2.8528748999815434]	6.73	5.76	0.0	10hz	high_pain	45.7			sub-029	250	29	44.3	45.7	COM14	COM15	COM3	2024-03-29_10h54.53.743	001-EEG_SVR_Officel	2022.2.5	144.06502514820073		5.761999999999944	1_sub-pilot029_SVR_EEG_block3-4.protocol.csv	step35	4940	490.669	STIMULATE	45.8	45.6	45.6	45.6	45.7	35	1325.3690000000001
1328.88	0	664440	wait	20	3	0	3	0	1.0	0.0	1.0	0.0						1487.1552661999594	1494.6079713000215	1494.6079713000215	3.0	['3', 'return']	[2.0573468999937177, 2.6181575000518933]	7.45	5.41	1.0	40hz	low_pain	44.3			sub-029	250	29	44.3	45.7	COM14	COM15	COM3	2024-03-29_10h54.53.743	001-EEG_SVR_Officel	2022.2.5	144.06502514820073		10.11200000000008	1_sub-pilot029_SVR_EEG_block3-4.protocol.csv	step37	5172	513.661	STIMULATE	44.2	44.2	44.2	44.2	44.2	37	1348.3609999999999
1336.328	0	668164	40hz	9	3	0	3	0	1.0	0.0	1.0	0.0						1487.1552661999594	1494.6079713000215	1494.6079713000215	3.0	['3', 'return']	[2.0573468999937177, 2.6181575000518933]	7.45	5.41	1.0	40hz	low_pain	44.3			sub-029	250	29	44.3	45.7	COM14	COM15	COM3	2024-03-29_10h54.53.743	001-EEG_SVR_Officel	2022.2.5	144.06502514820073		7.447999999999865	1_sub-pilot029_SVR_EEG_block3-4.protocol.csv	step37	5172	513.661	STIMULATE	44.2	44.2	44.2	44.2	44.2	37	1348.3609999999999
1342.486	0	671243	40/Lo	8	3	0	3	0	1.0	0.0	1.0	0.0						1487.1552661999594	1494.6079713000215	1494.6079713000215	3.0	['3', 'return']	[2.0573468999937177, 2.6181575000518933]	7.45	5.41	1.0	40hz	low_pain	44.3			sub-029	250	29	44.3	45.7	COM14	COM15	COM3	2024-03-29_10h54.53.743	001-EEG_SVR_Officel	2022.2.5	144.06502514820073		5.408000000000129	1_sub-pilot029_SVR_EEG_block3-4.protocol.csv	step37	5172	513.661	STIMULATE	44.2	44.2	44.2	44.2	44.2	37	1348.3609999999999
1351.964	0	675982	wait	20	3	0	3	0	2.0	0.0	2.0	0.0						1510.2409327999922	1515.602863700013	1515.602863700013	2.0	['2', 'return']	[2.3733606999740005, 3.05405699997209]	5.36	5.62	2.0	10hz	low_pain	44.3			sub-029	250	29	44.3	45.7	COM14	COM15	COM3	2024-03-29_10h54.53.743	001-EEG_SVR_Officel	2022.2.5	144.06502514820073		10.227999999999838	1_sub-pilot029_SVR_EEG_block3-4.protocol.csv	step39	5386	534.861	STIMULATE	44.2	44.2	44.2	44.2	44.2	39	1369.5610000000001
1357.324	0	678662	10hz	3	3	0	3	0	2.0	0.0	2.0	0.0						1510.2409327999922	1515.602863700013	1515.602863700013	2.0	['2', 'return']	[2.3733606999740005, 3.05405699997209]	5.36	5.62	2.0	10hz	low_pain	44.3			sub-029	250	29	44.3	45.7	COM14	COM15	COM3	2024-03-29_10h54.53.743	001-EEG_SVR_Officel	2022.2.5	144.06502514820073		5.360000000000127	1_sub-pilot029_SVR_EEG_block3-4.protocol.csv	step39	5386	534.861	STIMULATE	44.2	44.2	44.2	44.2	44.2	39	1369.5610000000001
1363.696	0	681848	10/Lo	2	3	0	3	0	2.0	0.0	2.0	0.0						1510.2409327999922	1515.602863700013	1515.602863700013	2.0	['2', 'return']	[2.3733606999740005, 3.05405699997209]	5.36	5.62	2.0	10hz	low_pain	44.3			sub-029	250	29	44.3	45.7	COM14	COM15	COM3	2024-03-29_10h54.53.743	001-EEG_SVR_Officel	2022.2.5	144.06502514820073		5.621999999999844	1_sub-pilot029_SVR_EEG_block3-4.protocol.csv	step39	5386	534.861	STIMULATE	44.2	44.2	44.2	44.2	44.2	39	1369.5610000000001
1373.398	0	686699	wait	20	3	0	3	0	3.0	0.0	3.0	0.0						1531.6740794000216	1539.0869424999692	1539.0869424999692	4.0	['4', 'return']	[2.3079032000387087, 3.0129631999880075]	7.41	5.92	3.0	20hz	high_pain	45.7			sub-029	250	29	44.3	45.7	COM14	COM15	COM3	2024-03-29_10h54.53.743	001-EEG_SVR_Officel	2022.2.5	144.06502514820073		10.451999999999998	1_sub-pilot029_SVR_EEG_block3-4.protocol.csv	step41	5626	558.611	STIMULATE	45.7	45.6	45.6	45.6	45.6	41	1393.3110000000001
1380.804	0	690402	20hz	6	3	0	3	0	3.0	0.0	3.0	0.0						1531.6740794000216	1539.0869424999692	1539.0869424999692	4.0	['4', 'return']	[2.3079032000387087, 3.0129631999880075]	7.41	5.92	3.0	20hz	high_pain	45.7			sub-029	250	29	44.3	45.7	COM14	COM15	COM3	2024-03-29_10h54.53.743	001-EEG_SVR_Officel	2022.2.5	144.06502514820073		7.406000000000176	1_sub-pilot029_SVR_EEG_block3-4.protocol.csv	step41	5626	558.611	STIMULATE	45.7	45.6	45.6	45.6	45.6	41	1393.3110000000001
1387.478	0	693739	20/Hi	4	3	0	3	0	3.0	0.0	3.0	0.0						1531.6740794000216	1539.0869424999692	1539.0869424999692	4.0	['4', 'return']	[2.3079032000387087, 3.0129631999880075]	7.41	5.92	3.0	20hz	high_pain	45.7			sub-029	250	29	44.3	45.7	COM14	COM15	COM3	2024-03-29_10h54.53.743	001-EEG_SVR_Officel	2022.2.5	144.06502514820073		5.923999999999978	1_sub-pilot029_SVR_EEG_block3-4.protocol.csv	step41	5626	558.611	STIMULATE	45.7	45.6	45.6	45.6	45.6	41	1393.3110000000001
1396.838	0	698419	wait	20	3	0	3	0	4.0	0.0	4.0	0.0						1555.1143280999968	1560.3855366000207	1560.3855366000207	5.0	['5', 'return']	[2.3419336999068037, 2.814733500010334]	5.27	5.22	0.0	controle	high_pain	45.7			sub-029	250	29	44.3	45.7	COM14	COM15	COM3	2024-03-29_10h54.53.743	001-EEG_SVR_Officel	2022.2.5	144.06502514820073		10.1099999999999	1_sub-pilot029_SVR_EEG_block3-4.protocol.csv	step43	5834	579.278	STIMULATE	45.7	45.6	45.6	45.6	45.7	43	1413.978
1402.106	0	701053	CNhz	12	3	0	3	0	4.0	0.0	4.0	0.0						1555.1143280999968	1560.3855366000207	1560.3855366000207	5.0	['5', 'return']	[2.3419336999068037, 2.814733500010334]	5.27	5.22	0.0	controle	high_pain	45.7			sub-029	250	29	44.3	45.7	COM14	COM15	COM3	2024-03-29_10h54.53.743	001-EEG_SVR_Officel	2022.2.5	144.06502514820073		5.268000000000029	1_sub-pilot029_SVR_EEG_block3-4.protocol.csv	step43	5834	579.278	STIMULATE	45.7	45.6	45.6	45.6	45.7	43	1413.978
1408.076	0	704038	CN/Hi	10	3	0	3	0	4.0	0.0	4.0	0.0						1555.1143280999968	1560.3855366000207	1560.3855366000207	5.0	['5', 'return']	[2.3419336999068037, 2.814733500010334]	5.27	5.22	0.0	controle	high_pain	45.7			sub-029	250	29	44.3	45.7	COM14	COM15	COM3	2024-03-29_10h54.53.743	001-EEG_SVR_Officel	2022.2.5	144.06502514820073		5.220000000000027	1_sub-pilot029_SVR_EEG_block3-4.protocol.csv	step43	5834	579.278	STIMULATE	45.7	45.6	45.6	45.6	45.7	43	1413.978
1417.946	0	708973	wait	20	3	0	3	0	5.0	0.0	5.0	0.0						1576.2214515999658	1582.6270490000024	1582.6270490000024	2.0	['2', 'return']	[1.9772897999500856, 2.5758097999496385]	6.4	6.28	1.0	controle	low_pain	44.3			sub-029	250	29	44.3	45.7	COM14	COM15	COM3	2024-03-29_10h54.53.743	001-EEG_SVR_Officel	2022.2.5	144.06502514820073		10.61999999999989	1_sub-pilot029_SVR_EEG_block3-4.protocol.csv	step45	6070	602.626	STIMULATE	44.4	44.2	44.2	44.2	44.2	45	1437.326
1424.344	0	712172	CNhz	12	3	0	3	0	5.0	0.0	5.0	0.0						1576.2214515999658	1582.6270490000024	1582.6270490000024	2.0	['2', 'return']	[1.9772897999500856, 2.5758097999496385]	6.4	6.28	1.0	controle	low_pain	44.3			sub-029	250	29	44.3	45.7	COM14	COM15	COM3	2024-03-29_10h54.53.743	001-EEG_SVR_Officel	2022.2.5	144.06502514820073		6.398000000000138	1_sub-pilot029_SVR_EEG_block3-4.protocol.csv	step45	6070	602.626	STIMULATE	44.4	44.2	44.2	44.2	44.2	45	1437.326
1431.378	0	715689	CN/Lo	11	3	0	3	0	5.0	0.0	5.0	0.0						1576.2214515999658	1582.6270490000024	1582.6270490000024	2.0	['2', 'return']	[1.9772897999500856, 2.5758097999496385]	6.4	6.28	1.0	controle	low_pain	44.3			sub-029	250	29	44.3	45.7	COM14	COM15	COM3	2024-03-29_10h54.53.743	001-EEG_SVR_Officel	2022.2.5	144.06502514820073		6.283999999999878	1_sub-pilot029_SVR_EEG_block3-4.protocol.csv	step45	6070	602.626	STIMULATE	44.4	44.2	44.2	44.2	44.2	45	1437.326
1439.942	0	719971	wait	20	3	0	3	0	6.0	0.0	6.0	0.0						1598.2166664999677	1603.508956799982	1603.508956799982	2.0	['2', 'return']	[2.3875276999315247, 3.3967463999288157]	5.29	6.05	2.0	40hz	high_pain	45.7			sub-029	250	29	44.3	45.7	COM14	COM15	COM3	2024-03-29_10h54.53.743	001-EEG_SVR_Officel	2022.2.5	144.06502514820073		9.314000000000078	1_sub-pilot029_SVR_EEG_block3-4.protocol.csv	step47	6278	623.282	STIMULATE	45.7	45.6	45.6	45.7	45.7	47	1457.982
1445.228	0	722614	40hz	9	3	0	3	0	6.0	0.0	6.0	0.0						1598.2166664999677	1603.508956799982	1603.508956799982	2.0	['2', 'return']	[2.3875276999315247, 3.3967463999288157]	5.29	6.05	2.0	40hz	high_pain	45.7			sub-029	250	29	44.3	45.7	COM14	COM15	COM3	2024-03-29_10h54.53.743	001-EEG_SVR_Officel	2022.2.5	144.06502514820073		5.286000000000058	1_sub-pilot029_SVR_EEG_block3-4.protocol.csv	step47	6278	623.282	STIMULATE	45.7	45.6	45.6	45.7	45.7	47	1457.982
1452.032	0	726016	40/Hi	7	3	0	3	0	6.0	0.0	6.0	0.0						1598.2166664999677	1603.508956799982	1603.508956799982	2.0	['2', 'return']	[2.3875276999315247, 3.3967463999288157]	5.29	6.05	2.0	40hz	high_pain	45.7			sub-029	250	29	44.3	45.7	COM14	COM15	COM3	2024-03-29_10h54.53.743	001-EEG_SVR_Officel	2022.2.5	144.06502514820073		6.05399999999986	1_sub-pilot029_SVR_EEG_block3-4.protocol.csv	step47	6278	623.282	STIMULATE	45.7	45.6	45.6	45.7	45.7	47	1457.982
1461.652	0	730826	wait	20	3	0	3	0	7.0	0.0	7.0	0.0						1619.9275214000372	1625.379546900047	1625.379546900047	4.0	['4', 'return']	[2.1486318999668583, 2.845132300048135]	5.45	5.7	3.0	controle	high_pain	45.7			sub-029	250	29	44.3	45.7	COM14	COM15	COM3	2024-03-29_10h54.53.743	001-EEG_SVR_Officel	2022.2.5	144.06502514820073		10.370000000000118	1_sub-pilot029_SVR_EEG_block3-4.protocol.csv	step49	6495	644.745	STIMULATE	45.7	45.6	45.6	45.7	45.7	49	1479.4450000000002
1467.098	0	733549	CNhz	12	3	0	3	0	7.0	0.0	7.0	0.0						1619.9275214000372	1625.379546900047	1625.379546900047	4.0	['4', 'return']	[2.1486318999668583, 2.845132300048135]	5.45	5.7	3.0	controle	high_pain	45.7			sub-029	250	29	44.3	45.7	COM14	COM15	COM3	2024-03-29_10h54.53.743	001-EEG_SVR_Officel	2022.2.5	144.06502514820073		5.445999999999913	1_sub-pilot029_SVR_EEG_block3-4.protocol.csv	step49	6495	644.745	STIMULATE	45.7	45.6	45.6	45.7	45.7	49	1479.4450000000002
1473.548	0	736774	CN/Hi	10	3	0	3	0	7.0	0.0	7.0	0.0						1619.9275214000372	1625.379546900047	1625.379546900047	4.0	['4', 'return']	[2.1486318999668583, 2.845132300048135]	5.45	5.7	3.0	controle	high_pain	45.7			sub-029	250	29	44.3	45.7	COM14	COM15	COM3	2024-03-29_10h54.53.743	001-EEG_SVR_Officel	2022.2.5	144.06502514820073		5.7000000000000455	1_sub-pilot029_SVR_EEG_block3-4.protocol.csv	step49	6495	644.745	STIMULATE	45.7	45.6	45.6	45.7	45.7	49	1479.4450000000002
1482.966	0	741483	wait	20	3	0	3	0	8.0	0.0	8.0	0.0						1641.2424310999922	1647.2026889999397	1647.2026889999397	1.0	['1', 'return']	[1.9349430000875145, 2.7509589000837877]	5.96	6.23	0.0	20hz	low_pain	44.3			sub-029	250	29	44.3	45.7	COM14	COM15	COM3	2024-03-29_10h54.53.743	001-EEG_SVR_Officel	2022.2.5	144.06502514820073		10.167999999999893	1_sub-pilot029_SVR_EEG_block3-4.protocol.csv	step51	6721	667.13	STIMULATE	44.2	44.2	44.2	44.2	44.3	51	1501.83
1488.922	0	744461	20hz	6	3	0	3	0	8.0	0.0	8.0	0.0						1641.2424310999922	1647.2026889999397	1647.2026889999397	1.0	['1', 'return']	[1.9349430000875145, 2.7509589000837877]	5.96	6.23	0.0	20hz	low_pain	44.3			sub-029	250	29	44.3	45.7	COM14	COM15	COM3	2024-03-29_10h54.53.743	001-EEG_SVR_Officel	2022.2.5	144.06502514820073		5.956000000000131	1_sub-pilot029_SVR_EEG_block3-4.protocol.csv	step51	6721	667.13	STIMULATE	44.2	44.2	44.2	44.2	44.3	51	1501.83
1495.904	0	747952	20/Lo	5	3	0	3	0	8.0	0.0	8.0	0.0						1641.2424310999922	1647.2026889999397	1647.2026889999397	1.0	['1', 'return']	[1.9349430000875145, 2.7509589000837877]	5.96	6.23	0.0	20hz	low_pain	44.3			sub-029	250	29	44.3	45.7	COM14	COM15	COM3	2024-03-29_10h54.53.743	001-EEG_SVR_Officel	2022.2.5	144.06502514820073		6.231999999999971	1_sub-pilot029_SVR_EEG_block3-4.protocol.csv	step51	6721	667.13	STIMULATE	44.2	44.2	44.2	44.2	44.3	51	1501.83
1504.698	0	752349	wait	20	3	0	3	0	9.0	0.0	9.0	0.0						1662.9746868000366	1669.627504799981	1669.627504799981	2.0	['2', 'return']	[2.70077430002857, 4.2212087999796495]	6.65	6.09	1.0	20hz	low_pain	44.3			sub-029	250	29	44.3	45.7	COM14	COM15	COM3	2024-03-29_10h54.53.743	001-EEG_SVR_Officel	2022.2.5	144.06502514820073		9.544000000000096	1_sub-pilot029_SVR_EEG_block3-4.protocol.csv	step53	6946	689.433	STIMULATE	44.2	44.2	44.2	44.2	44.2	53	1524.133
1511.346	0	755673	20hz	6	3	0	3	0	9.0	0.0	9.0	0.0						1662.9746868000366	1669.627504799981	1669.627504799981	2.0	['2', 'return']	[2.70077430002857, 4.2212087999796495]	6.65	6.09	1.0	20hz	low_pain	44.3			sub-029	250	29	44.3	45.7	COM14	COM15	COM3	2024-03-29_10h54.53.743	001-EEG_SVR_Officel	2022.2.5	144.06502514820073		6.647999999999911	1_sub-pilot029_SVR_EEG_block3-4.protocol.csv	step53	6946	689.433	STIMULATE	44.2	44.2	44.2	44.2	44.2	53	1524.133
1518.186	0	759093	20/Lo	5	3	0	3	0	9.0	0.0	9.0	0.0						1662.9746868000366	1669.627504799981	1669.627504799981	2.0	['2', 'return']	[2.70077430002857, 4.2212087999796495]	6.65	6.09	1.0	20hz	low_pain	44.3			sub-029	250	29	44.3	45.7	COM14	COM15	COM3	2024-03-29_10h54.53.743	001-EEG_SVR_Officel	2022.2.5	144.06502514820073		6.089999999999918	1_sub-pilot029_SVR_EEG_block3-4.protocol.csv	step53	6946	689.433	STIMULATE	44.2	44.2	44.2	44.2	44.2	53	1524.133
1528.588	0	764294	wait	20	3	0	3	0	10.0	0.0	10.0	0.0						1686.8659297999693	1692.686035700026	1692.686035700026	3.0	['3', 'return']	[3.3870066000381485, 4.162062200019136]	5.82	6.39	2.0	controle	high_pain	45.7			sub-029	250	29	44.3	45.7	COM14	COM15	COM3	2024-03-29_10h54.53.743	001-EEG_SVR_Officel	2022.2.5	144.06502514820073		11.152000000000044	1_sub-pilot029_SVR_EEG_block3-4.protocol.csv	step55	7181	712.781	STIMULATE	45.7	45.6	45.6	45.7	45.6	55	1547.481
1534.404	0	767202	CNhz	12	3	0	3	0	10.0	0.0	10.0	0.0						1686.8659297999693	1692.686035700026	1692.686035700026	3.0	['3', 'return']	[3.3870066000381485, 4.162062200019136]	5.82	6.39	2.0	controle	high_pain	45.7			sub-029	250	29	44.3	45.7	COM14	COM15	COM3	2024-03-29_10h54.53.743	001-EEG_SVR_Officel	2022.2.5	144.06502514820073		5.816000000000031	1_sub-pilot029_SVR_EEG_block3-4.protocol.csv	step55	7181	712.781	STIMULATE	45.7	45.6	45.6	45.7	45.6	55	1547.481
1541.548	0	770774	CN/Hi	10	3	0	3	0	10.0	0.0	10.0	0.0						1686.8659297999693	1692.686035700026	1692.686035700026	3.0	['3', 'return']	[3.3870066000381485, 4.162062200019136]	5.82	6.39	2.0	controle	high_pain	45.7			sub-029	250	29	44.3	45.7	COM14	COM15	COM3	2024-03-29_10h54.53.743	001-EEG_SVR_Officel	2022.2.5	144.06502514820073		6.3940000000000055	1_sub-pilot029_SVR_EEG_block3-4.protocol.csv	step55	7181	712.781	STIMULATE	45.7	45.6	45.6	45.7	45.6	55	1547.481
1551.592	0	775796	wait	20	3	0	3	0	11.0	0.0	11.0	0.0						1709.8687130999751	1715.4176840999862	1715.4176840999862	3.0	['3', 'return']	[2.3743803000543267, 3.0380505000939593]	5.55	6.42	3.0	20hz	low_pain	44.3			sub-029	250	29	44.3	45.7	COM14	COM15	COM3	2024-03-29_10h54.53.743	001-EEG_SVR_Officel	2022.2.5	144.06502514820073		10.794000000000096	1_sub-pilot029_SVR_EEG_block3-4.protocol.csv	step57	7411	735.516	STIMULATE	44.2	44.2	44.2	44.2	44.2	57	1570.216
1557.136	0	778568	20hz	6	3	0	3	0	11.0	0.0	11.0	0.0						1709.8687130999751	1715.4176840999862	1715.4176840999862	3.0	['3', 'return']	[2.3743803000543267, 3.0380505000939593]	5.55	6.42	3.0	20hz	low_pain	44.3			sub-029	250	29	44.3	45.7	COM14	COM15	COM3	2024-03-29_10h54.53.743	001-EEG_SVR_Officel	2022.2.5	144.06502514820073		5.543999999999869	1_sub-pilot029_SVR_EEG_block3-4.protocol.csv	step57	7411	735.516	STIMULATE	44.2	44.2	44.2	44.2	44.2	57	1570.216
1564.308	0	782154	20/Lo	5	3	0	3	0	11.0	0.0	11.0	0.0						1709.8687130999751	1715.4176840999862	1715.4176840999862	3.0	['3', 'return']	[2.3743803000543267, 3.0380505000939593]	5.55	6.42	3.0	20hz	low_pain	44.3			sub-029	250	29	44.3	45.7	COM14	COM15	COM3	2024-03-29_10h54.53.743	001-EEG_SVR_Officel	2022.2.5	144.06502514820073		6.4220000000000255	1_sub-pilot029_SVR_EEG_block3-4.protocol.csv	step57	7411	735.516	STIMULATE	44.2	44.2	44.2	44.2	44.2	57	1570.216
1573.198	0	786599	wait	20	3	0	3	0	12.0	0.0	12.0	0.0						1731.475351399975	1738.6568896999815	1738.6568896999815	4.0	['4', 'return']	[2.9031745999818668, 3.5672858000034466]	7.18	5.7	0.0	20hz	high_pain	45.7			sub-029	250	29	44.3	45.7	COM14	COM15	COM3	2024-03-29_10h54.53.743	001-EEG_SVR_Officel	2022.2.5	144.06502514820073		9.6400000000001	1_sub-pilot029_SVR_EEG_block3-4.protocol.csv	step59	7638	758.072	STIMULATE	45.7	45.6	45.6	45.7	45.7	59	1592.772
1580.374	0	790187	20hz	6	3	0	3	0	12.0	0.0	12.0	0.0						1731.475351399975	1738.6568896999815	1738.6568896999815	4.0	['4', 'return']	[2.9031745999818668, 3.5672858000034466]	7.18	5.7	0.0	20hz	high_pain	45.7			sub-029	250	29	44.3	45.7	COM14	COM15	COM3	2024-03-29_10h54.53.743	001-EEG_SVR_Officel	2022.2.5	144.06502514820073		7.175999999999931	1_sub-pilot029_SVR_EEG_block3-4.protocol.csv	step59	7638	758.072	STIMULATE	45.7	45.6	45.6	45.7	45.7	59	1592.772
1586.824	0	793412	20/Hi	4	3	0	3	0	12.0	0.0	12.0	0.0						1731.475351399975	1738.6568896999815	1738.6568896999815	4.0	['4', 'return']	[2.9031745999818668, 3.5672858000034466]	7.18	5.7	0.0	20hz	high_pain	45.7			sub-029	250	29	44.3	45.7	COM14	COM15	COM3	2024-03-29_10h54.53.743	001-EEG_SVR_Officel	2022.2.5	144.06502514820073		5.7000000000000455	1_sub-pilot029_SVR_EEG_block3-4.protocol.csv	step59	7638	758.072	STIMULATE	45.7	45.6	45.6	45.7	45.7	59	1592.772
1596.964	0	798482	wait	20	3	0	3	0	13.0	0.0	13.0	0.0						1755.2420672000153	1761.3122071999824	1761.3122071999824	3.0	['3', 'return']	[2.0640651000430807, 3.873242700006813]	6.07	5.47	1.0	10hz	low_pain	44.3			sub-029	250	29	44.3	45.7	COM14	COM15	COM3	2024-03-29_10h54.53.743	001-EEG_SVR_Officel	2022.2.5	144.06502514820073		10.889999999999873	1_sub-pilot029_SVR_EEG_block3-4.protocol.csv	step61	7863	780.495	STIMULATE	44.2	44.2	44.2	44.2	44.2	61	1615.1950000000002
1603.03	0	801515	10hz	3	3	0	3	0	13.0	0.0	13.0	0.0						1755.2420672000153	1761.3122071999824	1761.3122071999824	3.0	['3', 'return']	[2.0640651000430807, 3.873242700006813]	6.07	5.47	1.0	10hz	low_pain	44.3			sub-029	250	29	44.3	45.7	COM14	COM15	COM3	2024-03-29_10h54.53.743	001-EEG_SVR_Officel	2022.2.5	144.06502514820073		6.066000000000031	1_sub-pilot029_SVR_EEG_block3-4.protocol.csv	step61	7863	780.495	STIMULATE	44.2	44.2	44.2	44.2	44.2	61	1615.1950000000002
1609.25	0	804625	10/Lo	2	3	0	3	0	13.0	0.0	13.0	0.0						1755.2420672000153	1761.3122071999824	1761.3122071999824	3.0	['3', 'return']	[2.0640651000430807, 3.873242700006813]	6.07	5.47	1.0	10hz	low_pain	44.3			sub-029	250	29	44.3	45.7	COM14	COM15	COM3	2024-03-29_10h54.53.743	001-EEG_SVR_Officel	2022.2.5	144.06502514820073		5.470000000000027	1_sub-pilot029_SVR_EEG_block3-4.protocol.csv	step61	7863	780.495	STIMULATE	44.2	44.2	44.2	44.2	44.2	61	1615.1950000000002
1619.926	0	809963	wait	20	3	0	3	0	14.0	0.0	14.0	0.0						1778.2031341999536	1785.342866400024	1785.342866400024	2.0	['2', 'return']	[3.1215491999173537, 3.897501799976453]	7.14	5.91	2.0	10hz	high_pain	45.7			sub-029	250	29	44.3	45.7	COM14	COM15	COM3	2024-03-29_10h54.53.743	001-EEG_SVR_Officel	2022.2.5	144.06502514820073		11.42599999999993	1_sub-pilot029_SVR_EEG_block3-4.protocol.csv	step63	8103	804.99	STIMULATE	45.7	45.6	45.6	45.7	45.7	63	1639.69
1627.062	0	813531	10hz	3	3	0	3	0	14.0	0.0	14.0	0.0						1778.2031341999536	1785.342866400024	1785.342866400024	2.0	['2', 'return']	[3.1215491999173537, 3.897501799976453]	7.14	5.91	2.0	10hz	high_pain	45.7			sub-029	250	29	44.3	45.7	COM14	COM15	COM3	2024-03-29_10h54.53.743	001-EEG_SVR_Officel	2022.2.5	144.06502514820073		7.135999999999967	1_sub-pilot029_SVR_EEG_block3-4.protocol.csv	step63	8103	804.99	STIMULATE	45.7	45.6	45.6	45.7	45.7	63	1639.69
1633.718	0	816859	10/Hi	1	3	0	3	0	14.0	0.0	14.0	0.0						1778.2031341999536	1785.342866400024	1785.342866400024	2.0	['2', 'return']	[3.1215491999173537, 3.897501799976453]	7.14	5.91	2.0	10hz	high_pain	45.7			sub-029	250	29	44.3	45.7	COM14	COM15	COM3	2024-03-29_10h54.53.743	001-EEG_SVR_Officel	2022.2.5	144.06502514820073		5.906000000000176	1_sub-pilot029_SVR_EEG_block3-4.protocol.csv	step63	8103	804.99	STIMULATE	45.7	45.6	45.6	45.7	45.7	63	1639.69
1643.984	0	821992	wait	20	3	0	3	0	15.0	0.0	15.0	0.0						1802.2614210000029	1809.1928312999664	1809.1928312999664	1.0	['1', 'return']	[4.440005099982955, 5.40779950004071]	6.93	5.75	3.0	controle	low_pain	44.3			sub-029	250	29	44.3	45.7	COM14	COM15	COM3	2024-03-29_10h54.53.743	001-EEG_SVR_Officel	2022.2.5	144.06502514820073		11.015999999999849	1_sub-pilot029_SVR_EEG_block3-4.protocol.csv	step65	8332	828.723	STIMULATE	44.2	44.2	44.2	44.2	44.2	65	1663.423
1650.91	0	825455	CNhz	12	3	0	3	0	15.0	0.0	15.0	0.0						1802.2614210000029	1809.1928312999664	1809.1928312999664	1.0	['1', 'return']	[4.440005099982955, 5.40779950004071]	6.93	5.75	3.0	controle	low_pain	44.3			sub-029	250	29	44.3	45.7	COM14	COM15	COM3	2024-03-29_10h54.53.743	001-EEG_SVR_Officel	2022.2.5	144.06502514820073		6.926000000000158	1_sub-pilot029_SVR_EEG_block3-4.protocol.csv	step65	8332	828.723	STIMULATE	44.2	44.2	44.2	44.2	44.2	65	1663.423
1657.41	0	828705	CN/Lo	11	3	0	3	0	15.0	0.0	15.0	0.0						1802.2614210000029	1809.1928312999664	1809.1928312999664	1.0	['1', 'return']	[4.440005099982955, 5.40779950004071]	6.93	5.75	3.0	controle	low_pain	44.3			sub-029	250	29	44.3	45.7	COM14	COM15	COM3	2024-03-29_10h54.53.743	001-EEG_SVR_Officel	2022.2.5	144.06502514820073		5.75	1_sub-pilot029_SVR_EEG_block3-4.protocol.csv	step65	8332	828.723	STIMULATE	44.2	44.2	44.2	44.2	44.2	65	1663.423
1779.028	0	889514	wait	20	4	0	4	0	0.0	0.0	0.0	0.0				p	3.2434129000175744	1937.3052111000288	1942.9175557999408	1942.9175557999408	5.0	['5', 'return']	[1.7556852999841794, 2.363756899954751]	5.61	5.48	0.0	40hz	high_pain	45.7			sub-029	250	29	44.3	45.7	COM14	COM15	COM3	2024-03-29_10h54.53.743	001-EEG_SVR_Officel	2022.2.5	144.06502514820073		122.36799999999994	2_sub-pilot029_SVR_EEG_block5-6.protocol.csv	step3	1204	120.226	STIMULATE	45.7	45.6	45.6	45.7	45.7	3	1796.75
1784.634	0	892317	40hz	9	4	0	4	0	0.0	0.0	0.0	0.0				p	3.2434129000175744	1937.3052111000288	1942.9175557999408	1942.9175557999408	5.0	['5', 'return']	[1.7556852999841794, 2.363756899954751]	5.61	5.48	0.0	40hz	high_pain	45.7			sub-029	250	29	44.3	45.7	COM14	COM15	COM3	2024-03-29_10h54.53.743	001-EEG_SVR_Officel	2022.2.5	144.06502514820073		5.6059999999999945	2_sub-pilot029_SVR_EEG_block5-6.protocol.csv	step3	1204	120.226	STIMULATE	45.7	45.6	45.6	45.7	45.7	3	1796.75
1790.868	0	895434	40/Hi	7	4	0	4	0	0.0	0.0	0.0	0.0				p	3.2434129000175744	1937.3052111000288	1942.9175557999408	1942.9175557999408	5.0	['5', 'return']	[1.7556852999841794, 2.363756899954751]	5.61	5.48	0.0	40hz	high_pain	45.7			sub-029	250	29	44.3	45.7	COM14	COM15	COM3	2024-03-29_10h54.53.743	001-EEG_SVR_Officel	2022.2.5	144.06502514820073		5.483999999999924	2_sub-pilot029_SVR_EEG_block5-6.protocol.csv	step3	1204	120.226	STIMULATE	45.7	45.6	45.6	45.7	45.7	3	1796.75
1800.022	0	900011	wait	20	4	0	4	0	1.0	0.0	1.0	0.0						1958.3006670000032	1963.8705229000188	1963.8705229000188	2.0	['2', 'return']	[2.218098200042732, 2.8421069000614807]	5.57	6.43	1.0	controle	low_pain	44.3			sub-029	250	29	44.3	45.7	COM14	COM15	COM3	2024-03-29_10h54.53.743	001-EEG_SVR_Officel	2022.2.5	144.06502514820073		9.903999999999996	2_sub-pilot029_SVR_EEG_block5-6.protocol.csv	step5	1425	142.108	STIMULATE	44.3	44.2	44.2	44.2	44.2	5	1818.632
1805.588	0	902794	CNhz	12	4	0	4	0	1.0	0.0	1.0	0.0						1958.3006670000032	1963.8705229000188	1963.8705229000188	2.0	['2', 'return']	[2.218098200042732, 2.8421069000614807]	5.57	6.43	1.0	controle	low_pain	44.3			sub-029	250	29	44.3	45.7	COM14	COM15	COM3	2024-03-29_10h54.53.743	001-EEG_SVR_Officel	2022.2.5	144.06502514820073		5.566000000000031	2_sub-pilot029_SVR_EEG_block5-6.protocol.csv	step5	1425	142.108	STIMULATE	44.3	44.2	44.2	44.2	44.2	5	1818.632
1812.766	0	906383	CN/Lo	11	4	0	4	0	1.0	0.0	1.0	0.0						1958.3006670000032	1963.8705229000188	1963.8705229000188	2.0	['2', 'return']	[2.218098200042732, 2.8421069000614807]	5.57	6.43	1.0	controle	low_pain	44.3			sub-029	250	29	44.3	45.7	COM14	COM15	COM3	2024-03-29_10h54.53.743	001-EEG_SVR_Officel	2022.2.5	144.06502514820073		6.428000000000111	2_sub-pilot029_SVR_EEG_block5-6.protocol.csv	step5	1425	142.108	STIMULATE	44.3	44.2	44.2	44.2	44.2	5	1818.632
1821.456	0	910728	wait	20	4	0	4	0	2.0	0.0	2.0	0.0						1979.733727899962	1987.053967899992	1987.053967899992	2.0	['2', 'return']	[2.2424093999434263, 2.8419107999652624]	7.32	6.12	2.0	10hz	low_pain	44.3			sub-029	250	29	44.3	45.7	COM14	COM15	COM3	2024-03-29_10h54.53.743	001-EEG_SVR_Officel	2022.2.5	144.06502514820073		9.439999999999827	2_sub-pilot029_SVR_EEG_block5-6.protocol.csv	step7	1656	165.025	STIMULATE	44.2	44.2	44.2	44.2	44.2	7	1841.549
1828.77	0	914385	10hz	3	4	0	4	0	2.0	0.0	2.0	0.0						1979.733727899962	1987.053967899992	1987.053967899992	2.0	['2', 'return']	[2.2424093999434263, 2.8419107999652624]	7.32	6.12	2.0	10hz	low_pain	44.3			sub-029	250	29	44.3	45.7	COM14	COM15	COM3	2024-03-29_10h54.53.743	001-EEG_SVR_Officel	2022.2.5	144.06502514820073		7.314000000000078	2_sub-pilot029_SVR_EEG_block5-6.protocol.csv	step7	1656	165.025	STIMULATE	44.2	44.2	44.2	44.2	44.2	7	1841.549
1835.644	0	917822	10/Lo	2	4	0	4	0	2.0	0.0	2.0	0.0						1979.733727899962	1987.053967899992	1987.053967899992	2.0	['2', 'return']	[2.2424093999434263, 2.8419107999652624]	7.32	6.12	2.0	10hz	low_pain	44.3			sub-029	250	29	44.3	45.7	COM14	COM15	COM3	2024-03-29_10h54.53.743	001-EEG_SVR_Officel	2022.2.5	144.06502514820073		6.124000000000024	2_sub-pilot029_SVR_EEG_block5-6.protocol.csv	step7	1656	165.025	STIMULATE	44.2	44.2	44.2	44.2	44.2	7	1841.549
1844.638	0	922319	wait	20	4	0	4	0	3.0	0.0	3.0	0.0						2002.9171867000405	2010.0564907999944	2010.0564907999944	3.0	['3', 'return']	[2.120026999968104, 2.720781199983321]	7.14	5.01	3.0	controle	high_pain	45.7			sub-029	250	29	44.3	45.7	COM14	COM15	COM3	2024-03-29_10h54.53.743	001-EEG_SVR_Officel	2022.2.5	144.06502514820073		9.743999999999915	2_sub-pilot029_SVR_EEG_block5-6.protocol.csv	step9	1876	186.872	STIMULATE	45.7	45.6	45.6	45.6	45.7	9	1863.396
1851.774	0	925887	CNhz	12	4	0	4	0	3.0	0.0	3.0	0.0						2002.9171867000405	2010.0564907999944	2010.0564907999944	3.0	['3', 'return']	[2.120026999968104, 2.720781199983321]	7.14	5.01	3.0	controle	high_pain	45.7			sub-029	250	29	44.3	45.7	COM14	COM15	COM3	2024-03-29_10h54.53.743	001-EEG_SVR_Officel	2022.2.5	144.06502514820073		7.135999999999967	2_sub-pilot029_SVR_EEG_block5-6.protocol.csv	step9	1876	186.872	STIMULATE	45.7	45.6	45.6	45.6	45.7	9	1863.396
1857.536	0	928768	CN/Hi	10	4	0	4	0	3.0	0.0	3.0	0.0						2002.9171867000405	2010.0564907999944	2010.0564907999944	3.0	['3', 'return']	[2.120026999968104, 2.720781199983321]	7.14	5.01	3.0	controle	high_pain	45.7			sub-029	250	29	44.3	45.7	COM14	COM15	COM3	2024-03-29_10h54.53.743	001-EEG_SVR_Officel	2022.2.5	144.06502514820073		5.012000000000171	2_sub-pilot029_SVR_EEG_block5-6.protocol.csv	step9	1876	186.872	STIMULATE	45.7	45.6	45.6	45.6	45.7	9	1863.396
1867.516	0	933758	wait	20	4	0	4	0	4.0	0.0	4.0	0.0						2025.794743399951	2032.8790229000151	2032.8790229000151	1.0	['1', 'return']	[3.433386899996549, 5.890909799956717]	7.08	6.49	0.0	controle	low_pain	44.3			sub-029	250	29	44.3	45.7	COM14	COM15	COM3	2024-03-29_10h54.53.743	001-EEG_SVR_Officel	2022.2.5	144.06502514820073		10.730000000000018	2_sub-pilot029_SVR_EEG_block5-6.protocol.csv	step11	2121	211.173	STIMULATE	44.2	44.2	44.2	44.2	44.3	11	1887.697
1874.596	0	937298	CNhz	12	4	0	4	0	4.0	0.0	4.0	0.0						2025.794743399951	2032.8790229000151	2032.8790229000151	1.0	['1', 'return']	[3.433386899996549, 5.890909799956717]	7.08	6.49	0.0	controle	low_pain	44.3			sub-029	250	29	44.3	45.7	COM14	COM15	COM3	2024-03-29_10h54.53.743	001-EEG_SVR_Officel	2022.2.5	144.06502514820073		7.079999999999927	2_sub-pilot029_SVR_EEG_block5-6.protocol.csv	step11	2121	211.173	STIMULATE	44.2	44.2	44.2	44.2	44.3	11	1887.697
1881.836	0	940918	CN/Lo	11	4	0	4	0	4.0	0.0	4.0	0.0						2025.794743399951	2032.8790229000151	2032.8790229000151	1.0	['1', 'return']	[3.433386899996549, 5.890909799956717]	7.08	6.49	0.0	controle	low_pain	44.3			sub-029	250	29	44.3	45.7	COM14	COM15	COM3	2024-03-29_10h54.53.743	001-EEG_SVR_Officel	2022.2.5	144.06502514820073		6.490000000000009	2_sub-pilot029_SVR_EEG_block5-6.protocol.csv	step11	2121	211.173	STIMULATE	44.2	44.2	44.2	44.2	44.3	11	1887.697
1893.512	0	946756	wait	20	4	0	4	0	5.0	0.0	5.0	0.0						2051.790803299984	2058.590013799956	2058.590013799956	4.0	['4', 'return']	[2.5700456999475136, 3.17053349991329]	6.8	6.08	1.0	controle	high_pain	45.7			sub-029	250	29	44.3	45.7	COM14	COM15	COM3	2024-03-29_10h54.53.743	001-EEG_SVR_Officel	2022.2.5	144.06502514820073		12.42599999999993	2_sub-pilot029_SVR_EEG_block5-6.protocol.csv	step13	2376	236.483	STIMULATE	45.7	45.6	45.7	45.7	45.7	13	1913.007
1900.306	0	950153	CNhz	12	4	0	4	0	5.0	0.0	5.0	0.0						2051.790803299984	2058.590013799956	2058.590013799956	4.0	['4', 'return']	[2.5700456999475136, 3.17053349991329]	6.8	6.08	1.0	controle	high_pain	45.7			sub-029	250	29	44.3	45.7	COM14	COM15	COM3	2024-03-29_10h54.53.743	001-EEG_SVR_Officel	2022.2.5	144.06502514820073		6.794000000000096	2_sub-pilot029_SVR_EEG_block5-6.protocol.csv	step13	2376	236.483	STIMULATE	45.7	45.6	45.7	45.7	45.7	13	1913.007
1907.138	0	953569	CN/Hi	10	4	0	4	0	5.0	0.0	5.0	0.0						2051.790803299984	2058.590013799956	2058.590013799956	4.0	['4', 'return']	[2.5700456999475136, 3.17053349991329]	6.8	6.08	1.0	controle	high_pain	45.7			sub-029	250	29	44.3	45.7	COM14	COM15	COM3	2024-03-29_10h54.53.743	001-EEG_SVR_Officel	2022.2.5	144.06502514820073		6.08199999999988	2_sub-pilot029_SVR_EEG_block5-6.protocol.csv	step13	2376	236.483	STIMULATE	45.7	45.6	45.7	45.7	45.7	13	1913.007
1916.5	0	958250	wait	20	4	0	4	0	6.0	0.0	6.0	0.0						2074.7796011000173	2080.9123232000275	2080.9123232000275	1.0	['1', 'return']	[2.3676694000605494, 3.08111969998572]	6.13	5.84	2.0	40hz	low_pain	44.3			sub-029	250	29	44.3	45.7	COM14	COM15	COM3	2024-03-29_10h54.53.743	001-EEG_SVR_Officel	2022.2.5	144.06502514820073		10.11200000000008	2_sub-pilot029_SVR_EEG_block5-6.protocol.csv	step15	2599	258.52	STIMULATE	44.2	44.2	44.2	44.2	44.2	15	1935.0439999999999
1922.628	0	961314	40hz	9	4	0	4	0	6.0	0.0	6.0	0.0						2074.7796011000173	2080.9123232000275	2080.9123232000275	1.0	['1', 'return']	[2.3676694000605494, 3.08111969998572]	6.13	5.84	2.0	40hz	low_pain	44.3			sub-029	250	29	44.3	45.7	COM14	COM15	COM3	2024-03-29_10h54.53.743	001-EEG_SVR_Officel	2022.2.5	144.06502514820073		6.127999999999929	2_sub-pilot029_SVR_EEG_block5-6.protocol.csv	step15	2599	258.52	STIMULATE	44.2	44.2	44.2	44.2	44.2	15	1935.0439999999999
1929.218	0	964609	40/Lo	8	4	0	4	0	6.0	0.0	6.0	0.0						2074.7796011000173	2080.9123232000275	2080.9123232000275	1.0	['1', 'return']	[2.3676694000605494, 3.08111969998572]	6.13	5.84	2.0	40hz	low_pain	44.3			sub-029	250	29	44.3	45.7	COM14	COM15	COM3	2024-03-29_10h54.53.743	001-EEG_SVR_Officel	2022.2.5	144.06502514820073		5.8400000000001455	2_sub-pilot029_SVR_EEG_block5-6.protocol.csv	step15	2599	258.52	STIMULATE	44.2	44.2	44.2	44.2	44.2	15	1935.0439999999999
1938.732	0	969366	wait	20	4	0	4	0	7.0	0.0	7.0	0.0						2097.011508699972	2102.3244256000035	2102.3244256000035	0.0	['0', 'return']	[3.195490699959919, 4.356015700032003]	5.31	5.45	3.0	20hz	low_pain	44.3			sub-029	250	29	44.3	45.7	COM14	COM15	COM3	2024-03-29_10h54.53.743	001-EEG_SVR_Officel	2022.2.5	144.06502514820073		10.263999999999896	2_sub-pilot029_SVR_EEG_block5-6.protocol.csv	step17	2812	279.67	STIMULATE	44.2	44.2	44.2	44.2	44.2	17	1956.194
1944.04	0	972020	20hz	6	4	0	4	0	7.0	0.0	7.0	0.0						2097.011508699972	2102.3244256000035	2102.3244256000035	0.0	['0', 'return']	[3.195490699959919, 4.356015700032003]	5.31	5.45	3.0	20hz	low_pain	44.3			sub-029	250	29	44.3	45.7	COM14	COM15	COM3	2024-03-29_10h54.53.743	001-EEG_SVR_Officel	2022.2.5	144.06502514820073		5.307999999999993	2_sub-pilot029_SVR_EEG_block5-6.protocol.csv	step17	2812	279.67	STIMULATE	44.2	44.2	44.2	44.2	44.2	17	1956.194
1950.24	0	975120	20/Lo	5	4	0	4	0	7.0	0.0	7.0	0.0						2097.011508699972	2102.3244256000035	2102.3244256000035	0.0	['0', 'return']	[3.195490699959919, 4.356015700032003]	5.31	5.45	3.0	20hz	low_pain	44.3			sub-029	250	29	44.3	45.7	COM14	COM15	COM3	2024-03-29_10h54.53.743	001-EEG_SVR_Officel	2022.2.5	144.06502514820073		5.4500000000000455	2_sub-pilot029_SVR_EEG_block5-6.protocol.csv	step17	2812	279.67	STIMULATE	44.2	44.2	44.2	44.2	44.2	17	1956.194
1961.422	0	980711	wait	20	4	0	4	0	8.0	0.0	8.0	0.0						2119.701578599983	2125.53531019995	2125.53531019995	2.0	['2', 'return']	[2.721466200076975, 3.464647600078024]	5.83	5.92	0.0	20hz	high_pain	45.7			sub-029	250	29	44.3	45.7	COM14	COM15	COM3	2024-03-29_10h54.53.743	001-EEG_SVR_Officel	2022.2.5	144.06502514820073		11.932000000000016	2_sub-pilot029_SVR_EEG_block5-6.protocol.csv	step19	3050	303.215	STIMULATE	45.6	45.6	45.6	45.6	45.8	19	1979.739
1967.252	0	983626	20hz	6	4	0	4	0	8.0	0.0	8.0	0.0						2119.701578599983	2125.53531019995	2125.53531019995	2.0	['2', 'return']	[2.721466200076975, 3.464647600078024]	5.83	5.92	0.0	20hz	high_pain	45.7			sub-029	250	29	44.3	45.7	COM14	COM15	COM3	2024-03-29_10h54.53.743	001-EEG_SVR_Officel	2022.2.5	144.06502514820073		5.829999999999927	2_sub-pilot029_SVR_EEG_block5-6.protocol.csv	step19	3050	303.215	STIMULATE	45.6	45.6	45.6	45.6	45.8	19	1979.739
