onset	duration	sample	trial_type	value	block.thisRepN	block.thisTrialN	block.thisN	block.thisIndex	reps.thisRepN	reps.thisTrialN	reps.thisN	reps.thisIndex	afrec_start	rec_start	rec_start_egi	key_resp.keys	key_resp.rt	wait_time_text.started	wait_time_text.stopped	therm_loca_text.started	subResponse	keyResp.keys	keyResp.rt	ITI_wait	wait_trigger	loca_thermode	Hz_condition	temp_condition	temp_valeur	text.started	text.stopped	participant	brightness	num_part	low	high	com_svr	com_thermode	com_eeg	date	expName	psychopyVersion	frameRate	Unnamed: 39	distance_from_previous	file	step	index	time	type	temp1	temp2	temp3	temp4	temp5	step_num	time_sync
6.696	0	3348	wait	20	0	0	0	0	0.0	0.0	0.0	0.0	213.92420029999997	213.7114766	1710856884.8256252	p	6.4509540999997625	220.4064435	227.3168117	227.3168117	8.5	['8', 'a', '5', 'return']	[3.2003059999997276, 3.680556599999818, 4.072326099999827, 5.761137799999688]	6.9	5.45	0.0	20hz	high_pain	47.4			sub-026	250	26	45.2	47.4	COM11	COM16	COM3	2024-03-19_09h59.00.496	001-EEG_SVR_Officel	2022.2.5	143.9033199933916		6.696	0_sub-pilot026_SVR_EEG_block1-2.protocol.csv	step3	754	75.241	STIMULATE	47.5	47.3	47.3	47.3	47.4	3	25.663
13.594	0	6797	20hz	6	0	0	0	0	0.0	0.0	0.0	0.0	213.92420029999997	213.7114766	1710856884.8256252	p	6.4509540999997625	220.4064435	227.3168117	227.3168117	8.5	['8', 'a', '5', 'return']	[3.2003059999997276, 3.680556599999818, 4.072326099999827, 5.761137799999688]	6.9	5.45	0.0	20hz	high_pain	47.4			sub-026	250	26	45.2	47.4	COM11	COM16	COM3	2024-03-19_09h59.00.496	001-EEG_SVR_Officel	2022.2.5	143.9033199933916		6.898	0_sub-pilot026_SVR_EEG_block1-2.protocol.csv	step3	754	75.241	STIMULATE	47.5	47.3	47.3	47.3	47.4	3	25.663
19.794	0	9897	20/Hi	4	0	0	0	0	0.0	0.0	0.0	0.0	213.92420029999997	213.7114766	1710856884.8256252	p	6.4509540999997625	220.4064435	227.3168117	227.3168117	8.5	['8', 'a', '5', 'return']	[3.2003059999997276, 3.680556599999818, 4.072326099999827, 5.761137799999688]	6.9	5.45	0.0	20hz	high_pain	47.4			sub-026	250	26	45.2	47.4	COM11	COM16	COM3	2024-03-19_09h59.00.496	001-EEG_SVR_Officel	2022.2.5	143.9033199933916		5.450000000000001	0_sub-pilot026_SVR_EEG_block1-2.protocol.csv	step3	754	75.241	STIMULATE	47.5	47.3	47.3	47.3	47.4	3	25.663
32.378	0	16189	wait	20	0	0	0	0	1.0	0.0	1.0	0.0						246.08952199999976	251.2921465999998	251.2921465999998	6.0	['6', 'return']	[2.6015730000003714, 3.610968800000137]	5.19	5.56	1.0	20hz	low_pain	45.2			sub-026	250	26	45.2	47.4	COM11	COM16	COM3	2024-03-19_09h59.00.496	001-EEG_SVR_Officel	2022.2.5	143.9033199933916		13.334	0_sub-pilot026_SVR_EEG_block1-2.protocol.csv	step5	997	99.308	STIMULATE	45.2	45.1	45.1	45.1	45.4	5	49.730000000000004
37.57	0	18785	20hz	6	0	0	0	0	1.0	0.0	1.0	0.0						246.08952199999976	251.2921465999998	251.2921465999998	6.0	['6', 'return']	[2.6015730000003714, 3.610968800000137]	5.19	5.56	1.0	20hz	low_pain	45.2			sub-026	250	26	45.2	47.4	COM11	COM16	COM3	2024-03-19_09h59.00.496	001-EEG_SVR_Officel	2022.2.5	143.9033199933916		5.192	0_sub-pilot026_SVR_EEG_block1-2.protocol.csv	step5	997	99.308	STIMULATE	45.2	45.1	45.1	45.1	45.4	5	49.730000000000004
43.88	0	21940	20/Lo	5	0	0	0	0	1.0	0.0	1.0	0.0						246.08952199999976	251.2921465999998	251.2921465999998	6.0	['6', 'return']	[2.6015730000003714, 3.610968800000137]	5.19	5.56	1.0	20hz	low_pain	45.2			sub-026	250	26	45.2	47.4	COM11	COM16	COM3	2024-03-19_09h59.00.496	001-EEG_SVR_Officel	2022.2.5	143.9033199933916		5.560000000000002	0_sub-pilot026_SVR_EEG_block1-2.protocol.csv	step5	997	99.308	STIMULATE	45.2	45.1	45.1	45.1	45.4	5	49.730000000000004
54.208	0	27104	wait	20	0	0	0	0	2.0	0.0	2.0	0.0						267.9189769	274.1766703999997	274.1766703999997	7.0	['7', 'return']	[2.4278572000002896, 3.2374855000002754]	6.25	6.47	2.0	controle	low_pain	45.2			sub-026	250	26	45.2	47.4	COM11	COM16	COM3	2024-03-19_09h59.00.496	001-EEG_SVR_Officel	2022.2.5	143.9033199933916		11.077999999999996	0_sub-pilot026_SVR_EEG_block1-2.protocol.csv	step7	1237	123.126	STIMULATE	45.3	45.1	45.1	45.1	45.4	7	73.548
60.454	0	30227	CNhz	12	0	0	0	0	2.0	0.0	2.0	0.0						267.9189769	274.1766703999997	274.1766703999997	7.0	['7', 'return']	[2.4278572000002896, 3.2374855000002754]	6.25	6.47	2.0	controle	low_pain	45.2			sub-026	250	26	45.2	47.4	COM11	COM16	COM3	2024-03-19_09h59.00.496	001-EEG_SVR_Officel	2022.2.5	143.9033199933916		6.246000000000002	0_sub-pilot026_SVR_EEG_block1-2.protocol.csv	step7	1237	123.126	STIMULATE	45.3	45.1	45.1	45.1	45.4	7	73.548
67.676	0	33838	CN/Lo	11	0	0	0	0	2.0	0.0	2.0	0.0						267.9189769	274.1766703999997	274.1766703999997	7.0	['7', 'return']	[2.4278572000002896, 3.2374855000002754]	6.25	6.47	2.0	controle	low_pain	45.2			sub-026	250	26	45.2	47.4	COM11	COM16	COM3	2024-03-19_09h59.00.496	001-EEG_SVR_Officel	2022.2.5	143.9033199933916		6.472000000000001	0_sub-pilot026_SVR_EEG_block1-2.protocol.csv	step7	1237	123.126	STIMULATE	45.3	45.1	45.1	45.1	45.4	7	73.548
76.724	0	38362	wait	20	0	0	0	0	3.0	0.0	3.0	0.0						290.4359866	295.4646576	295.4646576	8.5	['8', 'a', '5', 'return']	[2.062290999999732, 2.5742496999996547, 2.821433799999795, 3.50162279999995]	5.02	5.69	3.0	20hz	high_pain	47.4			sub-026	250	26	45.2	47.4	COM11	COM16	COM3	2024-03-19_09h59.00.496	001-EEG_SVR_Officel	2022.2.5	143.9033199933916		9.798000000000002	0_sub-pilot026_SVR_EEG_block1-2.protocol.csv	step9	1444	143.648	STIMULATE	47.4	47.3	47.3	47.4	47.4	9	94.07
81.742	0	40871	20hz	6	0	0	0	0	3.0	0.0	3.0	0.0						290.4359866	295.4646576	295.4646576	8.5	['8', 'a', '5', 'return']	[2.062290999999732, 2.5742496999996547, 2.821433799999795, 3.50162279999995]	5.02	5.69	3.0	20hz	high_pain	47.4			sub-026	250	26	45.2	47.4	COM11	COM16	COM3	2024-03-19_09h59.00.496	001-EEG_SVR_Officel	2022.2.5	143.9033199933916		5.018000000000001	0_sub-pilot026_SVR_EEG_block1-2.protocol.csv	step9	1444	143.648	STIMULATE	47.4	47.3	47.3	47.4	47.4	9	94.07
88.184	0	44092	20/Hi	4	0	0	0	0	3.0	0.0	3.0	0.0						290.4359866	295.4646576	295.4646576	8.5	['8', 'a', '5', 'return']	[2.062290999999732, 2.5742496999996547, 2.821433799999795, 3.50162279999995]	5.02	5.69	3.0	20hz	high_pain	47.4			sub-026	250	26	45.2	47.4	COM11	COM16	COM3	2024-03-19_09h59.00.496	001-EEG_SVR_Officel	2022.2.5	143.9033199933916		5.691999999999993	0_sub-pilot026_SVR_EEG_block1-2.protocol.csv	step9	1444	143.648	STIMULATE	47.4	47.3	47.3	47.4	47.4	9	94.07
98.268	0	49134	wait	20	0	0	0	0	4.0	0.0	4.0	0.0						311.9793907999997	317.78629520000004	317.78629520000004	3.0	['3', 'return']	[3.3162945000003674, 4.732654300000377]	5.8	5.66	0.0	20hz	low_pain	45.2			sub-026	250	26	45.2	47.4	COM11	COM16	COM3	2024-03-19_09h59.00.496	001-EEG_SVR_Officel	2022.2.5	143.9033199933916		10.834000000000003	0_sub-pilot026_SVR_EEG_block1-2.protocol.csv	step11	1669	165.946	STIMULATE	45.2	45.1	45.1	45.1	45.3	11	116.368
104.062	0	52031	20hz	6	0	0	0	0	4.0	0.0	4.0	0.0						311.9793907999997	317.78629520000004	317.78629520000004	3.0	['3', 'return']	[3.3162945000003674, 4.732654300000377]	5.8	5.66	0.0	20hz	low_pain	45.2			sub-026	250	26	45.2	47.4	COM11	COM16	COM3	2024-03-19_09h59.00.496	001-EEG_SVR_Officel	2022.2.5	143.9033199933916		5.793999999999997	0_sub-pilot026_SVR_EEG_block1-2.protocol.csv	step11	1669	165.946	STIMULATE	45.2	45.1	45.1	45.1	45.3	11	116.368
110.472	0	55236	20/Lo	5	0	0	0	0	4.0	0.0	4.0	0.0						311.9793907999997	317.78629520000004	317.78629520000004	3.0	['3', 'return']	[3.3162945000003674, 4.732654300000377]	5.8	5.66	0.0	20hz	low_pain	45.2			sub-026	250	26	45.2	47.4	COM11	COM16	COM3	2024-03-19_09h59.00.496	001-EEG_SVR_Officel	2022.2.5	143.9033199933916		5.659999999999997	0_sub-pilot026_SVR_EEG_block1-2.protocol.csv	step11	1669	165.946	STIMULATE	45.2	45.1	45.1	45.1	45.3	11	116.368
121.82	0	60910	wait	20	0	0	0	0	5.0	0.0	5.0	0.0						335.5309352	342.80992149999975	342.80992149999975	8.0	['8', 'return']	[3.043357300000025, 3.5472813000001224]	7.27	5.15	1.0	controle	high_pain	47.4			sub-026	250	26	45.2	47.4	COM11	COM16	COM3	2024-03-19_09h59.00.496	001-EEG_SVR_Officel	2022.2.5	143.9033199933916		12.097999999999999	0_sub-pilot026_SVR_EEG_block1-2.protocol.csv	step13	1916	190.477	STIMULATE	47.5	47.4	47.4	47.3	47.7	13	140.899
129.086	0	64543	CNhz	12	0	0	0	0	5.0	0.0	5.0	0.0						335.5309352	342.80992149999975	342.80992149999975	8.0	['8', 'return']	[3.043357300000025, 3.5472813000001224]	7.27	5.15	1.0	controle	high_pain	47.4			sub-026	250	26	45.2	47.4	COM11	COM16	COM3	2024-03-19_09h59.00.496	001-EEG_SVR_Officel	2022.2.5	143.9033199933916		7.2660000000000196	0_sub-pilot026_SVR_EEG_block1-2.protocol.csv	step13	1916	190.477	STIMULATE	47.5	47.4	47.4	47.3	47.7	13	140.899
134.988	0	67494	CN/Hi	10	0	0	0	0	5.0	0.0	5.0	0.0						335.5309352	342.80992149999975	342.80992149999975	8.0	['8', 'return']	[3.043357300000025, 3.5472813000001224]	7.27	5.15	1.0	controle	high_pain	47.4			sub-026	250	26	45.2	47.4	COM11	COM16	COM3	2024-03-19_09h59.00.496	001-EEG_SVR_Officel	2022.2.5	143.9033199933916		5.151999999999987	0_sub-pilot026_SVR_EEG_block1-2.protocol.csv	step13	1916	190.477	STIMULATE	47.5	47.4	47.4	47.3	47.7	13	140.899
145.664	0	72832	wait	20	0	0	0	0	6.0	0.0	6.0	0.0						359.37447699999984	365.41693989999976	365.41693989999976	5.5	['5', 'a', '5', 'return']	[3.004919500000142, 3.2121056000000863, 3.4051139000002877, 4.365648500000134]	6.03	5.58	2.0	40hz	low_pain	45.2			sub-026	250	26	45.2	47.4	COM11	COM16	COM3	2024-03-19_09h59.00.496	001-EEG_SVR_Officel	2022.2.5	143.9033199933916		11.425999999999988	0_sub-pilot026_SVR_EEG_block1-2.protocol.csv	step15	2149	213.527	STIMULATE	45.1	45.1	45.1	45.1	45.2	15	163.94899999999998
151.694	0	75847	40hz	9	0	0	0	0	6.0	0.0	6.0	0.0						359.37447699999984	365.41693989999976	365.41693989999976	5.5	['5', 'a', '5', 'return']	[3.004919500000142, 3.2121056000000863, 3.4051139000002877, 4.365648500000134]	6.03	5.58	2.0	40hz	low_pain	45.2			sub-026	250	26	45.2	47.4	COM11	COM16	COM3	2024-03-19_09h59.00.496	001-EEG_SVR_Officel	2022.2.5	143.9033199933916		6.030000000000001	0_sub-pilot026_SVR_EEG_block1-2.protocol.csv	step15	2149	213.527	STIMULATE	45.1	45.1	45.1	45.1	45.2	15	163.94899999999998
158.026	0	79013	40/Lo	8	0	0	0	0	6.0	0.0	6.0	0.0						359.37447699999984	365.41693989999976	365.41693989999976	5.5	['5', 'a', '5', 'return']	[3.004919500000142, 3.2121056000000863, 3.4051139000002877, 4.365648500000134]	6.03	5.58	2.0	40hz	low_pain	45.2			sub-026	250	26	45.2	47.4	COM11	COM16	COM3	2024-03-19_09h59.00.496	001-EEG_SVR_Officel	2022.2.5	143.9033199933916		5.582000000000022	0_sub-pilot026_SVR_EEG_block1-2.protocol.csv	step15	2149	213.527	STIMULATE	45.1	45.1	45.1	45.1	45.2	15	163.94899999999998
169.09	0	84545	wait	20	0	0	0	0	7.0	0.0	7.0	0.0						382.8012644	389.5794289	389.5794289	8.0	['8', 'return']	[2.8275141000003714, 3.4105837000001884]	6.77	5.92	3.0	controle	high_pain	47.4			sub-026	250	26	45.2	47.4	COM11	COM16	COM3	2024-03-19_09h59.00.496	001-EEG_SVR_Officel	2022.2.5	143.9033199933916		11.813999999999993	0_sub-pilot026_SVR_EEG_block1-2.protocol.csv	step17	2395	237.955	STIMULATE	47.4	47.3	47.3	47.3	47.3	17	188.37700000000004
175.856	0	87928	CNhz	12	0	0	0	0	7.0	0.0	7.0	0.0						382.8012644	389.5794289	389.5794289	8.0	['8', 'return']	[2.8275141000003714, 3.4105837000001884]	6.77	5.92	3.0	controle	high_pain	47.4			sub-026	250	26	45.2	47.4	COM11	COM16	COM3	2024-03-19_09h59.00.496	001-EEG_SVR_Officel	2022.2.5	143.9033199933916		6.765999999999991	0_sub-pilot026_SVR_EEG_block1-2.protocol.csv	step17	2395	237.955	STIMULATE	47.4	47.3	47.3	47.3	47.3	17	188.37700000000004
182.53	0	91265	CN/Hi	10	0	0	0	0	7.0	0.0	7.0	0.0						382.8012644	389.5794289	389.5794289	8.0	['8', 'return']	[2.8275141000003714, 3.4105837000001884]	6.77	5.92	3.0	controle	high_pain	47.4			sub-026	250	26	45.2	47.4	COM11	COM16	COM3	2024-03-19_09h59.00.496	001-EEG_SVR_Officel	2022.2.5	143.9033199933916		5.924000000000007	0_sub-pilot026_SVR_EEG_block1-2.protocol.csv	step17	2395	237.955	STIMULATE	47.4	47.3	47.3	47.3	47.3	17	188.37700000000004
192.294	0	96147	wait	20	0	0	0	0	8.0	0.0	8.0	0.0						406.0055362999997	412.5619007	412.5619007	7.0	['7', 'return']	[2.4769084999998086, 3.180014499999743]	6.55	5.17	0.0	40hz	high_pain	47.4			sub-026	250	26	45.2	47.4	COM11	COM16	COM3	2024-03-19_09h59.00.496	001-EEG_SVR_Officel	2022.2.5	143.9033199933916		10.51400000000001	0_sub-pilot026_SVR_EEG_block1-2.protocol.csv	step19	2620	260.282	STIMULATE	47.5	47.3	47.3	47.4	47.6	19	210.70399999999998
198.838	0	99419	40hz	9	0	0	0	0	8.0	0.0	8.0	0.0						406.0055362999997	412.5619007	412.5619007	7.0	['7', 'return']	[2.4769084999998086, 3.180014499999743]	6.55	5.17	0.0	40hz	high_pain	47.4			sub-026	250	26	45.2	47.4	COM11	COM16	COM3	2024-03-19_09h59.00.496	001-EEG_SVR_Officel	2022.2.5	143.9033199933916		6.543999999999983	0_sub-pilot026_SVR_EEG_block1-2.protocol.csv	step19	2620	260.282	STIMULATE	47.5	47.3	47.3	47.4	47.6	19	210.70399999999998
204.76	0	102380	40/Hi	7	0	0	0	0	8.0	0.0	8.0	0.0						406.0055362999997	412.5619007	412.5619007	7.0	['7', 'return']	[2.4769084999998086, 3.180014499999743]	6.55	5.17	0.0	40hz	high_pain	47.4			sub-026	250	26	45.2	47.4	COM11	COM16	COM3	2024-03-19_09h59.00.496	001-EEG_SVR_Officel	2022.2.5	143.9033199933916		5.171999999999997	0_sub-pilot026_SVR_EEG_block1-2.protocol.csv	step19	2620	260.282	STIMULATE	47.5	47.3	47.3	47.4	47.6	19	210.70399999999998
215.046	0	107523	wait	20	0	0	0	0	9.0	0.0	9.0	0.0						428.7579479000001	434.3140927999998	434.3140927999998	1.0	['1', 'return']	[1.6464584000000286, 4.287634199999957]	5.55	6.25	1.0	controle	low_pain	45.2			sub-026	250	26	45.2	47.4	COM11	COM16	COM3	2024-03-19_09h59.00.496	001-EEG_SVR_Officel	2022.2.5	143.9033199933916		11.036000000000001	0_sub-pilot026_SVR_EEG_block1-2.protocol.csv	step21	2851	283.13	STIMULATE	45.3	45.1	45.1	45.1	45.4	21	233.552
220.592	0	110296	CNhz	12	0	0	0	0	9.0	0.0	9.0	0.0						428.7579479000001	434.3140927999998	434.3140927999998	1.0	['1', 'return']	[1.6464584000000286, 4.287634199999957]	5.55	6.25	1.0	controle	low_pain	45.2			sub-026	250	26	45.2	47.4	COM11	COM16	COM3	2024-03-19_09h59.00.496	001-EEG_SVR_Officel	2022.2.5	143.9033199933916		5.546000000000021	0_sub-pilot026_SVR_EEG_block1-2.protocol.csv	step21	2851	283.13	STIMULATE	45.3	45.1	45.1	45.1	45.4	21	233.552
227.59	0	113795	CN/Lo	11	0	0	0	0	9.0	0.0	9.0	0.0						428.7579479000001	434.3140927999998	434.3140927999998	1.0	['1', 'return']	[1.6464584000000286, 4.287634199999957]	5.55	6.25	1.0	controle	low_pain	45.2			sub-026	250	26	45.2	47.4	COM11	COM16	COM3	2024-03-19_09h59.00.496	001-EEG_SVR_Officel	2022.2.5	143.9033199933916		6.2479999999999905	0_sub-pilot026_SVR_EEG_block1-2.protocol.csv	step21	2851	283.13	STIMULATE	45.3	45.1	45.1	45.1	45.4	21	233.552
239.556	0	119778	wait	20	0	0	0	0	10.0	0.0	10.0	0.0						453.2678004	459.6156471999998	459.6156471999998	1.0	['1', 'return']	[2.878415899999709, 4.053404999999657]	6.34	5.09	2.0	10hz	low_pain	45.2			sub-026	250	26	45.2	47.4	COM11	COM16	COM3	2024-03-19_09h59.00.496	001-EEG_SVR_Officel	2022.2.5	143.9033199933916		12.716000000000008	0_sub-pilot026_SVR_EEG_block1-2.protocol.csv	step23	3093	307.174	STIMULATE	45.1	45.1	45.1	45.1	45.3	23	257.59599999999995
245.892	0	122946	10hz	3	0	0	0	0	10.0	0.0	10.0	0.0						453.2678004	459.6156471999998	459.6156471999998	1.0	['1', 'return']	[2.878415899999709, 4.053404999999657]	6.34	5.09	2.0	10hz	low_pain	45.2			sub-026	250	26	45.2	47.4	COM11	COM16	COM3	2024-03-19_09h59.00.496	001-EEG_SVR_Officel	2022.2.5	143.9033199933916		6.335999999999984	0_sub-pilot026_SVR_EEG_block1-2.protocol.csv	step23	3093	307.174	STIMULATE	45.1	45.1	45.1	45.1	45.3	23	257.59599999999995
251.732	0	125866	10/Lo	2	0	0	0	0	10.0	0.0	10.0	0.0						453.2678004	459.6156471999998	459.6156471999998	1.0	['1', 'return']	[2.878415899999709, 4.053404999999657]	6.34	5.09	2.0	10hz	low_pain	45.2			sub-026	250	26	45.2	47.4	COM11	COM16	COM3	2024-03-19_09h59.00.496	001-EEG_SVR_Officel	2022.2.5	143.9033199933916		5.090000000000003	0_sub-pilot026_SVR_EEG_block1-2.protocol.csv	step23	3093	307.174	STIMULATE	45.1	45.1	45.1	45.1	45.3	23	257.59599999999995
262.976	0	131488	wait	20	0	0	0	0	11.0	0.0	11.0	0.0						476.6871403999999	482.6393929000001	482.6393929000001	8.5	['8', 'a', '5', 'return']	[3.079208799999833, 3.5263688, 3.870483900000181, 4.614644599999792]	5.94	5.36	3.0	40hz	high_pain	47.4			sub-026	250	26	45.2	47.4	COM11	COM16	COM3	2024-03-19_09h59.00.496	001-EEG_SVR_Officel	2022.2.5	143.9033199933916		11.994	0_sub-pilot026_SVR_EEG_block1-2.protocol.csv	step25	3328	330.47	STIMULATE	47.4	47.3	47.4	47.4	47.4	25	280.892
268.914	0	134457	40hz	9	0	0	0	0	11.0	0.0	11.0	0.0						476.6871403999999	482.6393929000001	482.6393929000001	8.5	['8', 'a', '5', 'return']	[3.079208799999833, 3.5263688, 3.870483900000181, 4.614644599999792]	5.94	5.36	3.0	40hz	high_pain	47.4			sub-026	250	26	45.2	47.4	COM11	COM16	COM3	2024-03-19_09h59.00.496	001-EEG_SVR_Officel	2022.2.5	143.9033199933916		5.937999999999988	0_sub-pilot026_SVR_EEG_block1-2.protocol.csv	step25	3328	330.47	STIMULATE	47.4	47.3	47.4	47.4	47.4	25	280.892
275.024	0	137512	40/Hi	7	0	0	0	0	11.0	0.0	11.0	0.0						476.6871403999999	482.6393929000001	482.6393929000001	8.5	['8', 'a', '5', 'return']	[3.079208799999833, 3.5263688, 3.870483900000181, 4.614644599999792]	5.94	5.36	3.0	40hz	high_pain	47.4			sub-026	250	26	45.2	47.4	COM11	COM16	COM3	2024-03-19_09h59.00.496	001-EEG_SVR_Officel	2022.2.5	143.9033199933916		5.360000000000014	0_sub-pilot026_SVR_EEG_block1-2.protocol.csv	step25	3328	330.47	STIMULATE	47.4	47.3	47.4	47.4	47.4	25	280.892
286.554	0	143277	wait	20	0	0	0	0	12.0	0.0	12.0	0.0						500.2666761999999	505.43391070000007	505.43391070000007	5.0	['5', 'return']	[2.964510999999675, 3.635846899999706]	5.16	6.22	0.0	40hz	low_pain	45.2			sub-026	250	26	45.2	47.4	COM11	COM16	COM3	2024-03-19_09h59.00.496	001-EEG_SVR_Officel	2022.2.5	143.9033199933916		12.279999999999973	0_sub-pilot026_SVR_EEG_block1-2.protocol.csv	step27	3567	354.167	STIMULATE	45.3	45.1	45.1	45.1	45.3	27	304.58899999999994
291.71	0	145855	40hz	9	0	0	0	0	12.0	0.0	12.0	0.0						500.2666761999999	505.43391070000007	505.43391070000007	5.0	['5', 'return']	[2.964510999999675, 3.635846899999706]	5.16	6.22	0.0	40hz	low_pain	45.2			sub-026	250	26	45.2	47.4	COM11	COM16	COM3	2024-03-19_09h59.00.496	001-EEG_SVR_Officel	2022.2.5	143.9033199933916		5.156000000000006	0_sub-pilot026_SVR_EEG_block1-2.protocol.csv	step27	3567	354.167	STIMULATE	45.3	45.1	45.1	45.1	45.3	27	304.58899999999994
298.68	0	149340	40/Lo	8	0	0	0	0	12.0	0.0	12.0	0.0						500.2666761999999	505.43391070000007	505.43391070000007	5.0	['5', 'return']	[2.964510999999675, 3.635846899999706]	5.16	6.22	0.0	40hz	low_pain	45.2			sub-026	250	26	45.2	47.4	COM11	COM16	COM3	2024-03-19_09h59.00.496	001-EEG_SVR_Officel	2022.2.5	143.9033199933916		6.220000000000027	0_sub-pilot026_SVR_EEG_block1-2.protocol.csv	step27	3567	354.167	STIMULATE	45.3	45.1	45.1	45.1	45.3	27	304.58899999999994
308.368	0	154184	wait	20	0	0	0	0	13.0	0.0	13.0	0.0						522.0803339999998	529.8395873	529.8395873	9.0	['9', 'return']	[2.855197599999883, 3.447052999999869]	7.75	6.1	1.0	40hz	high_pain	47.4			sub-026	250	26	45.2	47.4	COM11	COM16	COM3	2024-03-19_09h59.00.496	001-EEG_SVR_Officel	2022.2.5	143.9033199933916		10.437999999999988	0_sub-pilot026_SVR_EEG_block1-2.protocol.csv	step29	3812	378.456	STIMULATE	47.5	47.3	47.3	47.4	47.6	29	328.878
316.116	0	158058	40hz	9	0	0	0	0	13.0	0.0	13.0	0.0						522.0803339999998	529.8395873	529.8395873	9.0	['9', 'return']	[2.855197599999883, 3.447052999999869]	7.75	6.1	1.0	40hz	high_pain	47.4			sub-026	250	26	45.2	47.4	COM11	COM16	COM3	2024-03-19_09h59.00.496	001-EEG_SVR_Officel	2022.2.5	143.9033199933916		7.7479999999999905	0_sub-pilot026_SVR_EEG_block1-2.protocol.csv	step29	3812	378.456	STIMULATE	47.5	47.3	47.3	47.4	47.6	29	328.878
322.968	0	161484	40/Hi	7	0	0	0	0	13.0	0.0	13.0	0.0						522.0803339999998	529.8395873	529.8395873	9.0	['9', 'return']	[2.855197599999883, 3.447052999999869]	7.75	6.1	1.0	40hz	high_pain	47.4			sub-026	250	26	45.2	47.4	COM11	COM16	COM3	2024-03-19_09h59.00.496	001-EEG_SVR_Officel	2022.2.5	143.9033199933916		6.102000000000032	0_sub-pilot026_SVR_EEG_block1-2.protocol.csv	step29	3812	378.456	STIMULATE	47.5	47.3	47.3	47.4	47.6	29	328.878
332.586	0	166293	wait	20	0	0	0	0	14.0	0.0	14.0	0.0						546.2990771999998	551.6197757	551.6197757	9.1	['9', 'a', '1', 'return']	[3.16225009999971, 3.8341417000001456, 4.3543455999997605, 5.19494450000002]	5.31	5.04	2.0	20hz	high_pain	47.4			sub-026	250	26	45.2	47.4	COM11	COM16	COM3	2024-03-19_09h59.00.496	001-EEG_SVR_Officel	2022.2.5	143.9033199933916		10.367999999999995	0_sub-pilot026_SVR_EEG_block1-2.protocol.csv	step31	4021	399.157	STIMULATE	47.4	47.4	47.4	47.3	47.3	31	349.57899999999995
337.896	0	168948	20hz	6	0	0	0	0	14.0	0.0	14.0	0.0						546.2990771999998	551.6197757	551.6197757	9.1	['9', 'a', '1', 'return']	[3.16225009999971, 3.8341417000001456, 4.3543455999997605, 5.19494450000002]	5.31	5.04	2.0	20hz	high_pain	47.4			sub-026	250	26	45.2	47.4	COM11	COM16	COM3	2024-03-19_09h59.00.496	001-EEG_SVR_Officel	2022.2.5	143.9033199933916		5.310000000000002	0_sub-pilot026_SVR_EEG_block1-2.protocol.csv	step31	4021	399.157	STIMULATE	47.4	47.4	47.4	47.3	47.3	31	349.57899999999995
343.686	0	171843	20/Hi	4	0	0	0	0	14.0	0.0	14.0	0.0						546.2990771999998	551.6197757	551.6197757	9.1	['9', 'a', '1', 'return']	[3.16225009999971, 3.8341417000001456, 4.3543455999997605, 5.19494450000002]	5.31	5.04	2.0	20hz	high_pain	47.4			sub-026	250	26	45.2	47.4	COM11	COM16	COM3	2024-03-19_09h59.00.496	001-EEG_SVR_Officel	2022.2.5	143.9033199933916		5.039999999999964	0_sub-pilot026_SVR_EEG_block1-2.protocol.csv	step31	4021	399.157	STIMULATE	47.4	47.4	47.4	47.3	47.3	31	349.57899999999995
356.118	0	178059	wait	20	0	0	0	0	15.0	0.0	15.0	0.0						569.8303510000001	575.4767976999997	575.4767976999997	4.0	['4', 'return']	[2.711939799999982, 3.320055599999705]	5.64	5.65	3.0	20hz	low_pain	45.2			sub-026	250	26	45.2	47.4	COM11	COM16	COM3	2024-03-19_09h59.00.496	001-EEG_SVR_Officel	2022.2.5	143.9033199933916		13.182000000000016	0_sub-pilot026_SVR_EEG_block1-2.protocol.csv	step33	4267	423.597	STIMULATE	45.2	45.1	45.1	45.1	45.1	33	374.01899999999995
361.752	0	180876	20hz	6	0	0	0	0	15.0	0.0	15.0	0.0						569.8303510000001	575.4767976999997	575.4767976999997	4.0	['4', 'return']	[2.711939799999982, 3.320055599999705]	5.64	5.65	3.0	20hz	low_pain	45.2			sub-026	250	26	45.2	47.4	COM11	COM16	COM3	2024-03-19_09h59.00.496	001-EEG_SVR_Officel	2022.2.5	143.9033199933916		5.6340000000000146	0_sub-pilot026_SVR_EEG_block1-2.protocol.csv	step33	4267	423.597	STIMULATE	45.2	45.1	45.1	45.1	45.1	33	374.01899999999995
368.154	0	184077	20/Lo	5	0	0	0	0	15.0	0.0	15.0	0.0						569.8303510000001	575.4767976999997	575.4767976999997	4.0	['4', 'return']	[2.711939799999982, 3.320055599999705]	5.64	5.65	3.0	20hz	low_pain	45.2			sub-026	250	26	45.2	47.4	COM11	COM16	COM3	2024-03-19_09h59.00.496	001-EEG_SVR_Officel	2022.2.5	143.9033199933916		5.651999999999987	0_sub-pilot026_SVR_EEG_block1-2.protocol.csv	step33	4267	423.597	STIMULATE	45.2	45.1	45.1	45.1	45.1	33	374.01899999999995
451.04	0	225520	wait	20	1	0	1	0	0.0	0.0	0.0	0.0				p	0.9914350999997624	664.7520620999999	671.5091904000001	671.5091904000001	4.0	['4', 'return']	[2.2732820999999603, 2.927789599999869]	6.75	5.74	0.0	controle	low_pain	45.2			sub-026	250	26	45.2	47.4	COM11	COM16	COM3	2024-03-19_09h59.00.496	001-EEG_SVR_Officel	2022.2.5	143.9033199933916		83.63600000000002	0_sub-pilot026_SVR_EEG_block1-2.protocol.csv	step35	5231	519.735	STIMULATE	45.3	45.1	45.1	45.1	45.4	35	470.15500000000003
457.784	0	228892	CNhz	12	1	0	1	0	0.0	0.0	0.0	0.0				p	0.9914350999997624	664.7520620999999	671.5091904000001	671.5091904000001	4.0	['4', 'return']	[2.2732820999999603, 2.927789599999869]	6.75	5.74	0.0	controle	low_pain	45.2			sub-026	250	26	45.2	47.4	COM11	COM16	COM3	2024-03-19_09h59.00.496	001-EEG_SVR_Officel	2022.2.5	143.9033199933916		6.743999999999971	0_sub-pilot026_SVR_EEG_block1-2.protocol.csv	step35	5231	519.735	STIMULATE	45.3	45.1	45.1	45.1	45.4	35	470.15500000000003
464.276	0	232138	CN/Lo	11	1	0	1	0	0.0	0.0	0.0	0.0				p	0.9914350999997624	664.7520620999999	671.5091904000001	671.5091904000001	4.0	['4', 'return']	[2.2732820999999603, 2.927789599999869]	6.75	5.74	0.0	controle	low_pain	45.2			sub-026	250	26	45.2	47.4	COM11	COM16	COM3	2024-03-19_09h59.00.496	001-EEG_SVR_Officel	2022.2.5	143.9033199933916		5.742000000000019	0_sub-pilot026_SVR_EEG_block1-2.protocol.csv	step35	5231	519.735	STIMULATE	45.3	45.1	45.1	45.1	45.4	35	470.15500000000003
473.742	0	236871	wait	20	1	0	1	0	1.0	0.0	1.0	0.0						687.4555711999997	694.6650334999999	694.6650334999999	7.5	['7', 'a', '5', 'return']	[2.293866900000012, 2.702320299999883, 2.9810363999999936, 3.6143536999998105]	7.2	5.16	1.0	10hz	high_pain	47.4			sub-026	250	26	45.2	47.4	COM11	COM16	COM3	2024-03-19_09h59.00.496	001-EEG_SVR_Officel	2022.2.5	143.9033199933916		10.216000000000008	0_sub-pilot026_SVR_EEG_block1-2.protocol.csv	step37	5460	542.43	STIMULATE	47.4	47.3	47.3	47.4	47.7	37	492.84999999999997
480.94	0	240470	10hz	3	1	0	1	0	1.0	0.0	1.0	0.0						687.4555711999997	694.6650334999999	694.6650334999999	7.5	['7', 'a', '5', 'return']	[2.293866900000012, 2.702320299999883, 2.9810363999999936, 3.6143536999998105]	7.2	5.16	1.0	10hz	high_pain	47.4			sub-026	250	26	45.2	47.4	COM11	COM16	COM3	2024-03-19_09h59.00.496	001-EEG_SVR_Officel	2022.2.5	143.9033199933916		7.197999999999979	0_sub-pilot026_SVR_EEG_block1-2.protocol.csv	step37	5460	542.43	STIMULATE	47.4	47.3	47.3	47.4	47.7	37	492.84999999999997
486.848	0	243424	10/Hi	1	1	0	1	0	1.0	0.0	1.0	0.0						687.4555711999997	694.6650334999999	694.6650334999999	7.5	['7', 'a', '5', 'return']	[2.293866900000012, 2.702320299999883, 2.9810363999999936, 3.6143536999998105]	7.2	5.16	1.0	10hz	high_pain	47.4			sub-026	250	26	45.2	47.4	COM11	COM16	COM3	2024-03-19_09h59.00.496	001-EEG_SVR_Officel	2022.2.5	143.9033199933916		5.1580000000000155	0_sub-pilot026_SVR_EEG_block1-2.protocol.csv	step37	5460	542.43	STIMULATE	47.4	47.3	47.3	47.4	47.7	37	492.84999999999997
497.586	0	248793	wait	20	1	0	1	0	2.0	0.0	2.0	0.0						711.2987160999996	719.3066406999997	719.3066406999997	9.0	['9', 'return']	[2.6036073999998735, 3.1472248000000036]	8.0	5.56	2.0	10hz	high_pain	47.4			sub-026	250	26	45.2	47.4	COM11	COM16	COM3	2024-03-19_09h59.00.496	001-EEG_SVR_Officel	2022.2.5	143.9033199933916		11.488	0_sub-pilot026_SVR_EEG_block1-2.protocol.csv	step39	5711	567.31	STIMULATE	47.4	47.3	47.3	47.4	47.5	39	517.73
505.582	0	252791	10hz	3	1	0	1	0	2.0	0.0	2.0	0.0						711.2987160999996	719.3066406999997	719.3066406999997	9.0	['9', 'return']	[2.6036073999998735, 3.1472248000000036]	8.0	5.56	2.0	10hz	high_pain	47.4			sub-026	250	26	45.2	47.4	COM11	COM16	COM3	2024-03-19_09h59.00.496	001-EEG_SVR_Officel	2022.2.5	143.9033199933916		7.995999999999981	0_sub-pilot026_SVR_EEG_block1-2.protocol.csv	step39	5711	567.31	STIMULATE	47.4	47.3	47.3	47.4	47.5	39	517.73
511.892	0	255946	10/Hi	1	1	0	1	0	2.0	0.0	2.0	0.0						711.2987160999996	719.3066406999997	719.3066406999997	9.0	['9', 'return']	[2.6036073999998735, 3.1472248000000036]	8.0	5.56	2.0	10hz	high_pain	47.4			sub-026	250	26	45.2	47.4	COM11	COM16	COM3	2024-03-19_09h59.00.496	001-EEG_SVR_Officel	2022.2.5	143.9033199933916		5.560000000000002	0_sub-pilot026_SVR_EEG_block1-2.protocol.csv	step39	5711	567.31	STIMULATE	47.4	47.3	47.3	47.4	47.5	39	517.73
521.754	0	260877	wait	20	1	0	1	0	3.0	0.0	3.0	0.0						735.4682374999998	743.2888312	743.2888312	4.0	['4', 'return']	[3.1007402000000184, 3.693217999999888]	7.81	5.78	3.0	10hz	low_pain	45.2			sub-026	250	26	45.2	47.4	COM11	COM16	COM3	2024-03-19_09h59.00.496	001-EEG_SVR_Officel	2022.2.5	143.9033199933916		10.612000000000023	0_sub-pilot026_SVR_EEG_block1-2.protocol.csv	step41	5956	591.629	STIMULATE	45.1	45.0	45.1	45.1	45.1	41	542.049
529.564	0	264782	10hz	3	1	0	1	0	3.0	0.0	3.0	0.0						735.4682374999998	743.2888312	743.2888312	4.0	['4', 'return']	[3.1007402000000184, 3.693217999999888]	7.81	5.78	3.0	10hz	low_pain	45.2			sub-026	250	26	45.2	47.4	COM11	COM16	COM3	2024-03-19_09h59.00.496	001-EEG_SVR_Officel	2022.2.5	143.9033199933916		7.809999999999945	0_sub-pilot026_SVR_EEG_block1-2.protocol.csv	step41	5956	591.629	STIMULATE	45.1	45.0	45.1	45.1	45.1	41	542.049
536.096	0	268048	10/Lo	2	1	0	1	0	3.0	0.0	3.0	0.0						735.4682374999998	743.2888312	743.2888312	4.0	['4', 'return']	[3.1007402000000184, 3.693217999999888]	7.81	5.78	3.0	10hz	low_pain	45.2			sub-026	250	26	45.2	47.4	COM11	COM16	COM3	2024-03-19_09h59.00.496	001-EEG_SVR_Officel	2022.2.5	143.9033199933916		5.782000000000039	0_sub-pilot026_SVR_EEG_block1-2.protocol.csv	step41	5956	591.629	STIMULATE	45.1	45.0	45.1	45.1	45.1	41	542.049
546.286	0	273143	wait	20	1	0	1	0	4.0	0.0	4.0	0.0						759.9994314	767.7992351999997	767.7992351999997	7.5	['7', 'a', '5', 'return']	[2.9525557000001754, 3.3756508000001304, 3.6306549999999334, 4.503208900000118]	7.79	5.59	0.0	controle	high_pain	47.4			sub-026	250	26	45.2	47.4	COM11	COM16	COM3	2024-03-19_09h59.00.496	001-EEG_SVR_Officel	2022.2.5	143.9033199933916		10.93999999999994	0_sub-pilot026_SVR_EEG_block1-2.protocol.csv	step43	6201	615.928	STIMULATE	47.5	47.3	47.3	47.3	47.7	43	566.348
554.072	0	277036	CNhz	12	1	0	1	0	4.0	0.0	4.0	0.0						759.9994314	767.7992351999997	767.7992351999997	7.5	['7', 'a', '5', 'return']	[2.9525557000001754, 3.3756508000001304, 3.6306549999999334, 4.503208900000118]	7.79	5.59	0.0	controle	high_pain	47.4			sub-026	250	26	45.2	47.4	COM11	COM16	COM3	2024-03-19_09h59.00.496	001-EEG_SVR_Officel	2022.2.5	143.9033199933916		7.786000000000058	0_sub-pilot026_SVR_EEG_block1-2.protocol.csv	step43	6201	615.928	STIMULATE	47.5	47.3	47.3	47.3	47.7	43	566.348
560.412	0	280206	CN/Hi	10	1	0	1	0	4.0	0.0	4.0	0.0						759.9994314	767.7992351999997	767.7992351999997	7.5	['7', 'a', '5', 'return']	[2.9525557000001754, 3.3756508000001304, 3.6306549999999334, 4.503208900000118]	7.79	5.59	0.0	controle	high_pain	47.4			sub-026	250	26	45.2	47.4	COM11	COM16	COM3	2024-03-19_09h59.00.496	001-EEG_SVR_Officel	2022.2.5	143.9033199933916		5.590000000000032	0_sub-pilot026_SVR_EEG_block1-2.protocol.csv	step43	6201	615.928	STIMULATE	47.5	47.3	47.3	47.3	47.7	43	566.348
571.6	0	285800	wait	20	1	0	1	0	5.0	0.0	5.0	0.0						785.3137260999997	790.9402823	790.9402823	2.0	['2', 'return']	[2.569076100000075, 3.314058300000397]	5.62	5.76	1.0	40hz	low_pain	45.2			sub-026	250	26	45.2	47.4	COM11	COM16	COM3	2024-03-19_09h59.00.496	001-EEG_SVR_Officel	2022.2.5	143.9033199933916		11.937999999999988	0_sub-pilot026_SVR_EEG_block1-2.protocol.csv	step45	6436	639.276	STIMULATE	45.2	45.1	45.1	45.2	45.4	45	589.6959999999999
577.214	0	288607	40hz	9	1	0	1	0	5.0	0.0	5.0	0.0						785.3137260999997	790.9402823	790.9402823	2.0	['2', 'return']	[2.569076100000075, 3.314058300000397]	5.62	5.76	1.0	40hz	low_pain	45.2			sub-026	250	26	45.2	47.4	COM11	COM16	COM3	2024-03-19_09h59.00.496	001-EEG_SVR_Officel	2022.2.5	143.9033199933916		5.614000000000033	0_sub-pilot026_SVR_EEG_block1-2.protocol.csv	step45	6436	639.276	STIMULATE	45.2	45.1	45.1	45.2	45.4	45	589.6959999999999
583.728	0	291864	40/Lo	8	1	0	1	0	5.0	0.0	5.0	0.0						785.3137260999997	790.9402823	790.9402823	2.0	['2', 'return']	[2.569076100000075, 3.314058300000397]	5.62	5.76	1.0	40hz	low_pain	45.2			sub-026	250	26	45.2	47.4	COM11	COM16	COM3	2024-03-19_09h59.00.496	001-EEG_SVR_Officel	2022.2.5	143.9033199933916		5.763999999999896	0_sub-pilot026_SVR_EEG_block1-2.protocol.csv	step45	6436	639.276	STIMULATE	45.2	45.1	45.1	45.2	45.4	45	589.6959999999999
593.554	0	296777	wait	20	1	0	1	0	6.0	0.0	6.0	0.0						807.2686395999999	812.8665268	812.8665268	9.0	['9', 'return']	[2.658773299999666, 3.2109428999997363]	5.59	5.38	2.0	40hz	high_pain	47.4			sub-026	250	26	45.2	47.4	COM11	COM16	COM3	2024-03-19_09h59.00.496	001-EEG_SVR_Officel	2022.2.5	143.9033199933916		10.576000000000022	0_sub-pilot026_SVR_EEG_block1-2.protocol.csv	step47	6653	660.765	STIMULATE	47.5	47.4	47.4	47.4	47.5	47	611.185
599.14	0	299570	40hz	9	1	0	1	0	6.0	0.0	6.0	0.0						807.2686395999999	812.8665268	812.8665268	9.0	['9', 'return']	[2.658773299999666, 3.2109428999997363]	5.59	5.38	2.0	40hz	high_pain	47.4			sub-026	250	26	45.2	47.4	COM11	COM16	COM3	2024-03-19_09h59.00.496	001-EEG_SVR_Officel	2022.2.5	143.9033199933916		5.586000000000013	0_sub-pilot026_SVR_EEG_block1-2.protocol.csv	step47	6653	660.765	STIMULATE	47.5	47.4	47.4	47.4	47.5	47	611.185
605.27	0	302635	40/Hi	7	1	0	1	0	6.0	0.0	6.0	0.0						807.2686395999999	812.8665268	812.8665268	9.0	['9', 'return']	[2.658773299999666, 3.2109428999997363]	5.59	5.38	2.0	40hz	high_pain	47.4			sub-026	250	26	45.2	47.4	COM11	COM16	COM3	2024-03-19_09h59.00.496	001-EEG_SVR_Officel	2022.2.5	143.9033199933916		5.3799999999999955	0_sub-pilot026_SVR_EEG_block1-2.protocol.csv	step47	6653	660.765	STIMULATE	47.5	47.4	47.4	47.4	47.5	47	611.185
615.384	0	307692	wait	20	1	0	1	0	7.0	0.0	7.0	0.0						829.0977029000001	835.5706193000001	835.5706193000001	3.5	['3', 'a', '5', 'return']	[2.523240900000019, 2.891462600000068, 3.154753199999959, 3.9320697000002838]	6.46	5.38	3.0	controle	low_pain	45.2			sub-026	250	26	45.2	47.4	COM11	COM16	COM3	2024-03-19_09h59.00.496	001-EEG_SVR_Officel	2022.2.5	143.9033199933916		10.864000000000033	0_sub-pilot026_SVR_EEG_block1-2.protocol.csv	step49	6882	683.474	STIMULATE	45.1	45.1	45.1	45.1	45.1	49	633.894
621.844	0	310922	CNhz	12	1	0	1	0	7.0	0.0	7.0	0.0						829.0977029000001	835.5706193000001	835.5706193000001	3.5	['3', 'a', '5', 'return']	[2.523240900000019, 2.891462600000068, 3.154753199999959, 3.9320697000002838]	6.46	5.38	3.0	controle	low_pain	45.2			sub-026	250	26	45.2	47.4	COM11	COM16	COM3	2024-03-19_09h59.00.496	001-EEG_SVR_Officel	2022.2.5	143.9033199933916		6.460000000000036	0_sub-pilot026_SVR_EEG_block1-2.protocol.csv	step49	6882	683.474	STIMULATE	45.1	45.1	45.1	45.1	45.1	49	633.894
627.974	0	313987	CN/Lo	11	1	0	1	0	7.0	0.0	7.0	0.0						829.0977029000001	835.5706193000001	835.5706193000001	3.5	['3', 'a', '5', 'return']	[2.523240900000019, 2.891462600000068, 3.154753199999959, 3.9320697000002838]	6.46	5.38	3.0	controle	low_pain	45.2			sub-026	250	26	45.2	47.4	COM11	COM16	COM3	2024-03-19_09h59.00.496	001-EEG_SVR_Officel	2022.2.5	143.9033199933916		5.3799999999999955	0_sub-pilot026_SVR_EEG_block1-2.protocol.csv	step49	6882	683.474	STIMULATE	45.1	45.1	45.1	45.1	45.1	49	633.894
638.81	0	319405	wait	20	1	0	1	0	8.0	0.0	8.0	0.0						852.5240615999996	858.6427816	858.6427816	1.5	['1', 'a', '5', 'return']	[3.1949758000000656, 3.699225999999726, 4.123364799999763, 5.155442400000084]	6.11	5.55	0.0	10hz	low_pain	45.2			sub-026	250	26	45.2	47.4	COM11	COM16	COM3	2024-03-19_09h59.00.496	001-EEG_SVR_Officel	2022.2.5	143.9033199933916		11.585999999999899	0_sub-pilot026_SVR_EEG_block1-2.protocol.csv	step51	7116	706.691	STIMULATE	45.3	45.1	45.1	45.1	45.3	51	657.1110000000001
644.916	0	322458	10hz	3	1	0	1	0	8.0	0.0	8.0	0.0						852.5240615999996	858.6427816	858.6427816	1.5	['1', 'a', '5', 'return']	[3.1949758000000656, 3.699225999999726, 4.123364799999763, 5.155442400000084]	6.11	5.55	0.0	10hz	low_pain	45.2			sub-026	250	26	45.2	47.4	COM11	COM16	COM3	2024-03-19_09h59.00.496	001-EEG_SVR_Officel	2022.2.5	143.9033199933916		6.106000000000108	0_sub-pilot026_SVR_EEG_block1-2.protocol.csv	step51	7116	706.691	STIMULATE	45.3	45.1	45.1	45.1	45.3	51	657.1110000000001
651.22	0	325610	10/Lo	2	1	0	1	0	8.0	0.0	8.0	0.0						852.5240615999996	858.6427816	858.6427816	1.5	['1', 'a', '5', 'return']	[3.1949758000000656, 3.699225999999726, 4.123364799999763, 5.155442400000084]	6.11	5.55	0.0	10hz	low_pain	45.2			sub-026	250	26	45.2	47.4	COM11	COM16	COM3	2024-03-19_09h59.00.496	001-EEG_SVR_Officel	2022.2.5	143.9033199933916		5.553999999999974	0_sub-pilot026_SVR_EEG_block1-2.protocol.csv	step51	7116	706.691	STIMULATE	45.3	45.1	45.1	45.1	45.3	51	657.1110000000001
663.104	0	331552	wait	20	1	0	1	0	9.0	0.0	9.0	0.0						876.8192875	883.8422095000001	883.8422095000001	8.5	['8', 'a', '5', 'return']	[2.3575180000002547, 2.8372965000003205, 3.077218300000368, 3.773191300000235]	7.01	5.68	1.0	20hz	high_pain	47.4			sub-026	250	26	45.2	47.4	COM11	COM16	COM3	2024-03-19_09h59.00.496	001-EEG_SVR_Officel	2022.2.5	143.9033199933916		12.634000000000015	0_sub-pilot026_SVR_EEG_block1-2.protocol.csv	step53	7371	732.01	STIMULATE	47.4	47.4	47.3	47.4	47.6	53	682.4300000000001
670.114	0	335057	20hz	6	1	0	1	0	9.0	0.0	9.0	0.0						876.8192875	883.8422095000001	883.8422095000001	8.5	['8', 'a', '5', 'return']	[2.3575180000002547, 2.8372965000003205, 3.077218300000368, 3.773191300000235]	7.01	5.68	1.0	20hz	high_pain	47.4			sub-026	250	26	45.2	47.4	COM11	COM16	COM3	2024-03-19_09h59.00.496	001-EEG_SVR_Officel	2022.2.5	143.9033199933916		7.009999999999991	0_sub-pilot026_SVR_EEG_block1-2.protocol.csv	step53	7371	732.01	STIMULATE	47.4	47.4	47.3	47.4	47.6	53	682.4300000000001
676.544	0	338272	20/Hi	4	1	0	1	0	9.0	0.0	9.0	0.0						876.8192875	883.8422095000001	883.8422095000001	8.5	['8', 'a', '5', 'return']	[2.3575180000002547, 2.8372965000003205, 3.077218300000368, 3.773191300000235]	7.01	5.68	1.0	20hz	high_pain	47.4			sub-026	250	26	45.2	47.4	COM11	COM16	COM3	2024-03-19_09h59.00.496	001-EEG_SVR_Officel	2022.2.5	143.9033199933916		5.67999999999995	0_sub-pilot026_SVR_EEG_block1-2.protocol.csv	step53	7371	732.01	STIMULATE	47.4	47.4	47.3	47.4	47.6	53	682.4300000000001
686.92	0	343460	wait	20	1	0	1	0	10.0	0.0	10.0	0.0						900.6348011	907.1213153999996	907.1213153999996	4.0	['4', 'return']	[2.9266241000000264, 3.662662199999886]	6.48	5.36	2.0	20hz	low_pain	45.2			sub-026	250	26	45.2	47.4	COM11	COM16	COM3	2024-03-19_09h59.00.496	001-EEG_SVR_Officel	2022.2.5	143.9033199933916		11.125999999999976	0_sub-pilot026_SVR_EEG_block1-2.protocol.csv	step55	7604	755.082	STIMULATE	45.1	45.1	45.1	45.1	45.1	55	705.502
693.394	0	346697	20hz	6	1	0	1	0	10.0	0.0	10.0	0.0						900.6348011	907.1213153999996	907.1213153999996	4.0	['4', 'return']	[2.9266241000000264, 3.662662199999886]	6.48	5.36	2.0	20hz	low_pain	45.2			sub-026	250	26	45.2	47.4	COM11	COM16	COM3	2024-03-19_09h59.00.496	001-EEG_SVR_Officel	2022.2.5	143.9033199933916		6.474000000000046	0_sub-pilot026_SVR_EEG_block1-2.protocol.csv	step55	7604	755.082	STIMULATE	45.1	45.1	45.1	45.1	45.1	55	705.502
699.504	0	349752	20/Lo	5	1	0	1	0	10.0	0.0	10.0	0.0						900.6348011	907.1213153999996	907.1213153999996	4.0	['4', 'return']	[2.9266241000000264, 3.662662199999886]	6.48	5.36	2.0	20hz	low_pain	45.2			sub-026	250	26	45.2	47.4	COM11	COM16	COM3	2024-03-19_09h59.00.496	001-EEG_SVR_Officel	2022.2.5	143.9033199933916		5.360000000000014	0_sub-pilot026_SVR_EEG_block1-2.protocol.csv	step55	7604	755.082	STIMULATE	45.1	45.1	45.1	45.1	45.1	55	705.502
710.088	0	355044	wait	20	1	0	1	0	11.0	0.0	11.0	0.0						923.8034506999998	929.9639499	929.9639499	6.0	['6', 'return']	[2.5870170999996844, 3.209889199999907]	6.15	6.4	3.0	40hz	low_pain	45.2			sub-026	250	26	45.2	47.4	COM11	COM16	COM3	2024-03-19_09h59.00.496	001-EEG_SVR_Officel	2022.2.5	143.9033199933916		11.333999999999946	0_sub-pilot026_SVR_EEG_block1-2.protocol.csv	step57	7843	778.876	STIMULATE	45.1	45.1	45.1	45.1	45.1	57	729.296
716.238	0	358119	40hz	9	1	0	1	0	11.0	0.0	11.0	0.0						923.8034506999998	929.9639499	929.9639499	6.0	['6', 'return']	[2.5870170999996844, 3.209889199999907]	6.15	6.4	3.0	40hz	low_pain	45.2			sub-026	250	26	45.2	47.4	COM11	COM16	COM3	2024-03-19_09h59.00.496	001-EEG_SVR_Officel	2022.2.5	143.9033199933916		6.150000000000091	0_sub-pilot026_SVR_EEG_block1-2.protocol.csv	step57	7843	778.876	STIMULATE	45.1	45.1	45.1	45.1	45.1	57	729.296
723.39	0	361695	40/Lo	8	1	0	1	0	11.0	0.0	11.0	0.0						923.8034506999998	929.9639499	929.9639499	6.0	['6', 'return']	[2.5870170999996844, 3.209889199999907]	6.15	6.4	3.0	40hz	low_pain	45.2			sub-026	250	26	45.2	47.4	COM11	COM16	COM3	2024-03-19_09h59.00.496	001-EEG_SVR_Officel	2022.2.5	143.9033199933916		6.40199999999993	0_sub-pilot026_SVR_EEG_block1-2.protocol.csv	step57	7843	778.876	STIMULATE	45.1	45.1	45.1	45.1	45.1	57	729.296
732.48	0	366240	wait	20	1	0	1	0	12.0	0.0	12.0	0.0						946.1950205999996	953.2237338999998	953.2237338999998	8.0	['8', 'return']	[3.10197479999988, 3.7100608000000648]	7.02	5.2	0.0	10hz	high_pain	47.4			sub-026	250	26	45.2	47.4	COM11	COM16	COM3	2024-03-19_09h59.00.496	001-EEG_SVR_Officel	2022.2.5	143.9033199933916		9.840000000000032	0_sub-pilot026_SVR_EEG_block1-2.protocol.csv	step59	8061	801.038	STIMULATE	47.4	47.3	47.3	47.4	47.5	59	751.4580000000001
739.496	0	369748	10hz	3	1	0	1	0	12.0	0.0	12.0	0.0						946.1950205999996	953.2237338999998	953.2237338999998	8.0	['8', 'return']	[3.10197479999988, 3.7100608000000648]	7.02	5.2	0.0	10hz	high_pain	47.4			sub-026	250	26	45.2	47.4	COM11	COM16	COM3	2024-03-19_09h59.00.496	001-EEG_SVR_Officel	2022.2.5	143.9033199933916		7.015999999999963	0_sub-pilot026_SVR_EEG_block1-2.protocol.csv	step59	8061	801.038	STIMULATE	47.4	47.3	47.3	47.4	47.5	59	751.4580000000001
745.448	0	372724	10/Hi	1	1	0	1	0	12.0	0.0	12.0	0.0						946.1950205999996	953.2237338999998	953.2237338999998	8.0	['8', 'return']	[3.10197479999988, 3.7100608000000648]	7.02	5.2	0.0	10hz	high_pain	47.4			sub-026	250	26	45.2	47.4	COM11	COM16	COM3	2024-03-19_09h59.00.496	001-EEG_SVR_Officel	2022.2.5	143.9033199933916		5.201999999999998	0_sub-pilot026_SVR_EEG_block1-2.protocol.csv	step59	8061	801.038	STIMULATE	47.4	47.3	47.3	47.4	47.5	59	751.4580000000001
756.24	0	378120	wait	20	1	0	1	0	13.0	0.0	13.0	0.0						969.9548998	976.3377571	976.3377571	6.5	['6', 'a', '5', 'return']	[2.6538227999999435, 2.9577400000002854, 3.773610799999915, 5.05343640000001]	6.37	6.47	1.0	10hz	low_pain	45.2			sub-026	250	26	45.2	47.4	COM11	COM16	COM3	2024-03-19_09h59.00.496	001-EEG_SVR_Officel	2022.2.5	143.9033199933916		11.54200000000003	0_sub-pilot026_SVR_EEG_block1-2.protocol.csv	step61	8298	825.474	STIMULATE	45.2	45.1	45.1	45.1	45.3	61	775.894
762.612	0	381306	10hz	3	1	0	1	0	13.0	0.0	13.0	0.0						969.9548998	976.3377571	976.3377571	6.5	['6', 'a', '5', 'return']	[2.6538227999999435, 2.9577400000002854, 3.773610799999915, 5.05343640000001]	6.37	6.47	1.0	10hz	low_pain	45.2			sub-026	250	26	45.2	47.4	COM11	COM16	COM3	2024-03-19_09h59.00.496	001-EEG_SVR_Officel	2022.2.5	143.9033199933916		6.371999999999957	0_sub-pilot026_SVR_EEG_block1-2.protocol.csv	step61	8298	825.474	STIMULATE	45.2	45.1	45.1	45.1	45.3	61	775.894
769.832	0	384916	10/Lo	2	1	0	1	0	13.0	0.0	13.0	0.0						969.9548998	976.3377571	976.3377571	6.5	['6', 'a', '5', 'return']	[2.6538227999999435, 2.9577400000002854, 3.773610799999915, 5.05343640000001]	6.37	6.47	1.0	10hz	low_pain	45.2			sub-026	250	26	45.2	47.4	COM11	COM16	COM3	2024-03-19_09h59.00.496	001-EEG_SVR_Officel	2022.2.5	143.9033199933916		6.470000000000027	0_sub-pilot026_SVR_EEG_block1-2.protocol.csv	step61	8298	825.474	STIMULATE	45.2	45.1	45.1	45.1	45.3	61	775.894
780.688	0	390344	wait	20	1	0	1	0	14.0	0.0	14.0	0.0						994.4021961999996	1001.8822456999995	1001.8822456999995	9.0	['9', 'return']	[2.7790908000001764, 3.299634800000149]	7.47	5.65	2.0	controle	high_pain	47.4			sub-026	250	26	45.2	47.4	COM11	COM16	COM3	2024-03-19_09h59.00.496	001-EEG_SVR_Officel	2022.2.5	143.9033199933916		11.605999999999995	0_sub-pilot026_SVR_EEG_block1-2.protocol.csv	step63	8534	850.082	STIMULATE	47.5	47.3	47.4	47.3	47.4	63	800.502
788.154	0	394077	CNhz	12	1	0	1	0	14.0	0.0	14.0	0.0						994.4021961999996	1001.8822456999995	1001.8822456999995	9.0	['9', 'return']	[2.7790908000001764, 3.299634800000149]	7.47	5.65	2.0	controle	high_pain	47.4			sub-026	250	26	45.2	47.4	COM11	COM16	COM3	2024-03-19_09h59.00.496	001-EEG_SVR_Officel	2022.2.5	143.9033199933916		7.466000000000008	0_sub-pilot026_SVR_EEG_block1-2.protocol.csv	step63	8534	850.082	STIMULATE	47.5	47.3	47.4	47.3	47.4	63	800.502
794.556	0	397278	CN/Hi	10	1	0	1	0	14.0	0.0	14.0	0.0						994.4021961999996	1001.8822456999995	1001.8822456999995	9.0	['9', 'return']	[2.7790908000001764, 3.299634800000149]	7.47	5.65	2.0	controle	high_pain	47.4			sub-026	250	26	45.2	47.4	COM11	COM16	COM3	2024-03-19_09h59.00.496	001-EEG_SVR_Officel	2022.2.5	143.9033199933916		5.652000000000044	0_sub-pilot026_SVR_EEG_block1-2.protocol.csv	step63	8534	850.082	STIMULATE	47.5	47.3	47.4	47.3	47.4	63	800.502
804.48	0	402240	wait	20	1	0	1	0	15.0	0.0	15.0	0.0						1018.1965907999996	1024.2395686	1024.2395686	8.0	['8', 'return']	[2.8862223999999514, 3.4307356999997864]	6.03	5.91	3.0	10hz	high_pain	47.4			sub-026	250	26	45.2	47.4	COM11	COM16	COM3	2024-03-19_09h59.00.496	001-EEG_SVR_Officel	2022.2.5	143.9033199933916		10.673999999999978	0_sub-pilot026_SVR_EEG_block1-2.protocol.csv	step65	8749	872.687	STIMULATE	47.4	47.3	47.4	47.4	47.4	65	823.107
810.512	0	405256	10hz	3	1	0	1	0	15.0	0.0	15.0	0.0						1018.1965907999996	1024.2395686	1024.2395686	8.0	['8', 'return']	[2.8862223999999514, 3.4307356999997864]	6.03	5.91	3.0	10hz	high_pain	47.4			sub-026	250	26	45.2	47.4	COM11	COM16	COM3	2024-03-19_09h59.00.496	001-EEG_SVR_Officel	2022.2.5	143.9033199933916		6.031999999999925	0_sub-pilot026_SVR_EEG_block1-2.protocol.csv	step65	8749	872.687	STIMULATE	47.4	47.3	47.4	47.4	47.4	65	823.107
817.17	0	408585	10/Hi	1	1	0	1	0	15.0	0.0	15.0	0.0						1018.1965907999996	1024.2395686	1024.2395686	8.0	['8', 'return']	[2.8862223999999514, 3.4307356999997864]	6.03	5.91	3.0	10hz	high_pain	47.4			sub-026	250	26	45.2	47.4	COM11	COM16	COM3	2024-03-19_09h59.00.496	001-EEG_SVR_Officel	2022.2.5	143.9033199933916		5.9080000000000155	0_sub-pilot026_SVR_EEG_block1-2.protocol.csv	step65	8749	872.687	STIMULATE	47.4	47.3	47.4	47.4	47.4	65	823.107
885.616	0	442808	wait	20	2	0	2	0	0.0	0.0	0.0	0.0				p	0.7957538000000568	1099.3308635	1104.4501772	1104.4501772	8.0	['8', 'return']	[2.267496299999948, 2.8834937999999966]	5.11	5.93	0.0	40hz	high_pain	47.4			sub-026	250	26	45.2	47.4	COM11	COM16	COM3	2024-03-19_09h59.00.496	001-EEG_SVR_Officel	2022.2.5	143.9033199933916		69.19600000000003	1_sub-pilot026_SVR_EEG_block3-4.protocol.csv	step3	656	65.434	STIMULATE	47.4	47.3	47.3	47.3	47.6	3	903.252
890.722	0	445361	40hz	9	2	0	2	0	0.0	0.0	0.0	0.0				p	0.7957538000000568	1099.3308635	1104.4501772	1104.4501772	8.0	['8', 'return']	[2.267496299999948, 2.8834937999999966]	5.11	5.93	0.0	40hz	high_pain	47.4			sub-026	250	26	45.2	47.4	COM11	COM16	COM3	2024-03-19_09h59.00.496	001-EEG_SVR_Officel	2022.2.5	143.9033199933916		5.1059999999999945	1_sub-pilot026_SVR_EEG_block3-4.protocol.csv	step3	656	65.434	STIMULATE	47.4	47.3	47.3	47.3	47.6	3	903.252
897.4	0	448700	40/Hi	7	2	0	2	0	0.0	0.0	0.0	0.0				p	0.7957538000000568	1099.3308635	1104.4501772	1104.4501772	8.0	['8', 'return']	[2.267496299999948, 2.8834937999999966]	5.11	5.93	0.0	40hz	high_pain	47.4			sub-026	250	26	45.2	47.4	COM11	COM16	COM3	2024-03-19_09h59.00.496	001-EEG_SVR_Officel	2022.2.5	143.9033199933916		5.927999999999997	1_sub-pilot026_SVR_EEG_block3-4.protocol.csv	step3	656	65.434	STIMULATE	47.4	47.3	47.3	47.3	47.6	3	903.252
906.638	0	453319	wait	20	2	0	2	0	1.0	0.0	1.0	0.0						1120.3552614	1125.6755476999997	1125.6755476999997	5.0	['5', 'return']	[2.755506299999979, 3.451340099999925]	5.31	5.28	1.0	20hz	low_pain	45.2			sub-026	250	26	45.2	47.4	COM11	COM16	COM3	2024-03-19_09h59.00.496	001-EEG_SVR_Officel	2022.2.5	143.9033199933916		9.988000000000056	1_sub-pilot026_SVR_EEG_block3-4.protocol.csv	step5	864	86.02	STIMULATE	45.2	45.1	45.1	45.2	45.4	5	923.838
911.948	0	455974	20hz	6	2	0	2	0	1.0	0.0	1.0	0.0						1120.3552614	1125.6755476999997	1125.6755476999997	5.0	['5', 'return']	[2.755506299999979, 3.451340099999925]	5.31	5.28	1.0	20hz	low_pain	45.2			sub-026	250	26	45.2	47.4	COM11	COM16	COM3	2024-03-19_09h59.00.496	001-EEG_SVR_Officel	2022.2.5	143.9033199933916		5.309999999999945	1_sub-pilot026_SVR_EEG_block3-4.protocol.csv	step5	864	86.02	STIMULATE	45.2	45.1	45.1	45.2	45.4	5	923.838
917.982	0	458991	20/Lo	5	2	0	2	0	1.0	0.0	1.0	0.0						1120.3552614	1125.6755476999997	1125.6755476999997	5.0	['5', 'return']	[2.755506299999979, 3.451340099999925]	5.31	5.28	1.0	20hz	low_pain	45.2			sub-026	250	26	45.2	47.4	COM11	COM16	COM3	2024-03-19_09h59.00.496	001-EEG_SVR_Officel	2022.2.5	143.9033199933916		5.283999999999992	1_sub-pilot026_SVR_EEG_block3-4.protocol.csv	step5	864	86.02	STIMULATE	45.2	45.1	45.1	45.2	45.4	5	923.838
928.434	0	464217	wait	20	2	0	2	0	2.0	0.0	2.0	0.0						1142.1495562	1149.3792482	1149.3792482	5.5	['5', 'a', '5', 'return']	[2.987446699999964, 3.1943701000000146, 3.41895599999998, 4.186180499999864]	7.22	5.88	2.0	20hz	low_pain	45.2			sub-026	250	26	45.2	47.4	COM11	COM16	COM3	2024-03-19_09h59.00.496	001-EEG_SVR_Officel	2022.2.5	143.9033199933916		11.201999999999998	1_sub-pilot026_SVR_EEG_block3-4.protocol.csv	step7	1109	110.331	STIMULATE	45.1	45.1	45.1	45.1	45.1	7	948.149
935.65	0	467825	20hz	6	2	0	2	0	2.0	0.0	2.0	0.0						1142.1495562	1149.3792482	1149.3792482	5.5	['5', 'a', '5', 'return']	[2.987446699999964, 3.1943701000000146, 3.41895599999998, 4.186180499999864]	7.22	5.88	2.0	20hz	low_pain	45.2			sub-026	250	26	45.2	47.4	COM11	COM16	COM3	2024-03-19_09h59.00.496	001-EEG_SVR_Officel	2022.2.5	143.9033199933916		7.216000000000008	1_sub-pilot026_SVR_EEG_block3-4.protocol.csv	step7	1109	110.331	STIMULATE	45.1	45.1	45.1	45.1	45.1	7	948.149
942.28	0	471140	20/Lo	5	2	0	2	0	2.0	0.0	2.0	0.0						1142.1495562	1149.3792482	1149.3792482	5.5	['5', 'a', '5', 'return']	[2.987446699999964, 3.1943701000000146, 3.41895599999998, 4.186180499999864]	7.22	5.88	2.0	20hz	low_pain	45.2			sub-026	250	26	45.2	47.4	COM11	COM16	COM3	2024-03-19_09h59.00.496	001-EEG_SVR_Officel	2022.2.5	143.9033199933916		5.8799999999999955	1_sub-pilot026_SVR_EEG_block3-4.protocol.csv	step7	1109	110.331	STIMULATE	45.1	45.1	45.1	45.1	45.1	7	948.149
952.866	0	476433	wait	20	2	0	2	0	3.0	0.0	3.0	0.0						1166.5829202999998	1174.2989049999996	1174.2989049999996	4.0	['4', 'return']	[2.196211299999959, 2.843599599999834]	7.71	5.35	3.0	controle	low_pain	45.2			sub-026	250	26	45.2	47.4	COM11	COM16	COM3	2024-03-19_09h59.00.496	001-EEG_SVR_Officel	2022.2.5	143.9033199933916		11.336000000000013	1_sub-pilot026_SVR_EEG_block3-4.protocol.csv	step9	1355	134.715	STIMULATE	45.1	45.1	45.1	45.1	45.1	9	972.533
960.57	0	480285	CNhz	12	2	0	2	0	3.0	0.0	3.0	0.0						1166.5829202999998	1174.2989049999996	1174.2989049999996	4.0	['4', 'return']	[2.196211299999959, 2.843599599999834]	7.71	5.35	3.0	controle	low_pain	45.2			sub-026	250	26	45.2	47.4	COM11	COM16	COM3	2024-03-19_09h59.00.496	001-EEG_SVR_Officel	2022.2.5	143.9033199933916		7.704000000000065	1_sub-pilot026_SVR_EEG_block3-4.protocol.csv	step9	1355	134.715	STIMULATE	45.1	45.1	45.1	45.1	45.1	9	972.533
966.674	0	483337	CN/Lo	11	2	0	2	0	3.0	0.0	3.0	0.0						1166.5829202999998	1174.2989049999996	1174.2989049999996	4.0	['4', 'return']	[2.196211299999959, 2.843599599999834]	7.71	5.35	3.0	controle	low_pain	45.2			sub-026	250	26	45.2	47.4	COM11	COM16	COM3	2024-03-19_09h59.00.496	001-EEG_SVR_Officel	2022.2.5	143.9033199933916		5.353999999999928	1_sub-pilot026_SVR_EEG_block3-4.protocol.csv	step9	1355	134.715	STIMULATE	45.1	45.1	45.1	45.1	45.1	9	972.533
976.438	0	488219	wait	20	2	0	2	0	4.0	0.0	4.0	0.0						1190.1543723	1196.3014687999998	1196.3014687999998	8.0	['8', 'return']	[2.6176932999997007, 3.153098599999794]	6.14	5.54	0.0	controle	high_pain	47.4			sub-026	250	26	45.2	47.4	COM11	COM16	COM3	2024-03-19_09h59.00.496	001-EEG_SVR_Officel	2022.2.5	143.9033199933916		10.51400000000001	1_sub-pilot026_SVR_EEG_block3-4.protocol.csv	step11	1578	156.806	STIMULATE	47.4	47.3	47.3	47.4	47.6	11	994.624
982.574	0	491287	CNhz	12	2	0	2	0	4.0	0.0	4.0	0.0						1190.1543723	1196.3014687999998	1196.3014687999998	8.0	['8', 'return']	[2.6176932999997007, 3.153098599999794]	6.14	5.54	0.0	controle	high_pain	47.4			sub-026	250	26	45.2	47.4	COM11	COM16	COM3	2024-03-19_09h59.00.496	001-EEG_SVR_Officel	2022.2.5	143.9033199933916		6.135999999999967	1_sub-pilot026_SVR_EEG_block3-4.protocol.csv	step11	1578	156.806	STIMULATE	47.4	47.3	47.3	47.4	47.6	11	994.624
988.864	0	494432	CN/Hi	10	2	0	2	0	4.0	0.0	4.0	0.0						1190.1543723	1196.3014687999998	1196.3014687999998	8.0	['8', 'return']	[2.6176932999997007, 3.153098599999794]	6.14	5.54	0.0	controle	high_pain	47.4			sub-026	250	26	45.2	47.4	COM11	COM16	COM3	2024-03-19_09h59.00.496	001-EEG_SVR_Officel	2022.2.5	143.9033199933916		5.540000000000077	1_sub-pilot026_SVR_EEG_block3-4.protocol.csv	step11	1578	156.806	STIMULATE	47.4	47.3	47.3	47.4	47.6	11	994.624
998.754	0	499377	wait	20	2	0	2	0	5.0	0.0	5.0	0.0						1212.4702161	1218.3666945999998	1218.3666945999998	9.0	['9', 'return']	[2.5438186999999743, 3.0388339999999516]	5.89	5.93	1.0	40hz	high_pain	47.4			sub-026	250	26	45.2	47.4	COM11	COM16	COM3	2024-03-19_09h59.00.496	001-EEG_SVR_Officel	2022.2.5	143.9033199933916		10.639999999999986	1_sub-pilot026_SVR_EEG_block3-4.protocol.csv	step13	1805	179.316	STIMULATE	47.4	47.3	47.3	47.3	47.6	13	1017.134
1004.638	0	502319	40hz	9	2	0	2	0	5.0	0.0	5.0	0.0						1212.4702161	1218.3666945999998	1218.3666945999998	9.0	['9', 'return']	[2.5438186999999743, 3.0388339999999516]	5.89	5.93	1.0	40hz	high_pain	47.4			sub-026	250	26	45.2	47.4	COM11	COM16	COM3	2024-03-19_09h59.00.496	001-EEG_SVR_Officel	2022.2.5	143.9033199933916		5.8840000000000146	1_sub-pilot026_SVR_EEG_block3-4.protocol.csv	step13	1805	179.316	STIMULATE	47.4	47.3	47.3	47.3	47.6	13	1017.134
1011.318	0	505659	40/Hi	7	2	0	2	0	5.0	0.0	5.0	0.0						1212.4702161	1218.3666945999998	1218.3666945999998	9.0	['9', 'return']	[2.5438186999999743, 3.0388339999999516]	5.89	5.93	1.0	40hz	high_pain	47.4			sub-026	250	26	45.2	47.4	COM11	COM16	COM3	2024-03-19_09h59.00.496	001-EEG_SVR_Officel	2022.2.5	143.9033199933916		5.92999999999995	1_sub-pilot026_SVR_EEG_block3-4.protocol.csv	step13	1805	179.316	STIMULATE	47.4	47.3	47.3	47.3	47.6	13	1017.134
1020.708	0	510354	wait	20	2	0	2	0	6.0	0.0	6.0	0.0						1234.4240989999998	1239.7233739999997	1239.7233739999997	5.0	['5', 'return']	[2.562840800000231, 3.171151700000337]	5.29	5.68	2.0	10hz	low_pain	45.2			sub-026	250	26	45.2	47.4	COM11	COM16	COM3	2024-03-19_09h59.00.496	001-EEG_SVR_Officel	2022.2.5	143.9033199933916		10.139999999999986	1_sub-pilot026_SVR_EEG_block3-4.protocol.csv	step15	2018	200.47	STIMULATE	45.1	45.1	45.1	45.1	45.1	15	1038.288
1025.996	0	512998	10hz	3	2	0	2	0	6.0	0.0	6.0	0.0						1234.4240989999998	1239.7233739999997	1239.7233739999997	5.0	['5', 'return']	[2.562840800000231, 3.171151700000337]	5.29	5.68	2.0	10hz	low_pain	45.2			sub-026	250	26	45.2	47.4	COM11	COM16	COM3	2024-03-19_09h59.00.496	001-EEG_SVR_Officel	2022.2.5	143.9033199933916		5.288000000000125	1_sub-pilot026_SVR_EEG_block3-4.protocol.csv	step15	2018	200.47	STIMULATE	45.1	45.1	45.1	45.1	45.1	15	1038.288
1032.424	0	516212	10/Lo	2	2	0	2	0	6.0	0.0	6.0	0.0						1234.4240989999998	1239.7233739999997	1239.7233739999997	5.0	['5', 'return']	[2.562840800000231, 3.171151700000337]	5.29	5.68	2.0	10hz	low_pain	45.2			sub-026	250	26	45.2	47.4	COM11	COM16	COM3	2024-03-19_09h59.00.496	001-EEG_SVR_Officel	2022.2.5	143.9033199933916		5.677999999999884	1_sub-pilot026_SVR_EEG_block3-4.protocol.csv	step15	2018	200.47	STIMULATE	45.1	45.1	45.1	45.1	45.1	15	1038.288
1042.19	0	521095	wait	20	2	0	2	0	7.0	0.0	7.0	0.0						1255.9058462999997	1262.9136779	1262.9136779	4.0	['4', 'return']	[2.309148499999992, 2.9565425999999206]	7.0	5.71	3.0	20hz	low_pain	45.2			sub-026	250	26	45.2	47.4	COM11	COM16	COM3	2024-03-19_09h59.00.496	001-EEG_SVR_Officel	2022.2.5	143.9033199933916		10.516000000000076	1_sub-pilot026_SVR_EEG_block3-4.protocol.csv	step17	2252	223.608	STIMULATE	45.1	45.1	45.1	45.1	45.1	17	1061.426
1049.184	0	524592	20hz	6	2	0	2	0	7.0	0.0	7.0	0.0						1255.9058462999997	1262.9136779	1262.9136779	4.0	['4', 'return']	[2.309148499999992, 2.9565425999999206]	7.0	5.71	3.0	20hz	low_pain	45.2			sub-026	250	26	45.2	47.4	COM11	COM16	COM3	2024-03-19_09h59.00.496	001-EEG_SVR_Officel	2022.2.5	143.9033199933916		6.9939999999999145	1_sub-pilot026_SVR_EEG_block3-4.protocol.csv	step17	2252	223.608	STIMULATE	45.1	45.1	45.1	45.1	45.1	17	1061.426
1055.65	0	527825	20/Lo	5	2	0	2	0	7.0	0.0	7.0	0.0						1255.9058462999997	1262.9136779	1262.9136779	4.0	['4', 'return']	[2.309148499999992, 2.9565425999999206]	7.0	5.71	3.0	20hz	low_pain	45.2			sub-026	250	26	45.2	47.4	COM11	COM16	COM3	2024-03-19_09h59.00.496	001-EEG_SVR_Officel	2022.2.5	143.9033199933916		5.716000000000122	1_sub-pilot026_SVR_EEG_block3-4.protocol.csv	step17	2252	223.608	STIMULATE	45.1	45.1	45.1	45.1	45.1	17	1061.426
1065.162	0	532581	wait	20	2	0	2	0	8.0	0.0	8.0	0.0						1278.8804249	1286.4164734	1286.4164734	1.5	['1', 'a', '5', 'return']	[2.7982363000000987, 3.3335062000001017, 3.701507799999945, 4.6705879000001005]	7.53	5.77	0.0	10hz	low_pain	45.2			sub-026	250	26	45.2	47.4	COM11	COM16	COM3	2024-03-19_09h59.00.496	001-EEG_SVR_Officel	2022.2.5	143.9033199933916		10.261999999999944	1_sub-pilot026_SVR_EEG_block3-4.protocol.csv	step19	2490	247.278	STIMULATE	45.2	45.1	45.1	45.1	45.3	19	1085.096
1072.688	0	536344	10hz	3	2	0	2	0	8.0	0.0	8.0	0.0						1278.8804249	1286.4164734	1286.4164734	1.5	['1', 'a', '5', 'return']	[2.7982363000000987, 3.3335062000001017, 3.701507799999945, 4.6705879000001005]	7.53	5.77	0.0	10hz	low_pain	45.2			sub-026	250	26	45.2	47.4	COM11	COM16	COM3	2024-03-19_09h59.00.496	001-EEG_SVR_Officel	2022.2.5	143.9033199933916		7.526000000000067	1_sub-pilot026_SVR_EEG_block3-4.protocol.csv	step19	2490	247.278	STIMULATE	45.2	45.1	45.1	45.1	45.3	19	1085.096
1079.208	0	539604	10/Lo	2	2	0	2	0	8.0	0.0	8.0	0.0						1278.8804249	1286.4164734	1286.4164734	1.5	['1', 'a', '5', 'return']	[2.7982363000000987, 3.3335062000001017, 3.701507799999945, 4.6705879000001005]	7.53	5.77	0.0	10hz	low_pain	45.2			sub-026	250	26	45.2	47.4	COM11	COM16	COM3	2024-03-19_09h59.00.496	001-EEG_SVR_Officel	2022.2.5	143.9033199933916		5.769999999999982	1_sub-pilot026_SVR_EEG_block3-4.protocol.csv	step19	2490	247.278	STIMULATE	45.2	45.1	45.1	45.1	45.3	19	1085.096
1090.388	0	545194	wait	20	2	0	2	0	9.0	0.0	9.0	0.0						1304.1062744	1310.2042088999997	1310.2042088999997	8.5	['8', 'a', '5', 'return']	[1.9930718999999044, 2.4576757999998335, 2.777683899999829, 3.5537884000000304]	6.09	5.28	1.0	controle	high_pain	47.4			sub-026	250	26	45.2	47.4	COM11	COM16	COM3	2024-03-19_09h59.00.496	001-EEG_SVR_Officel	2022.2.5	143.9033199933916		11.929999999999836	1_sub-pilot026_SVR_EEG_block3-4.protocol.csv	step21	2725	270.521	STIMULATE	47.4	47.3	47.4	47.4	47.5	21	1108.339
1096.474	0	548237	CNhz	12	2	0	2	0	9.0	0.0	9.0	0.0						1304.1062744	1310.2042088999997	1310.2042088999997	8.5	['8', 'a', '5', 'return']	[1.9930718999999044, 2.4576757999998335, 2.777683899999829, 3.5537884000000304]	6.09	5.28	1.0	controle	high_pain	47.4			sub-026	250	26	45.2	47.4	COM11	COM16	COM3	2024-03-19_09h59.00.496	001-EEG_SVR_Officel	2022.2.5	143.9033199933916		6.086000000000013	1_sub-pilot026_SVR_EEG_block3-4.protocol.csv	step21	2725	270.521	STIMULATE	47.4	47.3	47.4	47.4	47.5	21	1108.339
1102.508	0	551254	CN/Hi	10	2	0	2	0	9.0	0.0	9.0	0.0						1304.1062744	1310.2042088999997	1310.2042088999997	8.5	['8', 'a', '5', 'return']	[1.9930718999999044, 2.4576757999998335, 2.777683899999829, 3.5537884000000304]	6.09	5.28	1.0	controle	high_pain	47.4			sub-026	250	26	45.2	47.4	COM11	COM16	COM3	2024-03-19_09h59.00.496	001-EEG_SVR_Officel	2022.2.5	143.9033199933916		5.2840000000001055	1_sub-pilot026_SVR_EEG_block3-4.protocol.csv	step21	2725	270.521	STIMULATE	47.4	47.3	47.4	47.4	47.5	21	1108.339
1113.052	0	556526	wait	20	2	0	2	0	10.0	0.0	10.0	0.0						1326.7690343999998	1333.2417106999997	1333.2417106999997	5.0	['5', 'return']	[2.6102264999999534, 3.282264800000121]	6.46	6.45	2.0	controle	low_pain	45.2			sub-026	250	26	45.2	47.4	COM11	COM16	COM3	2024-03-19_09h59.00.496	001-EEG_SVR_Officel	2022.2.5	143.9033199933916		11.293999999999869	1_sub-pilot026_SVR_EEG_block3-4.protocol.csv	step23	2969	294.73	STIMULATE	45.1	45.1	45.1	45.1	45.2	23	1132.548
1119.512	0	559756	CNhz	12	2	0	2	0	10.0	0.0	10.0	0.0						1326.7690343999998	1333.2417106999997	1333.2417106999997	5.0	['5', 'return']	[2.6102264999999534, 3.282264800000121]	6.46	6.45	2.0	controle	low_pain	45.2			sub-026	250	26	45.2	47.4	COM11	COM16	COM3	2024-03-19_09h59.00.496	001-EEG_SVR_Officel	2022.2.5	143.9033199933916		6.460000000000036	1_sub-pilot026_SVR_EEG_block3-4.protocol.csv	step23	2969	294.73	STIMULATE	45.1	45.1	45.1	45.1	45.2	23	1132.548
1126.712	0	563356	CN/Lo	11	2	0	2	0	10.0	0.0	10.0	0.0						1326.7690343999998	1333.2417106999997	1333.2417106999997	5.0	['5', 'return']	[2.6102264999999534, 3.282264800000121]	6.46	6.45	2.0	controle	low_pain	45.2			sub-026	250	26	45.2	47.4	COM11	COM16	COM3	2024-03-19_09h59.00.496	001-EEG_SVR_Officel	2022.2.5	143.9033199933916		6.4500000000000455	1_sub-pilot026_SVR_EEG_block3-4.protocol.csv	step23	2969	294.73	STIMULATE	45.1	45.1	45.1	45.1	45.2	23	1132.548
1135.824	0	567912	wait	20	2	0	2	0	11.0	0.0	11.0	0.0						1349.5424724	1355.1053567	1355.1053567	9.0	['9', 'return']	[1.5088235999996868, 1.9979098999997404]	5.55	5.38	3.0	controle	high_pain	47.4			sub-026	250	26	45.2	47.4	COM11	COM16	COM3	2024-03-19_09h59.00.496	001-EEG_SVR_Officel	2022.2.5	143.9033199933916		9.86200000000008	1_sub-pilot026_SVR_EEG_block3-4.protocol.csv	step25	3180	315.633	STIMULATE	47.4	47.3	47.4	47.4	47.3	25	1153.451
1141.376	0	570688	CNhz	12	2	0	2	0	11.0	0.0	11.0	0.0						1349.5424724	1355.1053567	1355.1053567	9.0	['9', 'return']	[1.5088235999996868, 1.9979098999997404]	5.55	5.38	3.0	controle	high_pain	47.4			sub-026	250	26	45.2	47.4	COM11	COM16	COM3	2024-03-19_09h59.00.496	001-EEG_SVR_Officel	2022.2.5	143.9033199933916		5.551999999999907	1_sub-pilot026_SVR_EEG_block3-4.protocol.csv	step25	3180	315.633	STIMULATE	47.4	47.3	47.4	47.4	47.3	25	1153.451
1147.508	0	573754	CN/Hi	10	2	0	2	0	11.0	0.0	11.0	0.0						1349.5424724	1355.1053567	1355.1053567	9.0	['9', 'return']	[1.5088235999996868, 1.9979098999997404]	5.55	5.38	3.0	controle	high_pain	47.4			sub-026	250	26	45.2	47.4	COM11	COM16	COM3	2024-03-19_09h59.00.496	001-EEG_SVR_Officel	2022.2.5	143.9033199933916		5.382000000000062	1_sub-pilot026_SVR_EEG_block3-4.protocol.csv	step25	3180	315.633	STIMULATE	47.4	47.3	47.4	47.4	47.3	25	1153.451
1156.398	0	578199	wait	20	2	0	2	0	12.0	0.0	12.0	0.0						1370.1147576999997	1377.2751018999998	1377.2751018999998	8.0	['8', 'return']	[2.020682399999714, 2.5554864999999154]	7.15	6.26	0.0	20hz	high_pain	47.4			sub-026	250	26	45.2	47.4	COM11	COM16	COM3	2024-03-19_09h59.00.496	001-EEG_SVR_Officel	2022.2.5	143.9033199933916		9.639999999999873	1_sub-pilot026_SVR_EEG_block3-4.protocol.csv	step27	3412	338.619	STIMULATE	47.4	47.3	47.3	47.3	47.5	27	1176.437
1163.546	0	581773	20hz	6	2	0	2	0	12.0	0.0	12.0	0.0						1370.1147576999997	1377.2751018999998	1377.2751018999998	8.0	['8', 'return']	[2.020682399999714, 2.5554864999999154]	7.15	6.26	0.0	20hz	high_pain	47.4			sub-026	250	26	45.2	47.4	COM11	COM16	COM3	2024-03-19_09h59.00.496	001-EEG_SVR_Officel	2022.2.5	143.9033199933916		7.148000000000138	1_sub-pilot026_SVR_EEG_block3-4.protocol.csv	step27	3412	338.619	STIMULATE	47.4	47.3	47.3	47.3	47.5	27	1176.437
1170.56	0	585280	20/Hi	4	2	0	2	0	12.0	0.0	12.0	0.0						1370.1147576999997	1377.2751018999998	1377.2751018999998	8.0	['8', 'return']	[2.020682399999714, 2.5554864999999154]	7.15	6.26	0.0	20hz	high_pain	47.4			sub-026	250	26	45.2	47.4	COM11	COM16	COM3	2024-03-19_09h59.00.496	001-EEG_SVR_Officel	2022.2.5	143.9033199933916		6.263999999999896	1_sub-pilot026_SVR_EEG_block3-4.protocol.csv	step27	3412	338.619	STIMULATE	47.4	47.3	47.3	47.3	47.5	27	1176.437
1179.128	0	589564	wait	20	2	0	2	0	13.0	0.0	13.0	0.0						1392.8460099999998	1399.3467667999998	1399.3467667999998	2.0	['2', 'return']	[2.6839952999998786, 3.3483597999997983]	6.49	5.66	1.0	40hz	low_pain	45.2			sub-026	250	26	45.2	47.4	COM11	COM16	COM3	2024-03-19_09h59.00.496	001-EEG_SVR_Officel	2022.2.5	143.9033199933916		9.317999999999984	1_sub-pilot026_SVR_EEG_block3-4.protocol.csv	step29	3628	360.073	STIMULATE	45.1	45.1	45.1	45.1	45.3	29	1197.891
1185.618	0	592809	40hz	9	2	0	2	0	13.0	0.0	13.0	0.0						1392.8460099999998	1399.3467667999998	1399.3467667999998	2.0	['2', 'return']	[2.6839952999998786, 3.3483597999997983]	6.49	5.66	1.0	40hz	low_pain	45.2			sub-026	250	26	45.2	47.4	COM11	COM16	COM3	2024-03-19_09h59.00.496	001-EEG_SVR_Officel	2022.2.5	143.9033199933916		6.490000000000009	1_sub-pilot026_SVR_EEG_block3-4.protocol.csv	step29	3628	360.073	STIMULATE	45.1	45.1	45.1	45.1	45.3	29	1197.891
1192.026	0	596013	40/Lo	8	2	0	2	0	13.0	0.0	13.0	0.0						1392.8460099999998	1399.3467667999998	1399.3467667999998	2.0	['2', 'return']	[2.6839952999998786, 3.3483597999997983]	6.49	5.66	1.0	40hz	low_pain	45.2			sub-026	250	26	45.2	47.4	COM11	COM16	COM3	2024-03-19_09h59.00.496	001-EEG_SVR_Officel	2022.2.5	143.9033199933916		5.658000000000129	1_sub-pilot026_SVR_EEG_block3-4.protocol.csv	step29	3628	360.073	STIMULATE	45.1	45.1	45.1	45.1	45.3	29	1197.891
1201.992	0	600996	wait	20	2	0	2	0	14.0	0.0	14.0	0.0						1415.7098355999997	1423.5721897999997	1423.5721897999997	9.0	['9', 'return']	[2.010744500000328, 2.611489899999924]	7.85	6.41	2.0	controle	high_pain	47.4			sub-026	250	26	45.2	47.4	COM11	COM16	COM3	2024-03-19_09h59.00.496	001-EEG_SVR_Officel	2022.2.5	143.9033199933916		10.715999999999894	1_sub-pilot026_SVR_EEG_block3-4.protocol.csv	step31	3880	385.096	STIMULATE	47.4	47.3	47.3	47.3	47.4	31	1222.914
1209.842	0	604921	CNhz	12	2	0	2	0	14.0	0.0	14.0	0.0						1415.7098355999997	1423.5721897999997	1423.5721897999997	9.0	['9', 'return']	[2.010744500000328, 2.611489899999924]	7.85	6.41	2.0	controle	high_pain	47.4			sub-026	250	26	45.2	47.4	COM11	COM16	COM3	2024-03-19_09h59.00.496	001-EEG_SVR_Officel	2022.2.5	143.9033199933916		7.850000000000136	1_sub-pilot026_SVR_EEG_block3-4.protocol.csv	step31	3880	385.096	STIMULATE	47.4	47.3	47.3	47.3	47.4	31	1222.914
1217.0	0	608500	CN/Hi	10	2	0	2	0	14.0	0.0	14.0	0.0						1415.7098355999997	1423.5721897999997	1423.5721897999997	9.0	['9', 'return']	[2.010744500000328, 2.611489899999924]	7.85	6.41	2.0	controle	high_pain	47.4			sub-026	250	26	45.2	47.4	COM11	COM16	COM3	2024-03-19_09h59.00.496	001-EEG_SVR_Officel	2022.2.5	143.9033199933916		6.407999999999902	1_sub-pilot026_SVR_EEG_block3-4.protocol.csv	step31	3880	385.096	STIMULATE	47.4	47.3	47.3	47.3	47.4	31	1222.914
1225.474	0	612737	wait	20	2	0	2	0	15.0	0.0	15.0	0.0						1439.1913210999996	1444.9425418	1444.9425418	8.0	['8', 'return']	[2.3840939000001526, 2.9271192999999585]	5.74	6.03	3.0	40hz	high_pain	47.4			sub-026	250	26	45.2	47.4	COM11	COM16	COM3	2024-03-19_09h59.00.496	001-EEG_SVR_Officel	2022.2.5	143.9033199933916		9.223999999999933	1_sub-pilot026_SVR_EEG_block3-4.protocol.csv	step33	4093	406.13	STIMULATE	47.4	47.3	47.3	47.3	47.4	33	1243.9479999999999
1231.212	0	615606	40hz	9	2	0	2	0	15.0	0.0	15.0	0.0						1439.1913210999996	1444.9425418	1444.9425418	8.0	['8', 'return']	[2.3840939000001526, 2.9271192999999585]	5.74	6.03	3.0	40hz	high_pain	47.4			sub-026	250	26	45.2	47.4	COM11	COM16	COM3	2024-03-19_09h59.00.496	001-EEG_SVR_Officel	2022.2.5	143.9033199933916		5.738000000000056	1_sub-pilot026_SVR_EEG_block3-4.protocol.csv	step33	4093	406.13	STIMULATE	47.4	47.3	47.3	47.3	47.4	33	1243.9479999999999
1237.996	0	618998	40/Hi	7	2	0	2	0	15.0	0.0	15.0	0.0						1439.1913210999996	1444.9425418	1444.9425418	8.0	['8', 'return']	[2.3840939000001526, 2.9271192999999585]	5.74	6.03	3.0	40hz	high_pain	47.4			sub-026	250	26	45.2	47.4	COM11	COM16	COM3	2024-03-19_09h59.00.496	001-EEG_SVR_Officel	2022.2.5	143.9033199933916		6.0340000000001055	1_sub-pilot026_SVR_EEG_block3-4.protocol.csv	step33	4093	406.13	STIMULATE	47.4	47.3	47.3	47.3	47.4	33	1243.9479999999999
1308.422	0	654211	wait	20	3	0	3	0	0.0	0.0	0.0	0.0				p	0.4611264000004667	1522.1394814	1529.3971791	1529.3971791	3.5	['3', 'a', '5', 'return']	[2.504792400000042, 3.03274650000003, 3.8649360999997953, 4.7701061999996455]	7.25	5.6	0.0	controle	low_pain	45.2			sub-026	250	26	45.2	47.4	COM11	COM16	COM3	2024-03-19_09h59.00.496	001-EEG_SVR_Officel	2022.2.5	143.9033199933916		71.17599999999993	1_sub-pilot026_SVR_EEG_block3-4.protocol.csv	step35	4934	490.086	STIMULATE	45.3	45.0	45.1	45.1	45.3	35	1327.869
1315.666	0	657833	CNhz	12	3	0	3	0	0.0	0.0	0.0	0.0				p	0.4611264000004667	1522.1394814	1529.3971791	1529.3971791	3.5	['3', 'a', '5', 'return']	[2.504792400000042, 3.03274650000003, 3.8649360999997953, 4.7701061999996455]	7.25	5.6	0.0	controle	low_pain	45.2			sub-026	250	26	45.2	47.4	COM11	COM16	COM3	2024-03-19_09h59.00.496	001-EEG_SVR_Officel	2022.2.5	143.9033199933916		7.2439999999999145	1_sub-pilot026_SVR_EEG_block3-4.protocol.csv	step35	4934	490.086	STIMULATE	45.3	45.0	45.1	45.1	45.3	35	1327.869
1322.02	0	661010	CN/Lo	11	3	0	3	0	0.0	0.0	0.0	0.0				p	0.4611264000004667	1522.1394814	1529.3971791	1529.3971791	3.5	['3', 'a', '5', 'return']	[2.504792400000042, 3.03274650000003, 3.8649360999997953, 4.7701061999996455]	7.25	5.6	0.0	controle	low_pain	45.2			sub-026	250	26	45.2	47.4	COM11	COM16	COM3	2024-03-19_09h59.00.496	001-EEG_SVR_Officel	2022.2.5	143.9033199933916		5.604000000000042	1_sub-pilot026_SVR_EEG_block3-4.protocol.csv	step35	4934	490.086	STIMULATE	45.3	45.0	45.1	45.1	45.3	35	1327.869
1333.466	0	666733	wait	20	3	0	3	0	1.0	0.0	1.0	0.0						1547.1846504	1554.1014795999995	1554.1014795999995	8.5	['8', 'a', '5', 'return']	[2.8238947999998345, 3.6252191999992647, 4.232296299999689, 5.064807399999154]	6.91	5.27	1.0	20hz	high_pain	47.4			sub-026	250	26	45.2	47.4	COM11	COM16	COM3	2024-03-19_09h59.00.496	001-EEG_SVR_Officel	2022.2.5	143.9033199933916		12.195999999999913	1_sub-pilot026_SVR_EEG_block3-4.protocol.csv	step37	5180	514.463	STIMULATE	47.4	47.3	47.3	47.3	47.6	37	1352.2459999999999
1340.37	0	670185	20hz	6	3	0	3	0	1.0	0.0	1.0	0.0						1547.1846504	1554.1014795999995	1554.1014795999995	8.5	['8', 'a', '5', 'return']	[2.8238947999998345, 3.6252191999992647, 4.232296299999689, 5.064807399999154]	6.91	5.27	1.0	20hz	high_pain	47.4			sub-026	250	26	45.2	47.4	COM11	COM16	COM3	2024-03-19_09h59.00.496	001-EEG_SVR_Officel	2022.2.5	143.9033199933916		6.903999999999996	1_sub-pilot026_SVR_EEG_block3-4.protocol.csv	step37	5180	514.463	STIMULATE	47.4	47.3	47.3	47.3	47.6	37	1352.2459999999999
1346.39	0	673195	20/Hi	4	3	0	3	0	1.0	0.0	1.0	0.0						1547.1846504	1554.1014795999995	1554.1014795999995	8.5	['8', 'a', '5', 'return']	[2.8238947999998345, 3.6252191999992647, 4.232296299999689, 5.064807399999154]	6.91	5.27	1.0	20hz	high_pain	47.4			sub-026	250	26	45.2	47.4	COM11	COM16	COM3	2024-03-19_09h59.00.496	001-EEG_SVR_Officel	2022.2.5	143.9033199933916		5.270000000000209	1_sub-pilot026_SVR_EEG_block3-4.protocol.csv	step37	5180	514.463	STIMULATE	47.4	47.3	47.3	47.3	47.6	37	1352.2459999999999
1358.46	0	679230	wait	20	3	0	3	0	2.0	0.0	2.0	0.0						1572.1800473999997	1577.8821654999997	1577.8821654999997	9.0	['9', 'return']	[3.115734500000144, 3.8115594999999303]	5.69	6.21	2.0	10hz	high_pain	47.4			sub-026	250	26	45.2	47.4	COM11	COM16	COM3	2024-03-19_09h59.00.496	001-EEG_SVR_Officel	2022.2.5	143.9033199933916		12.819999999999936	1_sub-pilot026_SVR_EEG_block3-4.protocol.csv	step39	5430	539.285	STIMULATE	47.4	47.3	47.3	47.4	47.4	39	1377.068
1364.152	0	682076	10hz	3	3	0	3	0	2.0	0.0	2.0	0.0						1572.1800473999997	1577.8821654999997	1577.8821654999997	9.0	['9', 'return']	[3.115734500000144, 3.8115594999999303]	5.69	6.21	2.0	10hz	high_pain	47.4			sub-026	250	26	45.2	47.4	COM11	COM16	COM3	2024-03-19_09h59.00.496	001-EEG_SVR_Officel	2022.2.5	143.9033199933916		5.692000000000007	1_sub-pilot026_SVR_EEG_block3-4.protocol.csv	step39	5430	539.285	STIMULATE	47.4	47.3	47.3	47.4	47.4	39	1377.068
1371.116	0	685558	10/Hi	1	3	0	3	0	2.0	0.0	2.0	0.0						1572.1800473999997	1577.8821654999997	1577.8821654999997	9.0	['9', 'return']	[3.115734500000144, 3.8115594999999303]	5.69	6.21	2.0	10hz	high_pain	47.4			sub-026	250	26	45.2	47.4	COM11	COM16	COM3	2024-03-19_09h59.00.496	001-EEG_SVR_Officel	2022.2.5	143.9033199933916		6.213999999999942	1_sub-pilot026_SVR_EEG_block3-4.protocol.csv	step39	5430	539.285	STIMULATE	47.4	47.3	47.3	47.4	47.4	39	1377.068
1380.984	0	690492	wait	20	3	0	3	0	3.0	0.0	3.0	0.0						1594.7032015999998	1600.2737467000002	1600.2737467000002	7.5	['7', 'a', '5', 'return']	[3.03697160000047, 3.8286723999999595, 4.326923499999793, 5.148587100000441]	5.56	5.97	3.0	20hz	high_pain	47.4			sub-026	250	26	45.2	47.4	COM11	COM16	COM3	2024-03-19_09h59.00.496	001-EEG_SVR_Officel	2022.2.5	143.9033199933916		10.617999999999938	1_sub-pilot026_SVR_EEG_block3-4.protocol.csv	step41	5653	561.371	STIMULATE	47.4	47.3	47.4	47.4	47.4	41	1399.154
1386.544	0	693272	20hz	6	3	0	3	0	3.0	0.0	3.0	0.0						1594.7032015999998	1600.2737467000002	1600.2737467000002	7.5	['7', 'a', '5', 'return']	[3.03697160000047, 3.8286723999999595, 4.326923499999793, 5.148587100000441]	5.56	5.97	3.0	20hz	high_pain	47.4			sub-026	250	26	45.2	47.4	COM11	COM16	COM3	2024-03-19_09h59.00.496	001-EEG_SVR_Officel	2022.2.5	143.9033199933916		5.560000000000173	1_sub-pilot026_SVR_EEG_block3-4.protocol.csv	step41	5653	561.371	STIMULATE	47.4	47.3	47.4	47.4	47.4	41	1399.154
1393.264	0	696632	20/Hi	4	3	0	3	0	3.0	0.0	3.0	0.0						1594.7032015999998	1600.2737467000002	1600.2737467000002	7.5	['7', 'a', '5', 'return']	[3.03697160000047, 3.8286723999999595, 4.326923499999793, 5.148587100000441]	5.56	5.97	3.0	20hz	high_pain	47.4			sub-026	250	26	45.2	47.4	COM11	COM16	COM3	2024-03-19_09h59.00.496	001-EEG_SVR_Officel	2022.2.5	143.9033199933916		5.9699999999998	1_sub-pilot026_SVR_EEG_block3-4.protocol.csv	step41	5653	561.371	STIMULATE	47.4	47.3	47.4	47.4	47.4	41	1399.154
1404.724	0	702362	wait	20	3	0	3	0	4.0	0.0	4.0	0.0						1618.4425627999997	1626.1241616000002	1626.1241616000002	2.5	['3', 'a', '5', 'backspace', 'backspace', 'backspace', '2', 'a', '5', 'return']	[3.081999599999108, 3.3380936999992628, 3.6749347999993915, 5.299718799999937, 5.442108699999153, 6.09798199999932, 6.818092299999989, 7.130128099999638, 7.426119699999617, 8.16347339999993]	7.67	6.46	0.0	40hz	low_pain	45.2			sub-026	250	26	45.2	47.4	COM11	COM16	COM3	2024-03-19_09h59.00.496	001-EEG_SVR_Officel	2022.2.5	143.9033199933916		12.210000000000036	1_sub-pilot026_SVR_EEG_block3-4.protocol.csv	step43	5919	587.773	STIMULATE	45.1	45.1	45.1	45.1	45.3	43	1425.556
1412.392	0	706196	40hz	9	3	0	3	0	4.0	0.0	4.0	0.0						1618.4425627999997	1626.1241616000002	1626.1241616000002	2.5	['3', 'a', '5', 'backspace', 'backspace', 'backspace', '2', 'a', '5', 'return']	[3.081999599999108, 3.3380936999992628, 3.6749347999993915, 5.299718799999937, 5.442108699999153, 6.09798199999932, 6.818092299999989, 7.130128099999638, 7.426119699999617, 8.16347339999993]	7.67	6.46	0.0	40hz	low_pain	45.2			sub-026	250	26	45.2	47.4	COM11	COM16	COM3	2024-03-19_09h59.00.496	001-EEG_SVR_Officel	2022.2.5	143.9033199933916		7.66800000000012	1_sub-pilot026_SVR_EEG_block3-4.protocol.csv	step43	5919	587.773	STIMULATE	45.1	45.1	45.1	45.1	45.3	43	1425.556
1419.606	0	709803	40/Lo	8	3	0	3	0	4.0	0.0	4.0	0.0						1618.4425627999997	1626.1241616000002	1626.1241616000002	2.5	['3', 'a', '5', 'backspace', 'backspace', 'backspace', '2', 'a', '5', 'return']	[3.081999599999108, 3.3380936999992628, 3.6749347999993915, 5.299718799999937, 5.442108699999153, 6.09798199999932, 6.818092299999989, 7.130128099999638, 7.426119699999617, 8.16347339999993]	7.67	6.46	0.0	40hz	low_pain	45.2			sub-026	250	26	45.2	47.4	COM11	COM16	COM3	2024-03-19_09h59.00.496	001-EEG_SVR_Officel	2022.2.5	143.9033199933916		6.463999999999942	1_sub-pilot026_SVR_EEG_block3-4.protocol.csv	step43	5919	587.773	STIMULATE	45.1	45.1	45.1	45.1	45.3	43	1425.556
1433.588	0	716794	wait	20	3	0	3	0	5.0	0.0	5.0	0.0						1647.3071888999998	1653.4676441999995	1653.4676441999995	6.0	['6', 'return']	[3.962622900000497, 4.522734200000741]	6.15	5.44	1.0	controle	low_pain	45.2			sub-026	250	26	45.2	47.4	COM11	COM16	COM3	2024-03-19_09h59.00.496	001-EEG_SVR_Officel	2022.2.5	143.9033199933916		14.731999999999971	1_sub-pilot026_SVR_EEG_block3-4.protocol.csv	step45	6184	614.056	STIMULATE	45.1	45.1	45.1	45.1	45.4	45	1451.839
1439.736	0	719868	CNhz	12	3	0	3	0	5.0	0.0	5.0	0.0						1647.3071888999998	1653.4676441999995	1653.4676441999995	6.0	['6', 'return']	[3.962622900000497, 4.522734200000741]	6.15	5.44	1.0	controle	low_pain	45.2			sub-026	250	26	45.2	47.4	COM11	COM16	COM3	2024-03-19_09h59.00.496	001-EEG_SVR_Officel	2022.2.5	143.9033199933916		6.148000000000138	1_sub-pilot026_SVR_EEG_block3-4.protocol.csv	step45	6184	614.056	STIMULATE	45.1	45.1	45.1	45.1	45.4	45	1451.839
1445.93	0	722965	CN/Lo	11	3	0	3	0	5.0	0.0	5.0	0.0						1647.3071888999998	1653.4676441999995	1653.4676441999995	6.0	['6', 'return']	[3.962622900000497, 4.522734200000741]	6.15	5.44	1.0	controle	low_pain	45.2			sub-026	250	26	45.2	47.4	COM11	COM16	COM3	2024-03-19_09h59.00.496	001-EEG_SVR_Officel	2022.2.5	143.9033199933916		5.44399999999996	1_sub-pilot026_SVR_EEG_block3-4.protocol.csv	step45	6184	614.056	STIMULATE	45.1	45.1	45.1	45.1	45.4	45	1451.839
1457.284	0	728642	wait	20	3	0	3	0	6.0	0.0	6.0	0.0						1671.0037215999996	1677.4220002999996	1677.4220002999996	8.0	['8', 'return']	[2.766747900000155, 3.4786419000001843]	6.41	5.04	2.0	20hz	high_pain	47.4			sub-026	250	26	45.2	47.4	COM11	COM16	COM3	2024-03-19_09h59.00.496	001-EEG_SVR_Officel	2022.2.5	143.9033199933916		12.104000000000042	1_sub-pilot026_SVR_EEG_block3-4.protocol.csv	step47	6421	637.564	STIMULATE	47.4	47.3	47.3	47.4	47.6	47	1475.347
1463.69	0	731845	20hz	6	3	0	3	0	6.0	0.0	6.0	0.0						1671.0037215999996	1677.4220002999996	1677.4220002999996	8.0	['8', 'return']	[2.766747900000155, 3.4786419000001843]	6.41	5.04	2.0	20hz	high_pain	47.4			sub-026	250	26	45.2	47.4	COM11	COM16	COM3	2024-03-19_09h59.00.496	001-EEG_SVR_Officel	2022.2.5	143.9033199933916		6.405999999999949	1_sub-pilot026_SVR_EEG_block3-4.protocol.csv	step47	6421	637.564	STIMULATE	47.4	47.3	47.3	47.4	47.6	47	1475.347
1469.48	0	734740	20/Hi	4	3	0	3	0	6.0	0.0	6.0	0.0						1671.0037215999996	1677.4220002999996	1677.4220002999996	8.0	['8', 'return']	[2.766747900000155, 3.4786419000001843]	6.41	5.04	2.0	20hz	high_pain	47.4			sub-026	250	26	45.2	47.4	COM11	COM16	COM3	2024-03-19_09h59.00.496	001-EEG_SVR_Officel	2022.2.5	143.9033199933916		5.039999999999964	1_sub-pilot026_SVR_EEG_block3-4.protocol.csv	step47	6421	637.564	STIMULATE	47.4	47.3	47.3	47.4	47.6	47	1475.347
1480.204	0	740102	wait	20	3	0	3	0	7.0	0.0	7.0	0.0						1693.9238713999998	1701.7304939	1701.7304939	8.0	['8', 'return']	[2.6441399999994246, 3.2287803999997777]	7.8	5.26	3.0	10hz	high_pain	47.4			sub-026	250	26	45.2	47.4	COM11	COM16	COM3	2024-03-19_09h59.00.496	001-EEG_SVR_Officel	2022.2.5	143.9033199933916		11.473999999999933	1_sub-pilot026_SVR_EEG_block3-4.protocol.csv	step49	6669	662.166	STIMULATE	47.4	47.3	47.4	47.4	47.4	49	1499.949
1488.0	0	744000	10hz	3	3	0	3	0	7.0	0.0	7.0	0.0						1693.9238713999998	1701.7304939	1701.7304939	8.0	['8', 'return']	[2.6441399999994246, 3.2287803999997777]	7.8	5.26	3.0	10hz	high_pain	47.4			sub-026	250	26	45.2	47.4	COM11	COM16	COM3	2024-03-19_09h59.00.496	001-EEG_SVR_Officel	2022.2.5	143.9033199933916		7.796000000000049	1_sub-pilot026_SVR_EEG_block3-4.protocol.csv	step49	6669	662.166	STIMULATE	47.4	47.3	47.4	47.4	47.4	49	1499.949
1494.012	0	747006	10/Hi	1	3	0	3	0	7.0	0.0	7.0	0.0						1693.9238713999998	1701.7304939	1701.7304939	8.0	['8', 'return']	[2.6441399999994246, 3.2287803999997777]	7.8	5.26	3.0	10hz	high_pain	47.4			sub-026	250	26	45.2	47.4	COM11	COM16	COM3	2024-03-19_09h59.00.496	001-EEG_SVR_Officel	2022.2.5	143.9033199933916		5.261999999999944	1_sub-pilot026_SVR_EEG_block3-4.protocol.csv	step49	6669	662.166	STIMULATE	47.4	47.3	47.4	47.4	47.4	49	1499.949
1504.25	0	752125	wait	20	3	0	3	0	8.0	0.0	8.0	0.0						1717.9684187999997	1724.3789552000003	1724.3789552000003	4.0	['4', 'return']	[2.730677100000321, 3.56402799999978]	6.4	5.64	0.0	20hz	low_pain	45.2			sub-026	250	26	45.2	47.4	COM11	COM16	COM3	2024-03-19_09h59.00.496	001-EEG_SVR_Officel	2022.2.5	143.9033199933916		10.988000000000056	1_sub-pilot026_SVR_EEG_block3-4.protocol.csv	step51	6901	685.142	STIMULATE	45.1	45.1	45.1	45.1	45.3	51	1522.925
1510.648	0	755324	20hz	6	3	0	3	0	8.0	0.0	8.0	0.0						1717.9684187999997	1724.3789552000003	1724.3789552000003	4.0	['4', 'return']	[2.730677100000321, 3.56402799999978]	6.4	5.64	0.0	20hz	low_pain	45.2			sub-026	250	26	45.2	47.4	COM11	COM16	COM3	2024-03-19_09h59.00.496	001-EEG_SVR_Officel	2022.2.5	143.9033199933916		6.397999999999911	1_sub-pilot026_SVR_EEG_block3-4.protocol.csv	step51	6901	685.142	STIMULATE	45.1	45.1	45.1	45.1	45.3	51	1522.925
1517.042	0	758521	20/Lo	5	3	0	3	0	8.0	0.0	8.0	0.0						1717.9684187999997	1724.3789552000003	1724.3789552000003	4.0	['4', 'return']	[2.730677100000321, 3.56402799999978]	6.4	5.64	0.0	20hz	low_pain	45.2			sub-026	250	26	45.2	47.4	COM11	COM16	COM3	2024-03-19_09h59.00.496	001-EEG_SVR_Officel	2022.2.5	143.9033199933916		5.6440000000000055	1_sub-pilot026_SVR_EEG_block3-4.protocol.csv	step51	6901	685.142	STIMULATE	45.1	45.1	45.1	45.1	45.3	51	1522.925
1527.244	0	763622	wait	20	3	0	3	0	9.0	0.0	9.0	0.0						1740.9644654999995	1747.3609718000002	1747.3609718000002	9.0	['9', 'return']	[2.924709800000528, 3.517087100000026]	6.39	6.09	1.0	10hz	high_pain	47.4			sub-026	250	26	45.2	47.4	COM11	COM16	COM3	2024-03-19_09h59.00.496	001-EEG_SVR_Officel	2022.2.5	143.9033199933916		10.951999999999998	1_sub-pilot026_SVR_EEG_block3-4.protocol.csv	step53	7137	708.577	STIMULATE	47.5	47.3	47.4	47.4	47.5	53	1546.36
1533.63	0	766815	10hz	3	3	0	3	0	9.0	0.0	9.0	0.0						1740.9644654999995	1747.3609718000002	1747.3609718000002	9.0	['9', 'return']	[2.924709800000528, 3.517087100000026]	6.39	6.09	1.0	10hz	high_pain	47.4			sub-026	250	26	45.2	47.4	COM11	COM16	COM3	2024-03-19_09h59.00.496	001-EEG_SVR_Officel	2022.2.5	143.9033199933916		6.386000000000195	1_sub-pilot026_SVR_EEG_block3-4.protocol.csv	step53	7137	708.577	STIMULATE	47.5	47.3	47.4	47.4	47.5	53	1546.36
1540.468	0	770234	10/Hi	1	3	0	3	0	9.0	0.0	9.0	0.0						1740.9644654999995	1747.3609718000002	1747.3609718000002	9.0	['9', 'return']	[2.924709800000528, 3.517087100000026]	6.39	6.09	1.0	10hz	high_pain	47.4			sub-026	250	26	45.2	47.4	COM11	COM16	COM3	2024-03-19_09h59.00.496	001-EEG_SVR_Officel	2022.2.5	143.9033199933916		6.087999999999965	1_sub-pilot026_SVR_EEG_block3-4.protocol.csv	step53	7137	708.577	STIMULATE	47.5	47.3	47.4	47.4	47.5	53	1546.36
1550.178	0	775089	wait	20	3	0	3	0	10.0	0.0	10.0	0.0						1763.8977112999996	1769.1343456999998	1769.1343456999998	8.0	['8', 'return']	[3.0968536999998832, 3.8330502999997407]	5.23	5.51	2.0	40hz	high_pain	47.4			sub-026	250	26	45.2	47.4	COM11	COM16	COM3	2024-03-19_09h59.00.496	001-EEG_SVR_Officel	2022.2.5	143.9033199933916		10.460000000000036	1_sub-pilot026_SVR_EEG_block3-4.protocol.csv	step55	7351	729.792	STIMULATE	47.4	47.4	47.3	47.3	47.3	55	1567.575
1555.402	0	777701	40hz	9	3	0	3	0	10.0	0.0	10.0	0.0						1763.8977112999996	1769.1343456999998	1769.1343456999998	8.0	['8', 'return']	[3.0968536999998832, 3.8330502999997407]	5.23	5.51	2.0	40hz	high_pain	47.4			sub-026	250	26	45.2	47.4	COM11	COM16	COM3	2024-03-19_09h59.00.496	001-EEG_SVR_Officel	2022.2.5	143.9033199933916		5.223999999999933	1_sub-pilot026_SVR_EEG_block3-4.protocol.csv	step55	7351	729.792	STIMULATE	47.4	47.4	47.3	47.3	47.3	55	1567.575
1561.664	0	780832	40/Hi	7	3	0	3	0	10.0	0.0	10.0	0.0						1763.8977112999996	1769.1343456999998	1769.1343456999998	8.0	['8', 'return']	[3.0968536999998832, 3.8330502999997407]	5.23	5.51	2.0	40hz	high_pain	47.4			sub-026	250	26	45.2	47.4	COM11	COM16	COM3	2024-03-19_09h59.00.496	001-EEG_SVR_Officel	2022.2.5	143.9033199933916		5.511999999999944	1_sub-pilot026_SVR_EEG_block3-4.protocol.csv	step55	7351	729.792	STIMULATE	47.4	47.4	47.3	47.3	47.3	55	1567.575
1572.256	0	786128	wait	20	3	0	3	0	11.0	0.0	11.0	0.0						1785.9758145	1791.3246090999996	1791.3246090999996	2.0	['2', 'return']	[2.6661087000002226, 3.6585760000007213]	5.34	5.02	3.0	10hz	low_pain	45.2			sub-026	250	26	45.2	47.4	COM11	COM16	COM3	2024-03-19_09h59.00.496	001-EEG_SVR_Officel	2022.2.5	143.9033199933916		11.342000000000098	1_sub-pilot026_SVR_EEG_block3-4.protocol.csv	step57	7569	751.43	STIMULATE	45.1	45.1	45.1	45.1	45.1	57	1589.213
1577.592	0	788796	10hz	3	3	0	3	0	11.0	0.0	11.0	0.0						1785.9758145	1791.3246090999996	1791.3246090999996	2.0	['2', 'return']	[2.6661087000002226, 3.6585760000007213]	5.34	5.02	3.0	10hz	low_pain	45.2			sub-026	250	26	45.2	47.4	COM11	COM16	COM3	2024-03-19_09h59.00.496	001-EEG_SVR_Officel	2022.2.5	143.9033199933916		5.336000000000013	1_sub-pilot026_SVR_EEG_block3-4.protocol.csv	step57	7569	751.43	STIMULATE	45.1	45.1	45.1	45.1	45.1	57	1589.213
1583.362	0	791681	10/Lo	2	3	0	3	0	11.0	0.0	11.0	0.0						1785.9758145	1791.3246090999996	1791.3246090999996	2.0	['2', 'return']	[2.6661087000002226, 3.6585760000007213]	5.34	5.02	3.0	10hz	low_pain	45.2			sub-026	250	26	45.2	47.4	COM11	COM16	COM3	2024-03-19_09h59.00.496	001-EEG_SVR_Officel	2022.2.5	143.9033199933916		5.019999999999982	1_sub-pilot026_SVR_EEG_block3-4.protocol.csv	step57	7569	751.43	STIMULATE	45.1	45.1	45.1	45.1	45.1	57	1589.213
1594.28	0	797140	wait	20	3	0	3	0	12.0	0.0	12.0	0.0						1808.0001489	1815.1468761	1815.1468761	8.5	['8', 'a', '5', 'return']	[2.7550242999996044, 3.61140290000003, 4.075073599999996, 4.803675299999668]	7.14	5.62	0.0	10hz	high_pain	47.4			sub-026	250	26	45.2	47.4	COM11	COM16	COM3	2024-03-19_09h59.00.496	001-EEG_SVR_Officel	2022.2.5	143.9033199933916		11.667999999999893	1_sub-pilot026_SVR_EEG_block3-4.protocol.csv	step59	7812	775.864	STIMULATE	47.4	47.3	47.3	47.4	47.6	59	1613.647
1601.414	0	800707	10hz	3	3	0	3	0	12.0	0.0	12.0	0.0						1808.0001489	1815.1468761	1815.1468761	8.5	['8', 'a', '5', 'return']	[2.7550242999996044, 3.61140290000003, 4.075073599999996, 4.803675299999668]	7.14	5.62	0.0	10hz	high_pain	47.4			sub-026	250	26	45.2	47.4	COM11	COM16	COM3	2024-03-19_09h59.00.496	001-EEG_SVR_Officel	2022.2.5	143.9033199933916		7.1340000000000146	1_sub-pilot026_SVR_EEG_block3-4.protocol.csv	step59	7812	775.864	STIMULATE	47.4	47.3	47.3	47.4	47.6	59	1613.647
1607.788	0	803894	10/Hi	1	3	0	3	0	12.0	0.0	12.0	0.0						1808.0001489	1815.1468761	1815.1468761	8.5	['8', 'a', '5', 'return']	[2.7550242999996044, 3.61140290000003, 4.075073599999996, 4.803675299999668]	7.14	5.62	0.0	10hz	high_pain	47.4			sub-026	250	26	45.2	47.4	COM11	COM16	COM3	2024-03-19_09h59.00.496	001-EEG_SVR_Officel	2022.2.5	143.9033199933916		5.624000000000024	1_sub-pilot026_SVR_EEG_block3-4.protocol.csv	step59	7812	775.864	STIMULATE	47.4	47.3	47.3	47.4	47.6	59	1613.647
1619.248	0	809624	wait	20	3	0	3	0	13.0	0.0	13.0	0.0						1832.9685529000003	1839.5599728	1839.5599728	1.0	['1', 'return']	[2.830446799999663, 3.7354967000001125]	6.58	5.94	1.0	10hz	low_pain	45.2			sub-026	250	26	45.2	47.4	COM11	COM16	COM3	2024-03-19_09h59.00.496	001-EEG_SVR_Officel	2022.2.5	143.9033199933916		12.210000000000036	1_sub-pilot026_SVR_EEG_block3-4.protocol.csv	step61	8053	800.766	STIMULATE	45.1	45.1	45.1	45.1	45.3	61	1638.549
1625.826	0	812913	10hz	3	3	0	3	0	13.0	0.0	13.0	0.0						1832.9685529000003	1839.5599728	1839.5599728	1.0	['1', 'return']	[2.830446799999663, 3.7354967000001125]	6.58	5.94	1.0	10hz	low_pain	45.2			sub-026	250	26	45.2	47.4	COM11	COM16	COM3	2024-03-19_09h59.00.496	001-EEG_SVR_Officel	2022.2.5	143.9033199933916		6.5779999999999745	1_sub-pilot026_SVR_EEG_block3-4.protocol.csv	step61	8053	800.766	STIMULATE	45.1	45.1	45.1	45.1	45.3	61	1638.549
1632.52	0	816260	10/Lo	2	3	0	3	0	13.0	0.0	13.0	0.0						1832.9685529000003	1839.5599728	1839.5599728	1.0	['1', 'return']	[2.830446799999663, 3.7354967000001125]	6.58	5.94	1.0	10hz	low_pain	45.2			sub-026	250	26	45.2	47.4	COM11	COM16	COM3	2024-03-19_09h59.00.496	001-EEG_SVR_Officel	2022.2.5	143.9033199933916		5.94399999999996	1_sub-pilot026_SVR_EEG_block3-4.protocol.csv	step61	8053	800.766	STIMULATE	45.1	45.1	45.1	45.1	45.3	61	1638.549
1642.592	0	821296	wait	20	3	0	3	0	14.0	0.0	14.0	0.0						1856.3119531	1861.6114727	1861.6114727	2.5	['2', 'a', '5', 'return']	[3.6999918000001344, 4.115004600000248, 4.626923400000123, 5.403872199999569]	5.29	6.42	2.0	40hz	low_pain	45.2			sub-026	250	26	45.2	47.4	COM11	COM16	COM3	2024-03-19_09h59.00.496	001-EEG_SVR_Officel	2022.2.5	143.9033199933916		10.822000000000116	1_sub-pilot026_SVR_EEG_block3-4.protocol.csv	step63	8269	823.212	STIMULATE	45.1	45.1	45.1	45.1	45.2	63	1660.995
1647.878	0	823939	40hz	9	3	0	3	0	14.0	0.0	14.0	0.0						1856.3119531	1861.6114727	1861.6114727	2.5	['2', 'a', '5', 'return']	[3.6999918000001344, 4.115004600000248, 4.626923400000123, 5.403872199999569]	5.29	6.42	2.0	40hz	low_pain	45.2			sub-026	250	26	45.2	47.4	COM11	COM16	COM3	2024-03-19_09h59.00.496	001-EEG_SVR_Officel	2022.2.5	143.9033199933916		5.285999999999831	1_sub-pilot026_SVR_EEG_block3-4.protocol.csv	step63	8269	823.212	STIMULATE	45.1	45.1	45.1	45.1	45.2	63	1660.995
1655.05	0	827525	40/Lo	8	3	0	3	0	14.0	0.0	14.0	0.0						1856.3119531	1861.6114727	1861.6114727	2.5	['2', 'a', '5', 'return']	[3.6999918000001344, 4.115004600000248, 4.626923400000123, 5.403872199999569]	5.29	6.42	2.0	40hz	low_pain	45.2			sub-026	250	26	45.2	47.4	COM11	COM16	COM3	2024-03-19_09h59.00.496	001-EEG_SVR_Officel	2022.2.5	143.9033199933916		6.4220000000000255	1_sub-pilot026_SVR_EEG_block3-4.protocol.csv	step63	8269	823.212	STIMULATE	45.1	45.1	45.1	45.1	45.2	63	1660.995
1666.316	0	833158	wait	20	3	0	3	0	15.0	0.0	15.0	0.0						1880.0367032	1885.21784	1885.21784	5.0	['5', 'return']	[2.988802400000168, 3.6287946000002194]	5.17	5.99	3.0	40hz	low_pain	45.2			sub-026	250	26	45.2	47.4	COM11	COM16	COM3	2024-03-19_09h59.00.496	001-EEG_SVR_Officel	2022.2.5	143.9033199933916		12.016000000000076	1_sub-pilot026_SVR_EEG_block3-4.protocol.csv	step65	8490	846.429	STIMULATE	45.1	45.1	45.1	45.1	45.1	65	1684.212
1671.486	0	835743	40hz	9	3	0	3	0	15.0	0.0	15.0	0.0						1880.0367032	1885.21784	1885.21784	5.0	['5', 'return']	[2.988802400000168, 3.6287946000002194]	5.17	5.99	3.0	40hz	low_pain	45.2			sub-026	250	26	45.2	47.4	COM11	COM16	COM3	2024-03-19_09h59.00.496	001-EEG_SVR_Officel	2022.2.5	143.9033199933916		5.170000000000073	1_sub-pilot026_SVR_EEG_block3-4.protocol.csv	step65	8490	846.429	STIMULATE	45.1	45.1	45.1	45.1	45.1	65	1684.212
1678.226	0	839113	40/Lo	8	3	0	3	0	15.0	0.0	15.0	0.0						1880.0367032	1885.21784	1885.21784	5.0	['5', 'return']	[2.988802400000168, 3.6287946000002194]	5.17	5.99	3.0	40hz	low_pain	45.2			sub-026	250	26	45.2	47.4	COM11	COM16	COM3	2024-03-19_09h59.00.496	001-EEG_SVR_Officel	2022.2.5	143.9033199933916		5.990000000000009	1_sub-pilot026_SVR_EEG_block3-4.protocol.csv	step65	8490	846.429	STIMULATE	45.1	45.1	45.1	45.1	45.1	65	1684.212
1748.348	0	874174	wait	20	4	0	4	0	0.0	0.0	0.0	0.0				p	0.9114980000003924	1962.0681484	1969.4302799	1969.4302799	2.0	['2', 'return']	[2.648476800000026, 3.4096645999998145]	7.35	5.25	0.0	40hz	low_pain	45.2			sub-026	250	26	45.2	47.4	COM11	COM16	COM3	2024-03-19_09h59.00.496	001-EEG_SVR_Officel	2022.2.5	143.9033199933916		70.87199999999984	2_sub-pilot026_SVR_EEG_block5-6.protocol.csv	step3	695	69.323	STIMULATE	45.3	45.0	45.0	45.1	45.3	3	1767.5559999999998
1755.696	0	877848	40hz	9	4	0	4	0	0.0	0.0	0.0	0.0				p	0.9114980000003924	1962.0681484	1969.4302799	1969.4302799	2.0	['2', 'return']	[2.648476800000026, 3.4096645999998145]	7.35	5.25	0.0	40hz	low_pain	45.2			sub-026	250	26	45.2	47.4	COM11	COM16	COM3	2024-03-19_09h59.00.496	001-EEG_SVR_Officel	2022.2.5	143.9033199933916		7.347999999999956	2_sub-pilot026_SVR_EEG_block5-6.protocol.csv	step3	695	69.323	STIMULATE	45.3	45.0	45.0	45.1	45.3	3	1767.5559999999998
1761.696	0	880848	40/Lo	8	4	0	4	0	0.0	0.0	0.0	0.0				p	0.9114980000003924	1962.0681484	1969.4302799	1969.4302799	2.0	['2', 'return']	[2.648476800000026, 3.4096645999998145]	7.35	5.25	0.0	40hz	low_pain	45.2			sub-026	250	26	45.2	47.4	COM11	COM16	COM3	2024-03-19_09h59.00.496	001-EEG_SVR_Officel	2022.2.5	143.9033199933916		5.25	2_sub-pilot026_SVR_EEG_block5-6.protocol.csv	step3	695	69.323	STIMULATE	45.3	45.0	45.0	45.1	45.3	3	1767.5559999999998
1772.126	0	886063	wait	20	4	0	4	0	1.0	0.0	1.0	0.0						1985.8479488	1992.2099258000003	1992.2099258000003	1.0	['1', 'return']	[2.580803500000002, 3.316740199999913]	6.35	5.19	1.0	controle	low_pain	45.2			sub-026	250	26	45.2	47.4	COM11	COM16	COM3	2024-03-19_09h59.00.496	001-EEG_SVR_Officel	2022.2.5	143.9033199933916		11.180000000000064	2_sub-pilot026_SVR_EEG_block5-6.protocol.csv	step5	924	92.066	STIMULATE	45.1	45.1	45.1	45.1	45.4	5	1790.299
1778.476	0	889238	CNhz	12	4	0	4	0	1.0	0.0	1.0	0.0						1985.8479488	1992.2099258000003	1992.2099258000003	1.0	['1', 'return']	[2.580803500000002, 3.316740199999913]	6.35	5.19	1.0	controle	low_pain	45.2			sub-026	250	26	45.2	47.4	COM11	COM16	COM3	2024-03-19_09h59.00.496	001-EEG_SVR_Officel	2022.2.5	143.9033199933916		6.350000000000136	2_sub-pilot026_SVR_EEG_block5-6.protocol.csv	step5	924	92.066	STIMULATE	45.1	45.1	45.1	45.1	45.4	5	1790.299
1784.42	0	892210	CN/Lo	11	4	0	4	0	1.0	0.0	1.0	0.0						1985.8479488	1992.2099258000003	1992.2099258000003	1.0	['1', 'return']	[2.580803500000002, 3.316740199999913]	6.35	5.19	1.0	controle	low_pain	45.2			sub-026	250	26	45.2	47.4	COM11	COM16	COM3	2024-03-19_09h59.00.496	001-EEG_SVR_Officel	2022.2.5	143.9033199933916		5.19399999999996	2_sub-pilot026_SVR_EEG_block5-6.protocol.csv	step5	924	92.066	STIMULATE	45.1	45.1	45.1	45.1	45.4	5	1790.299
1794.824	0	897412	wait	20	4	0	4	0	2.0	0.0	2.0	0.0						2008.5450829	2013.8513889	2013.8513889	3.0	['3', 'return']	[3.195135500000106, 4.203262200000609]	5.3	6.03	2.0	40hz	low_pain	45.2			sub-026	250	26	45.2	47.4	COM11	COM16	COM3	2024-03-19_09h59.00.496	001-EEG_SVR_Officel	2022.2.5	143.9033199933916		11.153999999999996	2_sub-pilot026_SVR_EEG_block5-6.protocol.csv	step7	1151	114.567	STIMULATE	45.1	45.1	45.1	45.1	45.3	7	1812.8
1800.118	0	900059	40hz	9	4	0	4	0	2.0	0.0	2.0	0.0						2008.5450829	2013.8513889	2013.8513889	3.0	['3', 'return']	[3.195135500000106, 4.203262200000609]	5.3	6.03	2.0	40hz	low_pain	45.2			sub-026	250	26	45.2	47.4	COM11	COM16	COM3	2024-03-19_09h59.00.496	001-EEG_SVR_Officel	2022.2.5	143.9033199933916		5.293999999999869	2_sub-pilot026_SVR_EEG_block5-6.protocol.csv	step7	1151	114.567	STIMULATE	45.1	45.1	45.1	45.1	45.3	7	1812.8
1806.902	0	903451	40/Lo	8	4	0	4	0	2.0	0.0	2.0	0.0						2008.5450829	2013.8513889	2013.8513889	3.0	['3', 'return']	[3.195135500000106, 4.203262200000609]	5.3	6.03	2.0	40hz	low_pain	45.2			sub-026	250	26	45.2	47.4	COM11	COM16	COM3	2024-03-19_09h59.00.496	001-EEG_SVR_Officel	2022.2.5	143.9033199933916		6.0340000000001055	2_sub-pilot026_SVR_EEG_block5-6.protocol.csv	step7	1151	114.567	STIMULATE	45.1	45.1	45.1	45.1	45.3	7	1812.8
1817.348	0	908674	wait	20	4	0	4	0	3.0	0.0	3.0	0.0						2031.0686501	2036.2082706	2036.2082706	8.5	['8', 'a', '5', 'return']	[2.5584036999998716, 2.9822064999998474, 3.3255245000000286, 3.998008800000207]	5.13	5.88	3.0	40hz	high_pain	47.4			sub-026	250	26	45.2	47.4	COM11	COM16	COM3	2024-03-19_09h59.00.496	001-EEG_SVR_Officel	2022.2.5	143.9033199933916		11.195999999999913	2_sub-pilot026_SVR_EEG_block5-6.protocol.csv	step9	1375	136.732	STIMULATE	47.4	47.3	47.3	47.3	47.4	9	1834.965
1822.474	0	911237	40hz	9	4	0	4	0	3.0	0.0	3.0	0.0						2031.0686501	2036.2082706	2036.2082706	8.5	['8', 'a', '5', 'return']	[2.5584036999998716, 2.9822064999998474, 3.3255245000000286, 3.998008800000207]	5.13	5.88	3.0	40hz	high_pain	47.4			sub-026	250	26	45.2	47.4	COM11	COM16	COM3	2024-03-19_09h59.00.496	001-EEG_SVR_Officel	2022.2.5	143.9033199933916		5.125999999999976	2_sub-pilot026_SVR_EEG_block5-6.protocol.csv	step9	1375	136.732	STIMULATE	47.4	47.3	47.3	47.3	47.4	9	1834.965
1829.104	0	914552	40/Hi	7	4	0	4	0	3.0	0.0	3.0	0.0						2031.0686501	2036.2082706	2036.2082706	8.5	['8', 'a', '5', 'return']	[2.5584036999998716, 2.9822064999998474, 3.3255245000000286, 3.998008800000207]	5.13	5.88	3.0	40hz	high_pain	47.4			sub-026	250	26	45.2	47.4	COM11	COM16	COM3	2024-03-19_09h59.00.496	001-EEG_SVR_Officel	2022.2.5	143.9033199933916		5.880000000000109	2_sub-pilot026_SVR_EEG_block5-6.protocol.csv	step9	1375	136.732	STIMULATE	47.4	47.3	47.3	47.3	47.4	9	1834.965
1839.502	0	919751	wait	20	4	0	4	0	4.0	0.0	4.0	0.0						2053.2241948	2060.9751237999994	2060.9751237999994	3.0	['3', 'return']	[4.110371699999632, 4.885328499999559]	7.74	5.01	0.0	controle	low_pain	45.2			sub-026	250	26	45.2	47.4	COM11	COM16	COM3	2024-03-19_09h59.00.496	001-EEG_SVR_Officel	2022.2.5	143.9033199933916		11.14799999999991	2_sub-pilot026_SVR_EEG_block5-6.protocol.csv	step11	1616	160.656	STIMULATE	45.2	45.1	45.1	45.1	45.3	11	1858.889
1847.242	0	923621	CNhz	12	4	0	4	0	4.0	0.0	4.0	0.0						2053.2241948	2060.9751237999994	2060.9751237999994	3.0	['3', 'return']	[4.110371699999632, 4.885328499999559]	7.74	5.01	0.0	controle	low_pain	45.2			sub-026	250	26	45.2	47.4	COM11	COM16	COM3	2024-03-19_09h59.00.496	001-EEG_SVR_Officel	2022.2.5	143.9033199933916		7.740000000000009	2_sub-pilot026_SVR_EEG_block5-6.protocol.csv	step11	1616	160.656	STIMULATE	45.2	45.1	45.1	45.1	45.3	11	1858.889
1853.004	0	926502	CN/Lo	11	4	0	4	0	4.0	0.0	4.0	0.0						2053.2241948	2060.9751237999994	2060.9751237999994	3.0	['3', 'return']	[4.110371699999632, 4.885328499999559]	7.74	5.01	0.0	controle	low_pain	45.2			sub-026	250	26	45.2	47.4	COM11	COM16	COM3	2024-03-19_09h59.00.496	001-EEG_SVR_Officel	2022.2.5	143.9033199933916		5.011999999999944	2_sub-pilot026_SVR_EEG_block5-6.protocol.csv	step11	1616	160.656	STIMULATE	45.2	45.1	45.1	45.1	45.3	11	1858.889
1865.158	0	932579	wait	20	4	0	4	0	5.0	0.0	5.0	0.0						2078.8807248	2085.2144887	2085.2144887	8.0	['8', 'return']	[2.377104199999849, 3.154034199999842]	6.32	5.64	1.0	10hz	high_pain	47.4			sub-026	250	26	45.2	47.4	COM11	COM16	COM3	2024-03-19_09h59.00.496	001-EEG_SVR_Officel	2022.2.5	143.9033199933916		12.903999999999996	2_sub-pilot026_SVR_EEG_block5-6.protocol.csv	step13	1866	185.467	STIMULATE	47.4	47.3	47.3	47.4	47.6	13	1883.6999999999998
1871.48	0	935740	10hz	3	4	0	4	0	5.0	0.0	5.0	0.0						2078.8807248	2085.2144887	2085.2144887	8.0	['8', 'return']	[2.377104199999849, 3.154034199999842]	6.32	5.64	1.0	10hz	high_pain	47.4			sub-026	250	26	45.2	47.4	COM11	COM16	COM3	2024-03-19_09h59.00.496	001-EEG_SVR_Officel	2022.2.5	143.9033199933916		6.322000000000116	2_sub-pilot026_SVR_EEG_block5-6.protocol.csv	step13	1866	185.467	STIMULATE	47.4	47.3	47.3	47.4	47.6	13	1883.6999999999998
1877.874	0	938937	10/Hi	1	4	0	4	0	5.0	0.0	5.0	0.0						2078.8807248	2085.2144887	2085.2144887	8.0	['8', 'return']	[2.377104199999849, 3.154034199999842]	6.32	5.64	1.0	10hz	high_pain	47.4			sub-026	250	26	45.2	47.4	COM11	COM16	COM3	2024-03-19_09h59.00.496	001-EEG_SVR_Officel	2022.2.5	143.9033199933916		5.6440000000000055	2_sub-pilot026_SVR_EEG_block5-6.protocol.csv	step13	1866	185.467	STIMULATE	47.4	47.3	47.3	47.4	47.6	13	1883.6999999999998
1887.66	0	943830	wait	20	4	0	4	0	6.0	0.0	6.0	0.0						2101.3831103	2106.6195539999994	2106.6195539999994	9.0	['9', 'return']	[2.7784177000003183, 3.3706707999999708]	5.23	6.27	2.0	controle	high_pain	47.4			sub-026	250	26	45.2	47.4	COM11	COM16	COM3	2024-03-19_09h59.00.496	001-EEG_SVR_Officel	2022.2.5	143.9033199933916		10.536000000000058	2_sub-pilot026_SVR_EEG_block5-6.protocol.csv	step15	2089	207.569	STIMULATE	47.5	47.3	47.3	47.4	47.4	15	1905.802
1892.886	0	946443	CNhz	12	4	0	4	0	6.0	0.0	6.0	0.0						2101.3831103	2106.6195539999994	2106.6195539999994	9.0	['9', 'return']	[2.7784177000003183, 3.3706707999999708]	5.23	6.27	2.0	controle	high_pain	47.4			sub-026	250	26	45.2	47.4	COM11	COM16	COM3	2024-03-19_09h59.00.496	001-EEG_SVR_Officel	2022.2.5	143.9033199933916		5.225999999999885	2_sub-pilot026_SVR_EEG_block5-6.protocol.csv	step15	2089	207.569	STIMULATE	47.5	47.3	47.3	47.4	47.4	15	1905.802
1899.904	0	949952	CN/Hi	10	4	0	4	0	6.0	0.0	6.0	0.0						2101.3831103	2106.6195539999994	2106.6195539999994	9.0	['9', 'return']	[2.7784177000003183, 3.3706707999999708]	5.23	6.27	2.0	controle	high_pain	47.4			sub-026	250	26	45.2	47.4	COM11	COM16	COM3	2024-03-19_09h59.00.496	001-EEG_SVR_Officel	2022.2.5	143.9033199933916		6.268000000000029	2_sub-pilot026_SVR_EEG_block5-6.protocol.csv	step15	2089	207.569	STIMULATE	47.5	47.3	47.3	47.4	47.4	15	1905.802
1909.28	0	954640	wait	20	4	0	4	0	7.0	0.0	7.0	0.0						2123.0024761	2128.8656018	2128.8656018	8.0	['8', 'return']	[3.0309132000002137, 3.7975125000002663]	5.85	5.66	3.0	20hz	high_pain	47.4			sub-026	250	26	45.2	47.4	COM11	COM16	COM3	2024-03-19_09h59.00.496	001-EEG_SVR_Officel	2022.2.5	143.9033199933916		10.125999999999976	2_sub-pilot026_SVR_EEG_block5-6.protocol.csv	step17	2308	229.206	STIMULATE	47.4	47.3	47.4	47.4	47.4	17	1927.4389999999999
