onset	duration	sample	trial_type	value	block.thisRepN	block.thisTrialN	block.thisN	block.thisIndex	reps.thisRepN	reps.thisTrialN	reps.thisN	reps.thisIndex	afrec_start	rec_start	key_resp.keys	key_resp.rt	wait_time_text.started	wait_time_text.stopped	therm_loca_text.started	subResponse	keyResp.keys	keyResp.rt	ITI_wait	wait_trigger	loca_thermode	Hz_condition	temp_condition	temp_valeur	therm_loca_text.stopped	text.started	text.stopped	participant	brightness	num_part	low	high	com_svr	com_thermode	com_eeg	date	expName	psychopyVersion	frameRate	Unnamed: 39	distance_from_previous	file	step	index	time	type	temp1	temp2	temp3	temp4	temp5	step_num	time_sync
68.858	0	68858	wait	10005	0	0	0	0	0.0	0.0	0.0	0.0	45.69019289989956	45.60023449989967	p	68.73677700001281	114.45015159994364	122.24146869999822	122.24146869999822	4.0	['4', 'return']	[4.240146600059234, 5.216216100030579]	7.78	5.02	0.0	10hz	low_pain	47.2				sub-051	250	51	47.2	48.8	COM5	COM15	COM3	2024-12-09_09h55.14.423	001-EEG_SVR_Officel	2022.2.5	240.2662147553876		68.858	0_sub-pilot051_SVR_EEG_block1-2.protocol.csv	step3	1392	139.058	STIMULATE	47.2	47.1	47.2	47.2	47.4	3	88.23599999999999
76.638	0	76638	10hz	10004	0	0	0	0	0.0	0.0	0.0	0.0	45.69019289989956	45.60023449989967	p	68.73677700001281	114.45015159994364	122.24146869999822	122.24146869999822	4.0	['4', 'return']	[4.240146600059234, 5.216216100030579]	7.78	5.02	0.0	10hz	low_pain	47.2				sub-051	250	51	47.2	48.8	COM5	COM15	COM3	2024-12-09_09h55.14.423	001-EEG_SVR_Officel	2022.2.5	240.2662147553876		7.780000000000001	0_sub-pilot051_SVR_EEG_block1-2.protocol.csv	step3	1392	139.058	STIMULATE	47.2	47.1	47.2	47.2	47.4	3	88.23599999999999
82.412	0	82412	10/Lo	10001	0	0	0	0	0.0	0.0	0.0	0.0	45.69019289989956	45.60023449989967	p	68.73677700001281	114.45015159994364	122.24146869999822	122.24146869999822	4.0	['4', 'return']	[4.240146600059234, 5.216216100030579]	7.78	5.02	0.0	10hz	low_pain	47.2				sub-051	250	51	47.2	48.8	COM5	COM15	COM3	2024-12-09_09h55.14.423	001-EEG_SVR_Officel	2022.2.5	240.2662147553876		5.024000000000001	0_sub-pilot051_SVR_EEG_block1-2.protocol.csv	step3	1392	139.058	STIMULATE	47.2	47.1	47.2	47.2	47.4	3	88.23599999999999
94.874	0	94874	wait	10005	0	0	0	0	1.0	0.0	1.0	0.0					140.4661122999387	146.88263169990387	146.88263169990387	4.0	['4', 'return']	[1.9468065000837669, 2.9538598000071943]	6.41	6.13	1.0	40hz	high_pain	48.8				sub-051	250	51	47.2	48.8	COM5	COM15	COM3	2024-12-09_09h55.14.423	001-EEG_SVR_Officel	2022.2.5	240.2662147553876		13.211999999999989	0_sub-pilot051_SVR_EEG_block1-2.protocol.csv	step5	1651	164.721	STIMULATE	48.8	48.8	48.8	48.8	49.0	5	113.899
101.282	0	101282	40hz	10004	0	0	0	0	1.0	0.0	1.0	0.0					140.4661122999387	146.88263169990387	146.88263169990387	4.0	['4', 'return']	[1.9468065000837669, 2.9538598000071943]	6.41	6.13	1.0	40hz	high_pain	48.8				sub-051	250	51	47.2	48.8	COM5	COM15	COM3	2024-12-09_09h55.14.423	001-EEG_SVR_Officel	2022.2.5	240.2662147553876		6.408000000000001	0_sub-pilot051_SVR_EEG_block1-2.protocol.csv	step5	1651	164.721	STIMULATE	48.8	48.8	48.8	48.8	49.0	5	113.899
108.165	0	108165	40/Hi	10001	0	0	0	0	1.0	0.0	1.0	0.0					140.4661122999387	146.88263169990387	146.88263169990387	4.0	['4', 'return']	[1.9468065000837669, 2.9538598000071943]	6.41	6.13	1.0	40hz	high_pain	48.8				sub-051	250	51	47.2	48.8	COM5	COM15	COM3	2024-12-09_09h55.14.423	001-EEG_SVR_Officel	2022.2.5	240.2662147553876		6.13300000000001	0_sub-pilot051_SVR_EEG_block1-2.protocol.csv	step5	1651	164.721	STIMULATE	48.8	48.8	48.8	48.8	49.0	5	113.899
117.262	0	117262	wait	10005	0	0	0	0	2.0	0.0	2.0	0.0					162.85433099989314	170.19159579998814	170.19159579998814	3.0	['3', 'return']	[2.0224640999222174, 2.7264282000251114]	7.33	6.02	2.0	40hz	low_pain	47.2				sub-051	250	51	47.2	48.8	COM5	COM15	COM3	2024-12-09_09h55.14.423	001-EEG_SVR_Officel	2022.2.5	240.2662147553876		9.846999999999994	0_sub-pilot051_SVR_EEG_block1-2.protocol.csv	step7	1886	188.042	STIMULATE	47.2	47.2	47.1	47.2	47.2	7	137.22
124.591	0	124591	40hz	10004	0	0	0	0	2.0	0.0	2.0	0.0					162.85433099989314	170.19159579998814	170.19159579998814	3.0	['3', 'return']	[2.0224640999222174, 2.7264282000251114]	7.33	6.02	2.0	40hz	low_pain	47.2				sub-051	250	51	47.2	48.8	COM5	COM15	COM3	2024-12-09_09h55.14.423	001-EEG_SVR_Officel	2022.2.5	240.2662147553876		7.3289999999999935	0_sub-pilot051_SVR_EEG_block1-2.protocol.csv	step7	1886	188.042	STIMULATE	47.2	47.2	47.1	47.2	47.2	7	137.22
131.362	0	131362	40/Lo	10001	0	0	0	0	2.0	0.0	2.0	0.0					162.85433099989314	170.19159579998814	170.19159579998814	3.0	['3', 'return']	[2.0224640999222174, 2.7264282000251114]	7.33	6.02	2.0	40hz	low_pain	47.2				sub-051	250	51	47.2	48.8	COM5	COM15	COM3	2024-12-09_09h55.14.423	001-EEG_SVR_Officel	2022.2.5	240.2662147553876		6.021000000000001	0_sub-pilot051_SVR_EEG_block1-2.protocol.csv	step7	1886	188.042	STIMULATE	47.2	47.2	47.1	47.2	47.2	7	137.22
140.34	0	140340	wait	10005	0	0	0	0	3.0	0.0	3.0	0.0					185.93225339998023	191.48731060000136	191.48731060000136	6.0	['6', 'return']	[2.454528900096193, 3.087339400080964]	5.55	5.14	3.0	10hz	high_pain	48.8				sub-051	250	51	47.2	48.8	COM5	COM15	COM3	2024-12-09_09h55.14.423	001-EEG_SVR_Officel	2022.2.5	240.2662147553876		9.728000000000009	0_sub-pilot051_SVR_EEG_block1-2.protocol.csv	step9	2092	208.423	STIMULATE	48.8	48.7	48.8	48.8	48.8	9	157.601
145.887	0	145887	10hz	10004	0	0	0	0	3.0	0.0	3.0	0.0					185.93225339998023	191.48731060000136	191.48731060000136	6.0	['6', 'return']	[2.454528900096193, 3.087339400080964]	5.55	5.14	3.0	10hz	high_pain	48.8				sub-051	250	51	47.2	48.8	COM5	COM15	COM3	2024-12-09_09h55.14.423	001-EEG_SVR_Officel	2022.2.5	240.2662147553876		5.546999999999997	0_sub-pilot051_SVR_EEG_block1-2.protocol.csv	step9	2092	208.423	STIMULATE	48.8	48.7	48.8	48.8	48.8	9	157.601
151.777	0	151777	10/Hi	10001	0	0	0	0	3.0	0.0	3.0	0.0					185.93225339998023	191.48731060000136	191.48731060000136	6.0	['6', 'return']	[2.454528900096193, 3.087339400080964]	5.55	5.14	3.0	10hz	high_pain	48.8				sub-051	250	51	47.2	48.8	COM5	COM15	COM3	2024-12-09_09h55.14.423	001-EEG_SVR_Officel	2022.2.5	240.2662147553876		5.139999999999986	0_sub-pilot051_SVR_EEG_block1-2.protocol.csv	step9	2092	208.423	STIMULATE	48.8	48.7	48.8	48.8	48.8	9	157.601
161.994	0	161994	wait	10005	0	0	0	0	4.0	0.0	4.0	0.0					207.58622429997197	213.56150589999743	213.56150589999743	5.0	['5', 'return']	[2.947473799926229, 3.6758844999130815]	5.97	5.47	0.0	controle	high_pain	48.8				sub-051	250	51	47.2	48.8	COM5	COM15	COM3	2024-12-09_09h55.14.423	001-EEG_SVR_Officel	2022.2.5	240.2662147553876		10.967000000000013	0_sub-pilot051_SVR_EEG_block1-2.protocol.csv	step11	2318	230.825	STIMULATE	48.8	48.8	48.8	48.8	48.9	11	180.003
167.961	0	167961	CNhz	10004	0	0	0	0	4.0	0.0	4.0	0.0					207.58622429997197	213.56150589999743	213.56150589999743	5.0	['5', 'return']	[2.947473799926229, 3.6758844999130815]	5.97	5.47	0.0	controle	high_pain	48.8				sub-051	250	51	47.2	48.8	COM5	COM15	COM3	2024-12-09_09h55.14.423	001-EEG_SVR_Officel	2022.2.5	240.2662147553876		5.967000000000013	0_sub-pilot051_SVR_EEG_block1-2.protocol.csv	step11	2318	230.825	STIMULATE	48.8	48.8	48.8	48.8	48.9	11	180.003
174.181	0	174181	CN/Hi	10001	0	0	0	0	4.0	0.0	4.0	0.0					207.58622429997197	213.56150589999743	213.56150589999743	5.0	['5', 'return']	[2.947473799926229, 3.6758844999130815]	5.97	5.47	0.0	controle	high_pain	48.8				sub-051	250	51	47.2	48.8	COM5	COM15	COM3	2024-12-09_09h55.14.423	001-EEG_SVR_Officel	2022.2.5	240.2662147553876		5.469999999999999	0_sub-pilot051_SVR_EEG_block1-2.protocol.csv	step11	2318	230.825	STIMULATE	48.8	48.8	48.8	48.8	48.9	11	180.003
184.661	0	184661	wait	10005	0	0	0	0	5.0	0.0	5.0	0.0					230.2527160999598	237.22767739999108	237.22767739999108	4.0	['4', 'return']	[1.904700000071898, 2.666079399990849]	6.97	5.7	1.0	10hz	low_pain	47.2				sub-051	250	51	47.2	48.8	COM5	COM15	COM3	2024-12-09_09h55.14.423	001-EEG_SVR_Officel	2022.2.5	240.2662147553876		11.22999999999999	0_sub-pilot051_SVR_EEG_block1-2.protocol.csv	step13	2559	254.722	STIMULATE	47.2	47.2	47.2	47.2	47.2	13	203.9
191.627	0	191627	10hz	10004	0	0	0	0	5.0	0.0	5.0	0.0					230.2527160999598	237.22767739999108	237.22767739999108	4.0	['4', 'return']	[1.904700000071898, 2.666079399990849]	6.97	5.7	1.0	10hz	low_pain	47.2				sub-051	250	51	47.2	48.8	COM5	COM15	COM3	2024-12-09_09h55.14.423	001-EEG_SVR_Officel	2022.2.5	240.2662147553876		6.966000000000008	0_sub-pilot051_SVR_EEG_block1-2.protocol.csv	step13	2559	254.722	STIMULATE	47.2	47.2	47.2	47.2	47.2	13	203.9
198.081	0	198081	10/Lo	10001	0	0	0	0	5.0	0.0	5.0	0.0					230.2527160999598	237.22767739999108	237.22767739999108	4.0	['4', 'return']	[1.904700000071898, 2.666079399990849]	6.97	5.7	1.0	10hz	low_pain	47.2				sub-051	250	51	47.2	48.8	COM5	COM15	COM3	2024-12-09_09h55.14.423	001-EEG_SVR_Officel	2022.2.5	240.2662147553876		5.703999999999979	0_sub-pilot051_SVR_EEG_block1-2.protocol.csv	step13	2559	254.722	STIMULATE	47.2	47.2	47.2	47.2	47.2	13	203.9
207.314	0	207314	wait	10005	0	0	0	0	6.0	0.0	6.0	0.0					252.9066606999841	260.8135790999513	260.8135790999513	4.0	['4', 'return']	[2.184978000004776, 3.0329429000848904]	7.9	5.64	2.0	20hz	low_pain	47.2				sub-051	250	51	47.2	48.8	COM5	COM15	COM3	2024-12-09_09h55.14.423	001-EEG_SVR_Officel	2022.2.5	240.2662147553876		9.983000000000004	0_sub-pilot051_SVR_EEG_block1-2.protocol.csv	step15	2796	278.285	STIMULATE	47.2	47.2	47.2	47.2	47.2	15	227.46300000000002
215.21	0	215210	20hz	10004	0	0	0	0	6.0	0.0	6.0	0.0					252.9066606999841	260.8135790999513	260.8135790999513	4.0	['4', 'return']	[2.184978000004776, 3.0329429000848904]	7.9	5.64	2.0	20hz	low_pain	47.2				sub-051	250	51	47.2	48.8	COM5	COM15	COM3	2024-12-09_09h55.14.423	001-EEG_SVR_Officel	2022.2.5	240.2662147553876		7.896000000000015	0_sub-pilot051_SVR_EEG_block1-2.protocol.csv	step15	2796	278.285	STIMULATE	47.2	47.2	47.2	47.2	47.2	15	227.46300000000002
221.602	0	221602	20/Lo	10001	0	0	0	0	6.0	0.0	6.0	0.0					252.9066606999841	260.8135790999513	260.8135790999513	4.0	['4', 'return']	[2.184978000004776, 3.0329429000848904]	7.9	5.64	2.0	20hz	low_pain	47.2				sub-051	250	51	47.2	48.8	COM5	COM15	COM3	2024-12-09_09h55.14.423	001-EEG_SVR_Officel	2022.2.5	240.2662147553876		5.641999999999996	0_sub-pilot051_SVR_EEG_block1-2.protocol.csv	step15	2796	278.285	STIMULATE	47.2	47.2	47.2	47.2	47.2	15	227.46300000000002
231.269	0	231269	wait	10005	0	0	0	0	7.0	0.0	7.0	0.0					276.8613327998901	284.6619987000013	284.6619987000013	3.0	['3', 'return']	[2.176252899924293, 2.8648195000132546]	7.79	5.42	3.0	20hz	low_pain	47.2				sub-051	250	51	47.2	48.8	COM5	COM15	COM3	2024-12-09_09h55.14.423	001-EEG_SVR_Officel	2022.2.5	240.2662147553876		10.417000000000002	0_sub-pilot051_SVR_EEG_block1-2.protocol.csv	step17	3035	301.948	STIMULATE	47.2	47.1	47.2	47.2	47.2	17	251.12599999999998
239.062	0	239062	20hz	10004	0	0	0	0	7.0	0.0	7.0	0.0					276.8613327998901	284.6619987000013	284.6619987000013	3.0	['3', 'return']	[2.176252899924293, 2.8648195000132546]	7.79	5.42	3.0	20hz	low_pain	47.2				sub-051	250	51	47.2	48.8	COM5	COM15	COM3	2024-12-09_09h55.14.423	001-EEG_SVR_Officel	2022.2.5	240.2662147553876		7.793000000000006	0_sub-pilot051_SVR_EEG_block1-2.protocol.csv	step17	3035	301.948	STIMULATE	47.2	47.1	47.2	47.2	47.2	17	251.12599999999998
245.235	0	245235	20/Lo	10001	0	0	0	0	7.0	0.0	7.0	0.0					276.8613327998901	284.6619987000013	284.6619987000013	3.0	['3', 'return']	[2.176252899924293, 2.8648195000132546]	7.79	5.42	3.0	20hz	low_pain	47.2				sub-051	250	51	47.2	48.8	COM5	COM15	COM3	2024-12-09_09h55.14.423	001-EEG_SVR_Officel	2022.2.5	240.2662147553876		5.423000000000002	0_sub-pilot051_SVR_EEG_block1-2.protocol.csv	step17	3035	301.948	STIMULATE	47.2	47.1	47.2	47.2	47.2	17	251.12599999999998
254.943	0	254943	wait	10005	0	0	0	0	8.0	0.0	8.0	0.0					300.53512709995266	305.99012199998833	305.99012199998833	5.0	['5', 'return']	[2.7357868999242783, 3.447695599985309]	5.45	5.14	0.0	40hz	high_pain	48.8				sub-051	250	51	47.2	48.8	COM5	COM15	COM3	2024-12-09_09h55.14.423	001-EEG_SVR_Officel	2022.2.5	240.2662147553876		10.457999999999998	0_sub-pilot051_SVR_EEG_block1-2.protocol.csv	step19	3247	322.952	STIMULATE	48.8	48.8	48.8	48.8	48.9	19	272.13
260.389	0	260389	40hz	10004	0	0	0	0	8.0	0.0	8.0	0.0					300.53512709995266	305.99012199998833	305.99012199998833	5.0	['5', 'return']	[2.7357868999242783, 3.447695599985309]	5.45	5.14	0.0	40hz	high_pain	48.8				sub-051	250	51	47.2	48.8	COM5	COM15	COM3	2024-12-09_09h55.14.423	001-EEG_SVR_Officel	2022.2.5	240.2662147553876		5.445999999999998	0_sub-pilot051_SVR_EEG_block1-2.protocol.csv	step19	3247	322.952	STIMULATE	48.8	48.8	48.8	48.8	48.9	19	272.13
266.281	0	266281	40/Hi	10001	0	0	0	0	8.0	0.0	8.0	0.0					300.53512709995266	305.99012199998833	305.99012199998833	5.0	['5', 'return']	[2.7357868999242783, 3.447695599985309]	5.45	5.14	0.0	40hz	high_pain	48.8				sub-051	250	51	47.2	48.8	COM5	COM15	COM3	2024-12-09_09h55.14.423	001-EEG_SVR_Officel	2022.2.5	240.2662147553876		5.141999999999996	0_sub-pilot051_SVR_EEG_block1-2.protocol.csv	step19	3247	322.952	STIMULATE	48.8	48.8	48.8	48.8	48.9	19	272.13
276.86	0	276860	wait	10005	0	0	0	0	9.0	0.0	9.0	0.0					322.4518956999528	329.68536409991793	329.68536409991793	5.5	['5', 'a', '5', 'return']	[2.6002172000007704, 2.8082262000534683, 3.008293900056742, 3.863906000042334]	7.23	5.41	1.0	10hz	high_pain	48.8				sub-051	250	51	47.2	48.8	COM5	COM15	COM3	2024-12-09_09h55.14.423	001-EEG_SVR_Officel	2022.2.5	240.2662147553876		11.329000000000008	0_sub-pilot051_SVR_EEG_block1-2.protocol.csv	step21	3489	346.99	STIMULATE	48.8	48.8	48.8	48.8	48.9	21	296.168
284.086	0	284086	10hz	10004	0	0	0	0	9.0	0.0	9.0	0.0					322.4518956999528	329.68536409991793	329.68536409991793	5.5	['5', 'a', '5', 'return']	[2.6002172000007704, 2.8082262000534683, 3.008293900056742, 3.863906000042334]	7.23	5.41	1.0	10hz	high_pain	48.8				sub-051	250	51	47.2	48.8	COM5	COM15	COM3	2024-12-09_09h55.14.423	001-EEG_SVR_Officel	2022.2.5	240.2662147553876		7.225999999999999	0_sub-pilot051_SVR_EEG_block1-2.protocol.csv	step21	3489	346.99	STIMULATE	48.8	48.8	48.8	48.8	48.9	21	296.168
290.247	0	290247	10/Hi	10001	0	0	0	0	9.0	0.0	9.0	0.0					322.4518956999528	329.68536409991793	329.68536409991793	5.5	['5', 'a', '5', 'return']	[2.6002172000007704, 2.8082262000534683, 3.008293900056742, 3.863906000042334]	7.23	5.41	1.0	10hz	high_pain	48.8				sub-051	250	51	47.2	48.8	COM5	COM15	COM3	2024-12-09_09h55.14.423	001-EEG_SVR_Officel	2022.2.5	240.2662147553876		5.411000000000001	0_sub-pilot051_SVR_EEG_block1-2.protocol.csv	step21	3489	346.99	STIMULATE	48.8	48.8	48.8	48.8	48.9	21	296.168
300.972	0	300972	wait	10005	0	0	0	0	10.0	0.0	10.0	0.0					346.56419239996467	354.26436849997845	354.26436849997845	3.0	['3', 'return']	[1.9646893999306485, 2.6201336999656633]	7.69	6.09	2.0	controle	low_pain	47.2				sub-051	250	51	47.2	48.8	COM5	COM15	COM3	2024-12-09_09h55.14.423	001-EEG_SVR_Officel	2022.2.5	240.2662147553876		11.474999999999966	0_sub-pilot051_SVR_EEG_block1-2.protocol.csv	step23	3743	372.162	STIMULATE	47.2	47.2	47.2	47.2	47.2	23	321.34
308.665	0	308665	CNhz	10004	0	0	0	0	10.0	0.0	10.0	0.0					346.56419239996467	354.26436849997845	354.26436849997845	3.0	['3', 'return']	[1.9646893999306485, 2.6201336999656633]	7.69	6.09	2.0	controle	low_pain	47.2				sub-051	250	51	47.2	48.8	COM5	COM15	COM3	2024-12-09_09h55.14.423	001-EEG_SVR_Officel	2022.2.5	240.2662147553876		7.6930000000000405	0_sub-pilot051_SVR_EEG_block1-2.protocol.csv	step23	3743	372.162	STIMULATE	47.2	47.2	47.2	47.2	47.2	23	321.34
315.505	0	315505	CN/Lo	10001	0	0	0	0	10.0	0.0	10.0	0.0					346.56419239996467	354.26436849997845	354.26436849997845	3.0	['3', 'return']	[1.9646893999306485, 2.6201336999656633]	7.69	6.09	2.0	controle	low_pain	47.2				sub-051	250	51	47.2	48.8	COM5	COM15	COM3	2024-12-09_09h55.14.423	001-EEG_SVR_Officel	2022.2.5	240.2662147553876		6.089999999999975	0_sub-pilot051_SVR_EEG_block1-2.protocol.csv	step23	3743	372.162	STIMULATE	47.2	47.2	47.2	47.2	47.2	23	321.34
324.305	0	324305	wait	10005	0	0	0	0	11.0	0.0	11.0	0.0					369.89733099995647	375.73056689999066	375.73056689999066	5.5	['5', 'a', '5', 'return']	[2.290900200023316, 2.489741600002162, 2.6739038000814617, 3.4346280000172555]	5.83	5.77	3.0	controle	low_pain	47.2				sub-051	250	51	47.2	48.8	COM5	COM15	COM3	2024-12-09_09h55.14.423	001-EEG_SVR_Officel	2022.2.5	240.2662147553876		9.550000000000011	0_sub-pilot051_SVR_EEG_block1-2.protocol.csv	step25	3957	393.394	STIMULATE	47.2	47.2	47.2	47.2	47.2	25	342.572
330.13	0	330130	CNhz	10004	0	0	0	0	11.0	0.0	11.0	0.0					369.89733099995647	375.73056689999066	375.73056689999066	5.5	['5', 'a', '5', 'return']	[2.290900200023316, 2.489741600002162, 2.6739038000814617, 3.4346280000172555]	5.83	5.77	3.0	controle	low_pain	47.2				sub-051	250	51	47.2	48.8	COM5	COM15	COM3	2024-12-09_09h55.14.423	001-EEG_SVR_Officel	2022.2.5	240.2662147553876		5.824999999999989	0_sub-pilot051_SVR_EEG_block1-2.protocol.csv	step25	3957	393.394	STIMULATE	47.2	47.2	47.2	47.2	47.2	25	342.572
336.651	0	336651	CN/Lo	10001	0	0	0	0	11.0	0.0	11.0	0.0					369.89733099995647	375.73056689999066	375.73056689999066	5.5	['5', 'a', '5', 'return']	[2.290900200023316, 2.489741600002162, 2.6739038000814617, 3.4346280000172555]	5.83	5.77	3.0	controle	low_pain	47.2				sub-051	250	51	47.2	48.8	COM5	COM15	COM3	2024-12-09_09h55.14.423	001-EEG_SVR_Officel	2022.2.5	240.2662147553876		5.771000000000015	0_sub-pilot051_SVR_EEG_block1-2.protocol.csv	step25	3957	393.394	STIMULATE	47.2	47.2	47.2	47.2	47.2	25	342.572
346.593	0	346593	wait	10005	0	0	0	0	12.0	0.0	12.0	0.0					392.1856270999415	398.4095544999	398.4095544999	5.0	['5', 'return']	[2.2597766999388114, 3.0044633999932557]	6.22	5.14	0.0	20hz	high_pain	48.8				sub-051	250	51	47.2	48.8	COM5	COM15	COM3	2024-12-09_09h55.14.423	001-EEG_SVR_Officel	2022.2.5	240.2662147553876		10.692000000000007	0_sub-pilot051_SVR_EEG_block1-2.protocol.csv	step27	4179	415.349	STIMULATE	48.8	48.8	48.8	48.8	48.9	27	364.52700000000004
352.809	0	352809	20hz	10004	0	0	0	0	12.0	0.0	12.0	0.0					392.1856270999415	398.4095544999	398.4095544999	5.0	['5', 'return']	[2.2597766999388114, 3.0044633999932557]	6.22	5.14	0.0	20hz	high_pain	48.8				sub-051	250	51	47.2	48.8	COM5	COM15	COM3	2024-12-09_09h55.14.423	001-EEG_SVR_Officel	2022.2.5	240.2662147553876		6.216000000000008	0_sub-pilot051_SVR_EEG_block1-2.protocol.csv	step27	4179	415.349	STIMULATE	48.8	48.8	48.8	48.8	48.9	27	364.52700000000004
358.701	0	358701	20/Hi	10001	0	0	0	0	12.0	0.0	12.0	0.0					392.1856270999415	398.4095544999	398.4095544999	5.0	['5', 'return']	[2.2597766999388114, 3.0044633999932557]	6.22	5.14	0.0	20hz	high_pain	48.8				sub-051	250	51	47.2	48.8	COM5	COM15	COM3	2024-12-09_09h55.14.423	001-EEG_SVR_Officel	2022.2.5	240.2662147553876		5.141999999999996	0_sub-pilot051_SVR_EEG_block1-2.protocol.csv	step27	4179	415.349	STIMULATE	48.8	48.8	48.8	48.8	48.9	27	364.52700000000004
368.833	0	368833	wait	10005	0	0	0	0	13.0	0.0	13.0	0.0					414.4255375999492	420.9433847999899	420.9433847999899	4.0	['4', 'return']	[2.3258260999573395, 3.0946350999874994]	6.51	6.48	1.0	40hz	low_pain	47.2				sub-051	250	51	47.2	48.8	COM5	COM15	COM3	2024-12-09_09h55.14.423	001-EEG_SVR_Officel	2022.2.5	240.2662147553876		10.882000000000005	0_sub-pilot051_SVR_EEG_block1-2.protocol.csv	step29	4420	439.248	STIMULATE	47.2	47.1	47.2	47.2	47.3	29	388.42600000000004
375.343	0	375343	40hz	10004	0	0	0	0	13.0	0.0	13.0	0.0					414.4255375999492	420.9433847999899	420.9433847999899	4.0	['4', 'return']	[2.3258260999573395, 3.0946350999874994]	6.51	6.48	1.0	40hz	low_pain	47.2				sub-051	250	51	47.2	48.8	COM5	COM15	COM3	2024-12-09_09h55.14.423	001-EEG_SVR_Officel	2022.2.5	240.2662147553876		6.509999999999991	0_sub-pilot051_SVR_EEG_block1-2.protocol.csv	step29	4420	439.248	STIMULATE	47.2	47.1	47.2	47.2	47.3	29	388.42600000000004
382.575	0	382575	40/Lo	10001	0	0	0	0	13.0	0.0	13.0	0.0					414.4255375999492	420.9433847999899	420.9433847999899	4.0	['4', 'return']	[2.3258260999573395, 3.0946350999874994]	6.51	6.48	1.0	40hz	low_pain	47.2				sub-051	250	51	47.2	48.8	COM5	COM15	COM3	2024-12-09_09h55.14.423	001-EEG_SVR_Officel	2022.2.5	240.2662147553876		6.481999999999971	0_sub-pilot051_SVR_EEG_block1-2.protocol.csv	step29	4420	439.248	STIMULATE	47.2	47.1	47.2	47.2	47.3	29	388.42600000000004
391.458	0	391458	wait	10005	0	0	0	0	14.0	0.0	14.0	0.0					437.0508295999607	443.10495369997807	443.10495369997807	3.0	['3', 'return']	[2.844069999991916, 3.6518599999835715]	6.05	5.89	2.0	10hz	low_pain	47.2				sub-051	250	51	47.2	48.8	COM5	COM15	COM3	2024-12-09_09h55.14.423	001-EEG_SVR_Officel	2022.2.5	240.2662147553876		9.633000000000038	0_sub-pilot051_SVR_EEG_block1-2.protocol.csv	step31	4637	460.797	STIMULATE	47.2	47.2	47.2	47.2	47.2	31	409.975
397.504	0	397504	10hz	10004	0	0	0	0	14.0	0.0	14.0	0.0					437.0508295999607	443.10495369997807	443.10495369997807	3.0	['3', 'return']	[2.844069999991916, 3.6518599999835715]	6.05	5.89	2.0	10hz	low_pain	47.2				sub-051	250	51	47.2	48.8	COM5	COM15	COM3	2024-12-09_09h55.14.423	001-EEG_SVR_Officel	2022.2.5	240.2662147553876		6.045999999999992	0_sub-pilot051_SVR_EEG_block1-2.protocol.csv	step31	4637	460.797	STIMULATE	47.2	47.2	47.2	47.2	47.2	31	409.975
404.146	0	404146	10/Lo	10001	0	0	0	0	14.0	0.0	14.0	0.0					437.0508295999607	443.10495369997807	443.10495369997807	3.0	['3', 'return']	[2.844069999991916, 3.6518599999835715]	6.05	5.89	2.0	10hz	low_pain	47.2				sub-051	250	51	47.2	48.8	COM5	COM15	COM3	2024-12-09_09h55.14.423	001-EEG_SVR_Officel	2022.2.5	240.2662147553876		5.891999999999996	0_sub-pilot051_SVR_EEG_block1-2.protocol.csv	step31	4637	460.797	STIMULATE	47.2	47.2	47.2	47.2	47.2	31	409.975
414.184	0	414184	wait	10005	0	0	0	0	15.0	0.0	15.0	0.0					459.7763473999221	465.6460082998965	465.6460082998965	6.0	['6', 'return']	[2.7432446000166237, 3.5110127000370994]	5.87	5.86	3.0	40hz	high_pain	48.8	478.6462763999589			sub-051	250	51	47.2	48.8	COM5	COM15	COM3	2024-12-09_09h55.14.423	001-EEG_SVR_Officel	2022.2.5	240.2662147553876		10.788000000000011	0_sub-pilot051_SVR_EEG_block1-2.protocol.csv	step33	4864	483.223	STIMULATE	48.8	48.8	48.8	48.8	48.8	33	432.40100000000007
420.05	0	420050	40hz	10004	0	0	0	0	15.0	0.0	15.0	0.0					459.7763473999221	465.6460082998965	465.6460082998965	6.0	['6', 'return']	[2.7432446000166237, 3.5110127000370994]	5.87	5.86	3.0	40hz	high_pain	48.8	478.6462763999589			sub-051	250	51	47.2	48.8	COM5	COM15	COM3	2024-12-09_09h55.14.423	001-EEG_SVR_Officel	2022.2.5	240.2662147553876		5.8659999999999854	0_sub-pilot051_SVR_EEG_block1-2.protocol.csv	step33	4864	483.223	STIMULATE	48.8	48.8	48.8	48.8	48.8	33	432.40100000000007
426.662	0	426662	40/Hi	10001	0	0	0	0	15.0	0.0	15.0	0.0					459.7763473999221	465.6460082998965	465.6460082998965	6.0	['6', 'return']	[2.7432446000166237, 3.5110127000370994]	5.87	5.86	3.0	40hz	high_pain	48.8	478.6462763999589			sub-051	250	51	47.2	48.8	COM5	COM15	COM3	2024-12-09_09h55.14.423	001-EEG_SVR_Officel	2022.2.5	240.2662147553876		5.861999999999966	0_sub-pilot051_SVR_EEG_block1-2.protocol.csv	step33	4864	483.223	STIMULATE	48.8	48.8	48.8	48.8	48.8	33	432.40100000000007
496.833	0	496833	wait	10005	1	0	1	0	0.0	0.0	0.0	0.0			p	0.7385895999614149	542.4249332998879	549.8212877999758	549.8212877999758	5.0	['5', 'return']	[2.28006739995908, 3.1123692999826744]	7.39	6.23	0.0	10hz	high_pain	48.8				sub-051	250	51	47.2	48.8	COM5	COM15	COM3	2024-12-09_09h55.14.423	001-EEG_SVR_Officel	2022.2.5	240.2662147553876		70.92100000000005	0_sub-pilot051_SVR_EEG_block1-2.protocol.csv	step35	5713	567.938	STIMULATE	48.9	48.7	48.8	48.8	48.9	35	517.1329999999999
504.221	0	504221	10hz	10004	1	0	1	0	0.0	0.0	0.0	0.0			p	0.7385895999614149	542.4249332998879	549.8212877999758	549.8212877999758	5.0	['5', 'return']	[2.28006739995908, 3.1123692999826744]	7.39	6.23	0.0	10hz	high_pain	48.8				sub-051	250	51	47.2	48.8	COM5	COM15	COM3	2024-12-09_09h55.14.423	001-EEG_SVR_Officel	2022.2.5	240.2662147553876		7.387999999999977	0_sub-pilot051_SVR_EEG_block1-2.protocol.csv	step35	5713	567.938	STIMULATE	48.9	48.7	48.8	48.8	48.9	35	517.1329999999999
511.203	0	511203	10/Hi	10001	1	0	1	0	0.0	0.0	0.0	0.0			p	0.7385895999614149	542.4249332998879	549.8212877999758	549.8212877999758	5.0	['5', 'return']	[2.28006739995908, 3.1123692999826744]	7.39	6.23	0.0	10hz	high_pain	48.8				sub-051	250	51	47.2	48.8	COM5	COM15	COM3	2024-12-09_09h55.14.423	001-EEG_SVR_Officel	2022.2.5	240.2662147553876		6.231999999999971	0_sub-pilot051_SVR_EEG_block1-2.protocol.csv	step35	5713	567.938	STIMULATE	48.9	48.7	48.8	48.8	48.9	35	517.1329999999999
520.353	0	520352	wait	10005	1	0	1	0	1.0	0.0	1.0	0.0					565.9455543999793	572.1705229999498	572.1705229999498	2.0	['2', 'return']	[2.2347467999206856, 3.0672270000213757]	6.22	5.72	1.0	20hz	low_pain	47.2				sub-051	250	51	47.2	48.8	COM5	COM15	COM3	2024-12-09_09h55.14.423	001-EEG_SVR_Officel	2022.2.5	240.2662147553876		9.899999999999977	0_sub-pilot051_SVR_EEG_block1-2.protocol.csv	step37	5933	589.776	STIMULATE	47.2	47.1	47.2	47.1	47.4	37	538.9709999999999
526.57	0	526570	20hz	10004	1	0	1	0	1.0	0.0	1.0	0.0					565.9455543999793	572.1705229999498	572.1705229999498	2.0	['2', 'return']	[2.2347467999206856, 3.0672270000213757]	6.22	5.72	1.0	20hz	low_pain	47.2				sub-051	250	51	47.2	48.8	COM5	COM15	COM3	2024-12-09_09h55.14.423	001-EEG_SVR_Officel	2022.2.5	240.2662147553876		6.217000000000098	0_sub-pilot051_SVR_EEG_block1-2.protocol.csv	step37	5933	589.776	STIMULATE	47.2	47.1	47.2	47.1	47.4	37	538.9709999999999
533.041	0	533041	20/Lo	10001	1	0	1	0	1.0	0.0	1.0	0.0					565.9455543999793	572.1705229999498	572.1705229999498	2.0	['2', 'return']	[2.2347467999206856, 3.0672270000213757]	6.22	5.72	1.0	20hz	low_pain	47.2				sub-051	250	51	47.2	48.8	COM5	COM15	COM3	2024-12-09_09h55.14.423	001-EEG_SVR_Officel	2022.2.5	240.2662147553876		5.721000000000004	0_sub-pilot051_SVR_EEG_block1-2.protocol.csv	step37	5933	589.776	STIMULATE	47.2	47.1	47.2	47.1	47.4	37	538.9709999999999
542.662	0	542662	wait	10005	1	0	1	0	2.0	0.0	2.0	0.0					588.2544866999378	594.7578151999041	594.7578151999041	5.0	['5', 'return']	[1.9433049999643117, 2.5596845999825746]	6.5	6.1	2.0	40hz	high_pain	48.8				sub-051	250	51	47.2	48.8	COM5	COM15	COM3	2024-12-09_09h55.14.423	001-EEG_SVR_Officel	2022.2.5	240.2662147553876		10.370999999999981	0_sub-pilot051_SVR_EEG_block1-2.protocol.csv	step39	6165	612.755	STIMULATE	48.9	48.8	48.8	48.8	48.8	39	561.9499999999999
549.157	0	549157	40hz	10004	1	0	1	0	2.0	0.0	2.0	0.0					588.2544866999378	594.7578151999041	594.7578151999041	5.0	['5', 'return']	[1.9433049999643117, 2.5596845999825746]	6.5	6.1	2.0	40hz	high_pain	48.8				sub-051	250	51	47.2	48.8	COM5	COM15	COM3	2024-12-09_09h55.14.423	001-EEG_SVR_Officel	2022.2.5	240.2662147553876		6.4950000000000045	0_sub-pilot051_SVR_EEG_block1-2.protocol.csv	step39	6165	612.755	STIMULATE	48.9	48.8	48.8	48.8	48.8	39	561.9499999999999
556.011	0	556011	40/Hi	10001	1	0	1	0	2.0	0.0	2.0	0.0					588.2544866999378	594.7578151999041	594.7578151999041	5.0	['5', 'return']	[1.9433049999643117, 2.5596845999825746]	6.5	6.1	2.0	40hz	high_pain	48.8				sub-051	250	51	47.2	48.8	COM5	COM15	COM3	2024-12-09_09h55.14.423	001-EEG_SVR_Officel	2022.2.5	240.2662147553876		6.103999999999928	0_sub-pilot051_SVR_EEG_block1-2.protocol.csv	step39	6165	612.755	STIMULATE	48.9	48.8	48.8	48.8	48.8	39	561.9499999999999
564.745	0	564745	wait	10005	1	0	1	0	3.0	0.0	3.0	0.0					610.3374567999272	617.6125942999497	617.6125942999497	3.0	['3', 'return']	[2.0993409999646246, 2.7962311999872327]	7.27	5.54	3.0	10hz	low_pain	47.2				sub-051	250	51	47.2	48.8	COM5	COM15	COM3	2024-12-09_09h55.14.423	001-EEG_SVR_Officel	2022.2.5	240.2662147553876		9.484000000000037	0_sub-pilot051_SVR_EEG_block1-2.protocol.csv	step41	6391	635.1	STIMULATE	47.2	47.2	47.2	47.2	47.2	41	584.295
572.011	0	572011	10hz	10004	1	0	1	0	3.0	0.0	3.0	0.0					610.3374567999272	617.6125942999497	617.6125942999497	3.0	['3', 'return']	[2.0993409999646246, 2.7962311999872327]	7.27	5.54	3.0	10hz	low_pain	47.2				sub-051	250	51	47.2	48.8	COM5	COM15	COM3	2024-12-09_09h55.14.423	001-EEG_SVR_Officel	2022.2.5	240.2662147553876		7.265999999999963	0_sub-pilot051_SVR_EEG_block1-2.protocol.csv	step41	6391	635.1	STIMULATE	47.2	47.2	47.2	47.2	47.2	41	584.295
578.309	0	578309	10/Lo	10001	1	0	1	0	3.0	0.0	3.0	0.0					610.3374567999272	617.6125942999497	617.6125942999497	3.0	['3', 'return']	[2.0993409999646246, 2.7962311999872327]	7.27	5.54	3.0	10hz	low_pain	47.2				sub-051	250	51	47.2	48.8	COM5	COM15	COM3	2024-12-09_09h55.14.423	001-EEG_SVR_Officel	2022.2.5	240.2662147553876		5.548000000000002	0_sub-pilot051_SVR_EEG_block1-2.protocol.csv	step41	6391	635.1	STIMULATE	47.2	47.2	47.2	47.2	47.2	41	584.295
587.845	0	587845	wait	10005	1	0	1	0	4.0	0.0	4.0	0.0					633.4377385999542	639.7503228998976	639.7503228998976	3.0	['3', 'return']	[2.2604407999897376, 2.988541900063865]	6.3	5.42	0.0	controle	low_pain	47.2				sub-051	250	51	47.2	48.8	COM5	COM15	COM3	2024-12-09_09h55.14.423	001-EEG_SVR_Officel	2022.2.5	240.2662147553876		10.286000000000058	0_sub-pilot051_SVR_EEG_block1-2.protocol.csv	step43	6611	656.989	STIMULATE	47.2	47.1	47.1	47.1	47.4	43	606.184
594.146	0	594146	CNhz	10004	1	0	1	0	4.0	0.0	4.0	0.0					633.4377385999542	639.7503228998976	639.7503228998976	3.0	['3', 'return']	[2.2604407999897376, 2.988541900063865]	6.3	5.42	0.0	controle	low_pain	47.2				sub-051	250	51	47.2	48.8	COM5	COM15	COM3	2024-12-09_09h55.14.423	001-EEG_SVR_Officel	2022.2.5	240.2662147553876		6.300999999999931	0_sub-pilot051_SVR_EEG_block1-2.protocol.csv	step43	6611	656.989	STIMULATE	47.2	47.1	47.1	47.1	47.4	43	606.184
600.316	0	600316	CN/Lo	10001	1	0	1	0	4.0	0.0	4.0	0.0					633.4377385999542	639.7503228998976	639.7503228998976	3.0	['3', 'return']	[2.2604407999897376, 2.988541900063865]	6.3	5.42	0.0	controle	low_pain	47.2				sub-051	250	51	47.2	48.8	COM5	COM15	COM3	2024-12-09_09h55.14.423	001-EEG_SVR_Officel	2022.2.5	240.2662147553876		5.420000000000073	0_sub-pilot051_SVR_EEG_block1-2.protocol.csv	step43	6611	656.989	STIMULATE	47.2	47.1	47.1	47.1	47.4	43	606.184
610.157	0	610157	wait	10005	1	0	1	0	5.0	0.0	5.0	0.0					655.7489815999288	662.1530009999406	662.1530009999406	5.0	['5', 'return']	[2.404563399963081, 3.012871599989012]	6.4	6.01	1.0	controle	high_pain	48.8				sub-051	250	51	47.2	48.8	COM5	COM15	COM3	2024-12-09_09h55.14.423	001-EEG_SVR_Officel	2022.2.5	240.2662147553876		10.591000000000008	0_sub-pilot051_SVR_EEG_block1-2.protocol.csv	step45	6843	679.965	STIMULATE	48.8	48.8	48.8	48.8	48.8	45	629.16
616.553	0	616553	CNhz	10004	1	0	1	0	5.0	0.0	5.0	0.0					655.7489815999288	662.1530009999406	662.1530009999406	5.0	['5', 'return']	[2.404563399963081, 3.012871599989012]	6.4	6.01	1.0	controle	high_pain	48.8				sub-051	250	51	47.2	48.8	COM5	COM15	COM3	2024-12-09_09h55.14.423	001-EEG_SVR_Officel	2022.2.5	240.2662147553876		6.395999999999958	0_sub-pilot051_SVR_EEG_block1-2.protocol.csv	step45	6843	679.965	STIMULATE	48.8	48.8	48.8	48.8	48.8	45	629.16
623.315	0	623315	CN/Hi	10001	1	0	1	0	5.0	0.0	5.0	0.0					655.7489815999288	662.1530009999406	662.1530009999406	5.0	['5', 'return']	[2.404563399963081, 3.012871599989012]	6.4	6.01	1.0	controle	high_pain	48.8				sub-051	250	51	47.2	48.8	COM5	COM15	COM3	2024-12-09_09h55.14.423	001-EEG_SVR_Officel	2022.2.5	240.2662147553876		6.012000000000057	0_sub-pilot051_SVR_EEG_block1-2.protocol.csv	step45	6843	679.965	STIMULATE	48.8	48.8	48.8	48.8	48.8	45	629.16
632.59	0	632590	wait	10005	1	0	1	0	6.0	0.0	6.0	0.0					678.1821607999736	685.4940370999975	685.4940370999975	6.0	['6', 'return']	[2.238131800084375, 2.9182505999924615]	7.31	6.08	2.0	10hz	high_pain	48.8	698.4943565999856			sub-051	250	51	47.2	48.8	COM5	COM15	COM3	2024-12-09_09h55.14.423	001-EEG_SVR_Officel	2022.2.5	240.2662147553876		10.024999999999977	0_sub-pilot051_SVR_EEG_block1-2.protocol.csv	step47	7080	703.489	STIMULATE	48.8	48.8	48.8	48.8	48.8	47	652.684
639.898	0	639898	10hz	10004	1	0	1	0	6.0	0.0	6.0	0.0					678.1821607999736	685.4940370999975	685.4940370999975	6.0	['6', 'return']	[2.238131800084375, 2.9182505999924615]	7.31	6.08	2.0	10hz	high_pain	48.8	698.4943565999856			sub-051	250	51	47.2	48.8	COM5	COM15	COM3	2024-12-09_09h55.14.423	001-EEG_SVR_Officel	2022.2.5	240.2662147553876		7.307999999999993	0_sub-pilot051_SVR_EEG_block1-2.protocol.csv	step47	7080	703.489	STIMULATE	48.8	48.8	48.8	48.8	48.8	47	652.684
646.732	0	646732	10/Hi	10001	1	0	1	0	6.0	0.0	6.0	0.0					678.1821607999736	685.4940370999975	685.4940370999975	6.0	['6', 'return']	[2.238131800084375, 2.9182505999924615]	7.31	6.08	2.0	10hz	high_pain	48.8	698.4943565999856			sub-051	250	51	47.2	48.8	COM5	COM15	COM3	2024-12-09_09h55.14.423	001-EEG_SVR_Officel	2022.2.5	240.2662147553876		6.083999999999946	0_sub-pilot051_SVR_EEG_block1-2.protocol.csv	step47	7080	703.489	STIMULATE	48.8	48.8	48.8	48.8	48.8	47	652.684
655.835	0	655835	wait	10005	1	0	1	0	7.0	0.0	7.0	0.0					701.4277440999867	708.2029552999884	708.2029552999884	6.0	['6', 'return']	[2.4253214999334887, 3.50634279998485]	6.77	6.35	3.0	controle	high_pain	48.8				sub-051	250	51	47.2	48.8	COM5	COM15	COM3	2024-12-09_09h55.14.423	001-EEG_SVR_Officel	2022.2.5	240.2662147553876		9.853000000000065	0_sub-pilot051_SVR_EEG_block1-2.protocol.csv	step49	7312	726.436	STIMULATE	48.8	48.8	48.8	48.8	48.8	49	675.631
662.603	0	662603	CNhz	10004	1	0	1	0	7.0	0.0	7.0	0.0					701.4277440999867	708.2029552999884	708.2029552999884	6.0	['6', 'return']	[2.4253214999334887, 3.50634279998485]	6.77	6.35	3.0	controle	high_pain	48.8				sub-051	250	51	47.2	48.8	COM5	COM15	COM3	2024-12-09_09h55.14.423	001-EEG_SVR_Officel	2022.2.5	240.2662147553876		6.767999999999915	0_sub-pilot051_SVR_EEG_block1-2.protocol.csv	step49	7312	726.436	STIMULATE	48.8	48.8	48.8	48.8	48.8	49	675.631
669.707	0	669707	CN/Hi	10001	1	0	1	0	7.0	0.0	7.0	0.0					701.4277440999867	708.2029552999884	708.2029552999884	6.0	['6', 'return']	[2.4253214999334887, 3.50634279998485]	6.77	6.35	3.0	controle	high_pain	48.8				sub-051	250	51	47.2	48.8	COM5	COM15	COM3	2024-12-09_09h55.14.423	001-EEG_SVR_Officel	2022.2.5	240.2662147553876		6.354000000000042	0_sub-pilot051_SVR_EEG_block1-2.protocol.csv	step49	7312	726.436	STIMULATE	48.8	48.8	48.8	48.8	48.8	49	675.631
679.131	0	679131	wait	10005	1	0	1	0	8.0	0.0	8.0	0.0					724.723368799896	732.5615878999233	732.5615878999233	3.0	['3', 'return']	[2.1952675000065938, 2.96346610004548]	7.83	5.68	0.0	20hz	low_pain	47.2				sub-051	250	51	47.2	48.8	COM5	COM15	COM3	2024-12-09_09h55.14.423	001-EEG_SVR_Officel	2022.2.5	240.2662147553876		10.173999999999978	0_sub-pilot051_SVR_EEG_block1-2.protocol.csv	step51	7551	750.139	STIMULATE	47.3	47.2	47.1	47.2	47.2	51	699.334
686.961	0	686961	20hz	10004	1	0	1	0	8.0	0.0	8.0	0.0					724.723368799896	732.5615878999233	732.5615878999233	3.0	['3', 'return']	[2.1952675000065938, 2.96346610004548]	7.83	5.68	0.0	20hz	low_pain	47.2				sub-051	250	51	47.2	48.8	COM5	COM15	COM3	2024-12-09_09h55.14.423	001-EEG_SVR_Officel	2022.2.5	240.2662147553876		7.830000000000041	0_sub-pilot051_SVR_EEG_block1-2.protocol.csv	step51	7551	750.139	STIMULATE	47.3	47.2	47.1	47.2	47.2	51	699.334
693.393	0	693393	20/Lo	10001	1	0	1	0	8.0	0.0	8.0	0.0					724.723368799896	732.5615878999233	732.5615878999233	3.0	['3', 'return']	[2.1952675000065938, 2.96346610004548]	7.83	5.68	0.0	20hz	low_pain	47.2				sub-051	250	51	47.2	48.8	COM5	COM15	COM3	2024-12-09_09h55.14.423	001-EEG_SVR_Officel	2022.2.5	240.2662147553876		5.682000000000016	0_sub-pilot051_SVR_EEG_block1-2.protocol.csv	step51	7551	750.139	STIMULATE	47.3	47.2	47.1	47.2	47.2	51	699.334
702.947	0	702947	wait	10005	1	0	1	0	9.0	0.0	9.0	0.0					748.5398922999157	753.6808997999178	753.6808997999178	6.0	['6', 'return']	[1.9805947999702767, 2.6274534999392927]	5.14	6.05	1.0	20hz	high_pain	48.8	766.6812356999144			sub-051	250	51	47.2	48.8	COM5	COM15	COM3	2024-12-09_09h55.14.423	001-EEG_SVR_Officel	2022.2.5	240.2662147553876		10.303999999999974	0_sub-pilot051_SVR_EEG_block1-2.protocol.csv	step53	7767	771.61	STIMULATE	48.8	48.8	48.8	48.8	48.8	53	720.805
708.085	0	708085	20hz	10004	1	0	1	0	9.0	0.0	9.0	0.0					748.5398922999157	753.6808997999178	753.6808997999178	6.0	['6', 'return']	[1.9805947999702767, 2.6274534999392927]	5.14	6.05	1.0	20hz	high_pain	48.8	766.6812356999144			sub-051	250	51	47.2	48.8	COM5	COM15	COM3	2024-12-09_09h55.14.423	001-EEG_SVR_Officel	2022.2.5	240.2662147553876		5.138000000000034	0_sub-pilot051_SVR_EEG_block1-2.protocol.csv	step53	7767	771.61	STIMULATE	48.8	48.8	48.8	48.8	48.8	53	720.805
714.889	0	714889	20/Hi	10001	1	0	1	0	9.0	0.0	9.0	0.0					748.5398922999157	753.6808997999178	753.6808997999178	6.0	['6', 'return']	[1.9805947999702767, 2.6274534999392927]	5.14	6.05	1.0	20hz	high_pain	48.8	766.6812356999144			sub-051	250	51	47.2	48.8	COM5	COM15	COM3	2024-12-09_09h55.14.423	001-EEG_SVR_Officel	2022.2.5	240.2662147553876		6.053999999999974	0_sub-pilot051_SVR_EEG_block1-2.protocol.csv	step53	7767	771.61	STIMULATE	48.8	48.8	48.8	48.8	48.8	53	720.805
723.73	0	723730	wait	10005	1	0	1	0	10.0	0.0	10.0	0.0					769.3228910999605	776.7486091000028	776.7486091000028	6.0	['6', 'return']	[2.3321733000921085, 3.469066300080158]	7.42	5.31	2.0	controle	high_pain	48.8				sub-051	250	51	47.2	48.8	COM5	COM15	COM3	2024-12-09_09h55.14.423	001-EEG_SVR_Officel	2022.2.5	240.2662147553876		9.591000000000008	0_sub-pilot051_SVR_EEG_block1-2.protocol.csv	step55	7990	794.0	STIMULATE	48.8	48.8	48.8	48.8	48.8	55	743.1949999999999
731.148	0	731148	CNhz	10004	1	0	1	0	10.0	0.0	10.0	0.0					769.3228910999605	776.7486091000028	776.7486091000028	6.0	['6', 'return']	[2.3321733000921085, 3.469066300080158]	7.42	5.31	2.0	controle	high_pain	48.8				sub-051	250	51	47.2	48.8	COM5	COM15	COM3	2024-12-09_09h55.14.423	001-EEG_SVR_Officel	2022.2.5	240.2662147553876		7.418000000000006	0_sub-pilot051_SVR_EEG_block1-2.protocol.csv	step55	7990	794.0	STIMULATE	48.8	48.8	48.8	48.8	48.8	55	743.1949999999999
737.21	0	737210	CN/Hi	10001	1	0	1	0	10.0	0.0	10.0	0.0					769.3228910999605	776.7486091000028	776.7486091000028	6.0	['6', 'return']	[2.3321733000921085, 3.469066300080158]	7.42	5.31	2.0	controle	high_pain	48.8				sub-051	250	51	47.2	48.8	COM5	COM15	COM3	2024-12-09_09h55.14.423	001-EEG_SVR_Officel	2022.2.5	240.2662147553876		5.312000000000012	0_sub-pilot051_SVR_EEG_block1-2.protocol.csv	step55	7990	794.0	STIMULATE	48.8	48.8	48.8	48.8	48.8	55	743.1949999999999
747.643	0	747643	wait	10005	1	0	1	0	11.0	0.0	11.0	0.0					793.235386999906	800.1685262999963	800.1685262999963	6.0	['6', 'return']	[2.956495900056325, 3.700462600099854]	6.93	5.27	3.0	20hz	high_pain	48.8				sub-051	250	51	47.2	48.8	COM5	COM15	COM3	2024-12-09_09h55.14.423	001-EEG_SVR_Officel	2022.2.5	240.2662147553876		11.182999999999993	0_sub-pilot051_SVR_EEG_block1-2.protocol.csv	step57	8218	817.311	STIMULATE	48.8	48.8	48.8	48.8	48.8	57	766.506
754.568	0	754568	20hz	10004	1	0	1	0	11.0	0.0	11.0	0.0					793.235386999906	800.1685262999963	800.1685262999963	6.0	['6', 'return']	[2.956495900056325, 3.700462600099854]	6.93	5.27	3.0	20hz	high_pain	48.8				sub-051	250	51	47.2	48.8	COM5	COM15	COM3	2024-12-09_09h55.14.423	001-EEG_SVR_Officel	2022.2.5	240.2662147553876		6.9249999999999545	0_sub-pilot051_SVR_EEG_block1-2.protocol.csv	step57	8218	817.311	STIMULATE	48.8	48.8	48.8	48.8	48.8	57	766.506
760.589	0	760589	20/Hi	10001	1	0	1	0	11.0	0.0	11.0	0.0					793.235386999906	800.1685262999963	800.1685262999963	6.0	['6', 'return']	[2.956495900056325, 3.700462600099854]	6.93	5.27	3.0	20hz	high_pain	48.8				sub-051	250	51	47.2	48.8	COM5	COM15	COM3	2024-12-09_09h55.14.423	001-EEG_SVR_Officel	2022.2.5	240.2662147553876		5.271000000000072	0_sub-pilot051_SVR_EEG_block1-2.protocol.csv	step57	8218	817.311	STIMULATE	48.8	48.8	48.8	48.8	48.8	57	766.506
771.288	0	771288	wait	10005	1	0	1	0	12.0	0.0	12.0	0.0					816.8803862999193	824.3849825999932	824.3849825999932	4.0	['4', 'return']	[2.46080209990032, 3.117290199967101]	7.5	5.92	0.0	40hz	low_pain	47.2				sub-051	250	51	47.2	48.8	COM5	COM15	COM3	2024-12-09_09h55.14.423	001-EEG_SVR_Officel	2022.2.5	240.2662147553876		11.448999999999955	0_sub-pilot051_SVR_EEG_block1-2.protocol.csv	step59	8458	842.17	STIMULATE	47.2	47.1	47.1	47.2	47.3	59	791.3649999999999
778.784	0	778784	40hz	10004	1	0	1	0	12.0	0.0	12.0	0.0					816.8803862999193	824.3849825999932	824.3849825999932	4.0	['4', 'return']	[2.46080209990032, 3.117290199967101]	7.5	5.92	0.0	40hz	low_pain	47.2				sub-051	250	51	47.2	48.8	COM5	COM15	COM3	2024-12-09_09h55.14.423	001-EEG_SVR_Officel	2022.2.5	240.2662147553876		7.495999999999981	0_sub-pilot051_SVR_EEG_block1-2.protocol.csv	step59	8458	842.17	STIMULATE	47.2	47.1	47.1	47.2	47.3	59	791.3649999999999
785.455	0	785455	40/Lo	10001	1	0	1	0	12.0	0.0	12.0	0.0					816.8803862999193	824.3849825999932	824.3849825999932	4.0	['4', 'return']	[2.46080209990032, 3.117290199967101]	7.5	5.92	0.0	40hz	low_pain	47.2				sub-051	250	51	47.2	48.8	COM5	COM15	COM3	2024-12-09_09h55.14.423	001-EEG_SVR_Officel	2022.2.5	240.2662147553876		5.921000000000049	0_sub-pilot051_SVR_EEG_block1-2.protocol.csv	step59	8458	842.17	STIMULATE	47.2	47.1	47.1	47.2	47.3	59	791.3649999999999
794.926	0	794926	wait	10005	1	0	1	0	13.0	0.0	13.0	0.0					840.5182172999484	847.8641067999415	847.8641067999415	4.0	['4', 'return']	[2.085513199912384, 2.8142904000123963]	7.34	6.01	1.0	controle	low_pain	47.2				sub-051	250	51	47.2	48.8	COM5	COM15	COM3	2024-12-09_09h55.14.423	001-EEG_SVR_Officel	2022.2.5	240.2662147553876		10.221000000000004	0_sub-pilot051_SVR_EEG_block1-2.protocol.csv	step61	8684	865.707	STIMULATE	47.2	47.1	47.2	47.2	47.2	61	814.9019999999999
802.264	0	802264	CNhz	10004	1	0	1	0	13.0	0.0	13.0	0.0					840.5182172999484	847.8641067999415	847.8641067999415	4.0	['4', 'return']	[2.085513199912384, 2.8142904000123963]	7.34	6.01	1.0	controle	low_pain	47.2				sub-051	250	51	47.2	48.8	COM5	COM15	COM3	2024-12-09_09h55.14.423	001-EEG_SVR_Officel	2022.2.5	240.2662147553876		7.337999999999965	0_sub-pilot051_SVR_EEG_block1-2.protocol.csv	step61	8684	865.707	STIMULATE	47.2	47.1	47.2	47.2	47.2	61	814.9019999999999
809.026	0	809026	CN/Lo	10001	1	0	1	0	13.0	0.0	13.0	0.0					840.5182172999484	847.8641067999415	847.8641067999415	4.0	['4', 'return']	[2.085513199912384, 2.8142904000123963]	7.34	6.01	1.0	controle	low_pain	47.2				sub-051	250	51	47.2	48.8	COM5	COM15	COM3	2024-12-09_09h55.14.423	001-EEG_SVR_Officel	2022.2.5	240.2662147553876		6.011999999999944	0_sub-pilot051_SVR_EEG_block1-2.protocol.csv	step61	8684	865.707	STIMULATE	47.2	47.1	47.2	47.2	47.2	61	814.9019999999999
818.101	0	818101	wait	10005	1	0	1	0	14.0	0.0	14.0	0.0					863.6932211999083	869.7764105999377	869.7764105999377	6.0	['6', 'return']	[2.2788135999580845, 2.9758513000560924]	6.08	6.48	2.0	20hz	high_pain	48.8				sub-051	250	51	47.2	48.8	COM5	COM15	COM3	2024-12-09_09h55.14.423	001-EEG_SVR_Officel	2022.2.5	240.2662147553876		9.825000000000045	0_sub-pilot051_SVR_EEG_block1-2.protocol.csv	step63	8897	888.13	STIMULATE	48.8	48.8	48.8	48.8	48.8	63	837.3249999999999
824.176	0	824176	20hz	10004	1	0	1	0	14.0	0.0	14.0	0.0					863.6932211999083	869.7764105999377	869.7764105999377	6.0	['6', 'return']	[2.2788135999580845, 2.9758513000560924]	6.08	6.48	2.0	20hz	high_pain	48.8				sub-051	250	51	47.2	48.8	COM5	COM15	COM3	2024-12-09_09h55.14.423	001-EEG_SVR_Officel	2022.2.5	240.2662147553876		6.0750000000000455	0_sub-pilot051_SVR_EEG_block1-2.protocol.csv	step63	8897	888.13	STIMULATE	48.8	48.8	48.8	48.8	48.8	63	837.3249999999999
831.409	0	831409	20/Hi	10001	1	0	1	0	14.0	0.0	14.0	0.0					863.6932211999083	869.7764105999377	869.7764105999377	6.0	['6', 'return']	[2.2788135999580845, 2.9758513000560924]	6.08	6.48	2.0	20hz	high_pain	48.8				sub-051	250	51	47.2	48.8	COM5	COM15	COM3	2024-12-09_09h55.14.423	001-EEG_SVR_Officel	2022.2.5	240.2662147553876		6.482999999999947	0_sub-pilot051_SVR_EEG_block1-2.protocol.csv	step63	8897	888.13	STIMULATE	48.8	48.8	48.8	48.8	48.8	63	837.3249999999999
840.189	0	840189	wait	10005	1	0	1	0	15.0	0.0	15.0	0.0					885.7816256999504	891.705803199904	891.705803199904	3.0	['3', 'return']	[2.4359785999404266, 3.1410438999300823]	5.92	6.49	3.0	40hz	low_pain	47.2				sub-051	250	51	47.2	48.8	COM5	COM15	COM3	2024-12-09_09h55.14.423	001-EEG_SVR_Officel	2022.2.5	240.2662147553876		9.529999999999973	0_sub-pilot051_SVR_EEG_block1-2.protocol.csv	step65	9103	910.114	STIMULATE	47.2	47.2	47.1	47.2	47.2	65	859.309
846.105	0	846105	40hz	10004	1	0	1	0	15.0	0.0	15.0	0.0					885.7816256999504	891.705803199904	891.705803199904	3.0	['3', 'return']	[2.4359785999404266, 3.1410438999300823]	5.92	6.49	3.0	40hz	low_pain	47.2				sub-051	250	51	47.2	48.8	COM5	COM15	COM3	2024-12-09_09h55.14.423	001-EEG_SVR_Officel	2022.2.5	240.2662147553876		5.916000000000054	0_sub-pilot051_SVR_EEG_block1-2.protocol.csv	step65	9103	910.114	STIMULATE	47.2	47.2	47.1	47.2	47.2	65	859.309
853.346	0	853346	40/Lo	10001	1	0	1	0	15.0	0.0	15.0	0.0					885.7816256999504	891.705803199904	891.705803199904	3.0	['3', 'return']	[2.4359785999404266, 3.1410438999300823]	5.92	6.49	3.0	40hz	low_pain	47.2				sub-051	250	51	47.2	48.8	COM5	COM15	COM3	2024-12-09_09h55.14.423	001-EEG_SVR_Officel	2022.2.5	240.2662147553876		6.4909999999999854	0_sub-pilot051_SVR_EEG_block1-2.protocol.csv	step65	9103	910.114	STIMULATE	47.2	47.2	47.1	47.2	47.2	65	859.309
909.427	0	909427	wait	10005	2	0	2	0	0.0	0.0	0.0	0.0			p	0.7932004999602214	1023.0957896999316	1028.4626739999512	1028.4626739999512	5.0	['5', 'return']	[1.9429254999849945, 2.5822929000714794]	5.36	5.54	0.0	controle	high_pain	48.8				sub-051	250	51	47.2	48.8	COM5	COM15	COM3	2024-12-09_09h55.14.423	001-EEG_SVR_Officel	2022.2.5	240.2662147553876		56.83100000000002	1_sub-pilot051_SVR_EEG_block3-4.protocol.csv	step3	1211	120.908	STIMULATE	48.8	48.8	48.8	48.8	48.8	3	926.845
914.786	0	914786	CNhz	10004	2	0	2	0	0.0	0.0	0.0	0.0			p	0.7932004999602214	1023.0957896999316	1028.4626739999512	1028.4626739999512	5.0	['5', 'return']	[1.9429254999849945, 2.5822929000714794]	5.36	5.54	0.0	controle	high_pain	48.8				sub-051	250	51	47.2	48.8	COM5	COM15	COM3	2024-12-09_09h55.14.423	001-EEG_SVR_Officel	2022.2.5	240.2662147553876		5.358999999999924	1_sub-pilot051_SVR_EEG_block3-4.protocol.csv	step3	1211	120.908	STIMULATE	48.8	48.8	48.8	48.8	48.8	3	926.845
921.077	0	921077	CN/Hi	10001	2	0	2	0	0.0	0.0	0.0	0.0			p	0.7932004999602214	1023.0957896999316	1028.4626739999512	1028.4626739999512	5.0	['5', 'return']	[1.9429254999849945, 2.5822929000714794]	5.36	5.54	0.0	controle	high_pain	48.8				sub-051	250	51	47.2	48.8	COM5	COM15	COM3	2024-12-09_09h55.14.423	001-EEG_SVR_Officel	2022.2.5	240.2662147553876		5.541000000000054	1_sub-pilot051_SVR_EEG_block3-4.protocol.csv	step3	1211	120.908	STIMULATE	48.8	48.8	48.8	48.8	48.8	3	926.845
930.389	0	930389	wait	10005	2	0	2	0	1.0	0.0	1.0	0.0					1044.0580892999424	1049.3367655999027	1049.3367655999027	4.0	['4', 'return']	[1.3562179999426007, 2.3394894000375643]	5.28	5.57	1.0	40hz	high_pain	48.8				sub-051	250	51	47.2	48.8	COM5	COM15	COM3	2024-12-09_09h55.14.423	001-EEG_SVR_Officel	2022.2.5	240.2662147553876		10.062000000000012	1_sub-pilot051_SVR_EEG_block3-4.protocol.csv	step5	1423	141.962	STIMULATE	49.0	48.8	48.8	48.8	48.8	5	947.899
935.664	0	935664	40hz	10004	2	0	2	0	1.0	0.0	1.0	0.0					1044.0580892999424	1049.3367655999027	1049.3367655999027	4.0	['4', 'return']	[1.3562179999426007, 2.3394894000375643]	5.28	5.57	1.0	40hz	high_pain	48.8				sub-051	250	51	47.2	48.8	COM5	COM15	COM3	2024-12-09_09h55.14.423	001-EEG_SVR_Officel	2022.2.5	240.2662147553876		5.274999999999977	1_sub-pilot051_SVR_EEG_block3-4.protocol.csv	step5	1423	141.962	STIMULATE	49.0	48.8	48.8	48.8	48.8	5	947.899
941.985	0	941985	40/Hi	10001	2	0	2	0	1.0	0.0	1.0	0.0					1044.0580892999424	1049.3367655999027	1049.3367655999027	4.0	['4', 'return']	[1.3562179999426007, 2.3394894000375643]	5.28	5.57	1.0	40hz	high_pain	48.8				sub-051	250	51	47.2	48.8	COM5	COM15	COM3	2024-12-09_09h55.14.423	001-EEG_SVR_Officel	2022.2.5	240.2662147553876		5.571000000000026	1_sub-pilot051_SVR_EEG_block3-4.protocol.csv	step5	1423	141.962	STIMULATE	49.0	48.8	48.8	48.8	48.8	5	947.899
951.022	0	951022	wait	10005	2	0	2	0	2.0	0.0	2.0	0.0					1064.6912360999268	1070.7288690999849	1070.7288690999849	4.5	['4', 'a', '5', 'return']	[2.525875100051053, 2.8283706000074744, 3.117627799976617, 3.9167218999937177]	6.03	5.67	2.0	40hz	high_pain	48.8				sub-051	250	51	47.2	48.8	COM5	COM15	COM3	2024-12-09_09h55.14.423	001-EEG_SVR_Officel	2022.2.5	240.2662147553876		9.787000000000035	1_sub-pilot051_SVR_EEG_block3-4.protocol.csv	step7	1640	163.46	STIMULATE	48.9	48.8	48.8	48.8	48.8	7	969.397
957.052	0	957052	40hz	10004	2	0	2	0	2.0	0.0	2.0	0.0					1064.6912360999268	1070.7288690999849	1070.7288690999849	4.5	['4', 'a', '5', 'return']	[2.525875100051053, 2.8283706000074744, 3.117627799976617, 3.9167218999937177]	6.03	5.67	2.0	40hz	high_pain	48.8				sub-051	250	51	47.2	48.8	COM5	COM15	COM3	2024-12-09_09h55.14.423	001-EEG_SVR_Officel	2022.2.5	240.2662147553876		6.029999999999973	1_sub-pilot051_SVR_EEG_block3-4.protocol.csv	step7	1640	163.46	STIMULATE	48.9	48.8	48.8	48.8	48.8	7	969.397
963.476	0	963476	40/Hi	10001	2	0	2	0	2.0	0.0	2.0	0.0					1064.6912360999268	1070.7288690999849	1070.7288690999849	4.5	['4', 'a', '5', 'return']	[2.525875100051053, 2.8283706000074744, 3.117627799976617, 3.9167218999937177]	6.03	5.67	2.0	40hz	high_pain	48.8				sub-051	250	51	47.2	48.8	COM5	COM15	COM3	2024-12-09_09h55.14.423	001-EEG_SVR_Officel	2022.2.5	240.2662147553876		5.673999999999978	1_sub-pilot051_SVR_EEG_block3-4.protocol.csv	step7	1640	163.46	STIMULATE	48.9	48.8	48.8	48.8	48.8	7	969.397
973.993	0	973993	wait	10005	2	0	2	0	3.0	0.0	3.0	0.0					1087.6619285999332	1094.557968899957	1094.557968899957	2.5	['2', 'a', '5', 'return']	[2.567220199969597, 2.9434071999276057, 3.1998711999040097, 4.454763399902731]	6.89	6.28	3.0	controle	low_pain	47.2				sub-051	250	51	47.2	48.8	COM5	COM15	COM3	2024-12-09_09h55.14.423	001-EEG_SVR_Officel	2022.2.5	240.2662147553876		11.267000000000053	1_sub-pilot051_SVR_EEG_block3-4.protocol.csv	step9	1886	187.806	STIMULATE	47.2	47.1	47.2	47.2	47.2	9	993.743
980.881	0	980881	CNhz	10004	2	0	2	0	3.0	0.0	3.0	0.0					1087.6619285999332	1094.557968899957	1094.557968899957	2.5	['2', 'a', '5', 'return']	[2.567220199969597, 2.9434071999276057, 3.1998711999040097, 4.454763399902731]	6.89	6.28	3.0	controle	low_pain	47.2				sub-051	250	51	47.2	48.8	COM5	COM15	COM3	2024-12-09_09h55.14.423	001-EEG_SVR_Officel	2022.2.5	240.2662147553876		6.88799999999992	1_sub-pilot051_SVR_EEG_block3-4.protocol.csv	step9	1886	187.806	STIMULATE	47.2	47.1	47.2	47.2	47.2	9	993.743
987.913	0	987913	CN/Lo	10001	2	0	2	0	3.0	0.0	3.0	0.0					1087.6619285999332	1094.557968899957	1094.557968899957	2.5	['2', 'a', '5', 'return']	[2.567220199969597, 2.9434071999276057, 3.1998711999040097, 4.454763399902731]	6.89	6.28	3.0	controle	low_pain	47.2				sub-051	250	51	47.2	48.8	COM5	COM15	COM3	2024-12-09_09h55.14.423	001-EEG_SVR_Officel	2022.2.5	240.2662147553876		6.282000000000039	1_sub-pilot051_SVR_EEG_block3-4.protocol.csv	step9	1886	187.806	STIMULATE	47.2	47.1	47.2	47.2	47.2	9	993.743
998.36	0	998360	wait	10005	2	0	2	0	4.0	0.0	4.0	0.0					1112.0290950998897	1118.049863299937	1118.049863299937	5.5	['5', 'a', '5', 'return']	[1.5474665999645367, 1.7720218999311328, 1.964134700014256, 2.6372960000298917]	6.01	5.66	0.0	40hz	high_pain	48.8				sub-051	250	51	47.2	48.8	COM5	COM15	COM3	2024-12-09_09h55.14.423	001-EEG_SVR_Officel	2022.2.5	240.2662147553876		11.197000000000003	1_sub-pilot051_SVR_EEG_block3-4.protocol.csv	step11	2117	210.746	STIMULATE	48.8	48.8	48.8	48.8	49.0	11	1016.683
1004.373	0	1004373	40hz	10004	2	0	2	0	4.0	0.0	4.0	0.0					1112.0290950998897	1118.049863299937	1118.049863299937	5.5	['5', 'a', '5', 'return']	[1.5474665999645367, 1.7720218999311328, 1.964134700014256, 2.6372960000298917]	6.01	5.66	0.0	40hz	high_pain	48.8				sub-051	250	51	47.2	48.8	COM5	COM15	COM3	2024-12-09_09h55.14.423	001-EEG_SVR_Officel	2022.2.5	240.2662147553876		6.013000000000034	1_sub-pilot051_SVR_EEG_block3-4.protocol.csv	step11	2117	210.746	STIMULATE	48.8	48.8	48.8	48.8	49.0	11	1016.683
1010.786	0	1010786	40/Hi	10001	2	0	2	0	4.0	0.0	4.0	0.0					1112.0290950998897	1118.049863299937	1118.049863299937	5.5	['5', 'a', '5', 'return']	[1.5474665999645367, 1.7720218999311328, 1.964134700014256, 2.6372960000298917]	6.01	5.66	0.0	40hz	high_pain	48.8				sub-051	250	51	47.2	48.8	COM5	COM15	COM3	2024-12-09_09h55.14.423	001-EEG_SVR_Officel	2022.2.5	240.2662147553876		5.662999999999897	1_sub-pilot051_SVR_EEG_block3-4.protocol.csv	step11	2117	210.746	STIMULATE	48.8	48.8	48.8	48.8	49.0	11	1016.683
1020.034	0	1020034	wait	10005	2	0	2	0	5.0	0.0	5.0	0.0					1133.7032986999257	1140.249663900002	1140.249663900002	2.0	['2', 'return']	[3.4613271000562236, 4.8054923000745475]	6.54	5.27	1.0	controle	low_pain	47.2				sub-051	250	51	47.2	48.8	COM5	COM15	COM3	2024-12-09_09h55.14.423	001-EEG_SVR_Officel	2022.2.5	240.2662147553876		9.998000000000047	1_sub-pilot051_SVR_EEG_block3-4.protocol.csv	step13	2336	232.418	STIMULATE	47.2	47.2	47.2	47.2	47.2	13	1038.355
1026.572	0	1026571	CNhz	10004	2	0	2	0	5.0	0.0	5.0	0.0					1133.7032986999257	1140.249663900002	1140.249663900002	2.0	['2', 'return']	[3.4613271000562236, 4.8054923000745475]	6.54	5.27	1.0	controle	low_pain	47.2				sub-051	250	51	47.2	48.8	COM5	COM15	COM3	2024-12-09_09h55.14.423	001-EEG_SVR_Officel	2022.2.5	240.2662147553876		6.537999999999897	1_sub-pilot051_SVR_EEG_block3-4.protocol.csv	step13	2336	232.418	STIMULATE	47.2	47.2	47.2	47.2	47.2	13	1038.355
1032.592	0	1032592	CN/Lo	10001	2	0	2	0	5.0	0.0	5.0	0.0					1133.7032986999257	1140.249663900002	1140.249663900002	2.0	['2', 'return']	[3.4613271000562236, 4.8054923000745475]	6.54	5.27	1.0	controle	low_pain	47.2				sub-051	250	51	47.2	48.8	COM5	COM15	COM3	2024-12-09_09h55.14.423	001-EEG_SVR_Officel	2022.2.5	240.2662147553876		5.270000000000209	1_sub-pilot051_SVR_EEG_block3-4.protocol.csv	step13	2336	232.418	STIMULATE	47.2	47.2	47.2	47.2	47.2	13	1038.355
1044.4	0	1044400	wait	10005	2	0	2	0	6.0	0.0	6.0	0.0					1158.06960529997	1166.0653375999536	1166.0653375999536	6.0	['6', 'return']	[2.4121557000325993, 3.16414160002023]	7.99	6.42	2.0	controle	high_pain	48.8				sub-051	250	51	47.2	48.8	COM5	COM15	COM3	2024-12-09_09h55.14.423	001-EEG_SVR_Officel	2022.2.5	240.2662147553876		12.557999999999993	1_sub-pilot051_SVR_EEG_block3-4.protocol.csv	step15	2609	259.532	STIMULATE	48.8	48.8	48.8	48.8	48.8	15	1065.469
1052.388	0	1052388	CNhz	10004	2	0	2	0	6.0	0.0	6.0	0.0					1158.06960529997	1166.0653375999536	1166.0653375999536	6.0	['6', 'return']	[2.4121557000325993, 3.16414160002023]	7.99	6.42	2.0	controle	high_pain	48.8				sub-051	250	51	47.2	48.8	COM5	COM15	COM3	2024-12-09_09h55.14.423	001-EEG_SVR_Officel	2022.2.5	240.2662147553876		7.987999999999829	1_sub-pilot051_SVR_EEG_block3-4.protocol.csv	step15	2609	259.532	STIMULATE	48.8	48.8	48.8	48.8	48.8	15	1065.469
1059.559	0	1059559	CN/Hi	10001	2	0	2	0	6.0	0.0	6.0	0.0					1158.06960529997	1166.0653375999536	1166.0653375999536	6.0	['6', 'return']	[2.4121557000325993, 3.16414160002023]	7.99	6.42	2.0	controle	high_pain	48.8				sub-051	250	51	47.2	48.8	COM5	COM15	COM3	2024-12-09_09h55.14.423	001-EEG_SVR_Officel	2022.2.5	240.2662147553876		6.421000000000049	1_sub-pilot051_SVR_EEG_block3-4.protocol.csv	step15	2609	259.532	STIMULATE	48.8	48.8	48.8	48.8	48.8	15	1065.469
1068.575	0	1068575	wait	10005	2	0	2	0	7.0	0.0	7.0	0.0					1182.244384999969	1189.8776680999435	1189.8776680999435	3.5	['3', 'a', '5', 'return']	[2.1704630000749603, 2.4191128000384197, 2.6271916000405326, 3.3551050000824034]	7.63	5.86	3.0	10hz	low_pain	47.2				sub-051	250	51	47.2	48.8	COM5	COM15	COM3	2024-12-09_09h55.14.423	001-EEG_SVR_Officel	2022.2.5	240.2662147553876		9.766000000000076	1_sub-pilot051_SVR_EEG_block3-4.protocol.csv	step17	2843	282.753	STIMULATE	47.1	47.1	47.2	47.2	47.2	17	1088.69
1076.2	0	1076200	10hz	10004	2	0	2	0	7.0	0.0	7.0	0.0					1182.244384999969	1189.8776680999435	1189.8776680999435	3.5	['3', 'a', '5', 'return']	[2.1704630000749603, 2.4191128000384197, 2.6271916000405326, 3.3551050000824034]	7.63	5.86	3.0	10hz	low_pain	47.2				sub-051	250	51	47.2	48.8	COM5	COM15	COM3	2024-12-09_09h55.14.423	001-EEG_SVR_Officel	2022.2.5	240.2662147553876		7.625	1_sub-pilot051_SVR_EEG_block3-4.protocol.csv	step17	2843	282.753	STIMULATE	47.1	47.1	47.2	47.2	47.2	17	1088.69
1082.813	0	1082813	10/Lo	10001	2	0	2	0	7.0	0.0	7.0	0.0					1182.244384999969	1189.8776680999435	1189.8776680999435	3.5	['3', 'a', '5', 'return']	[2.1704630000749603, 2.4191128000384197, 2.6271916000405326, 3.3551050000824034]	7.63	5.86	3.0	10hz	low_pain	47.2				sub-051	250	51	47.2	48.8	COM5	COM15	COM3	2024-12-09_09h55.14.423	001-EEG_SVR_Officel	2022.2.5	240.2662147553876		5.863000000000056	1_sub-pilot051_SVR_EEG_block3-4.protocol.csv	step17	2843	282.753	STIMULATE	47.1	47.1	47.2	47.2	47.2	17	1088.69
1092.575	0	1092575	wait	10005	2	0	2	0	8.0	0.0	8.0	0.0					1206.2441987999482	1212.3400145999622	1212.3400145999622	5.0	['5', 'return']	[2.592940600006841, 3.201211199979298]	6.09	6.24	0.0	20hz	high_pain	48.8				sub-051	250	51	47.2	48.8	COM5	COM15	COM3	2024-12-09_09h55.14.423	001-EEG_SVR_Officel	2022.2.5	240.2662147553876		10.511999999999944	1_sub-pilot051_SVR_EEG_block3-4.protocol.csv	step19	3074	305.671	STIMULATE	48.8	48.7	48.8	48.8	49.0	19	1111.608
1098.663	0	1098663	20hz	10004	2	0	2	0	8.0	0.0	8.0	0.0					1206.2441987999482	1212.3400145999622	1212.3400145999622	5.0	['5', 'return']	[2.592940600006841, 3.201211199979298]	6.09	6.24	0.0	20hz	high_pain	48.8				sub-051	250	51	47.2	48.8	COM5	COM15	COM3	2024-12-09_09h55.14.423	001-EEG_SVR_Officel	2022.2.5	240.2662147553876		6.087999999999965	1_sub-pilot051_SVR_EEG_block3-4.protocol.csv	step19	3074	305.671	STIMULATE	48.8	48.7	48.8	48.8	49.0	19	1111.608
1105.654	0	1105654	20/Hi	10001	2	0	2	0	8.0	0.0	8.0	0.0					1206.2441987999482	1212.3400145999622	1212.3400145999622	5.0	['5', 'return']	[2.592940600006841, 3.201211199979298]	6.09	6.24	0.0	20hz	high_pain	48.8				sub-051	250	51	47.2	48.8	COM5	COM15	COM3	2024-12-09_09h55.14.423	001-EEG_SVR_Officel	2022.2.5	240.2662147553876		6.2409999999999854	1_sub-pilot051_SVR_EEG_block3-4.protocol.csv	step19	3074	305.671	STIMULATE	48.8	48.7	48.8	48.8	49.0	19	1111.608
1114.887	0	1114887	wait	10005	2	0	2	0	9.0	0.0	9.0	0.0					1228.5567300999537	1235.581581999897	1235.581581999897	2.0	['2', 'return']	[2.103347899974324, 2.8397590999957174]	7.02	6.09	1.0	40hz	low_pain	47.2				sub-051	250	51	47.2	48.8	COM5	COM15	COM3	2024-12-09_09h55.14.423	001-EEG_SVR_Officel	2022.2.5	240.2662147553876		9.982999999999947	1_sub-pilot051_SVR_EEG_block3-4.protocol.csv	step21	3306	328.621	STIMULATE	47.2	47.1	47.2	47.2	47.3	21	1134.558
1121.904	0	1121904	40hz	10004	2	0	2	0	9.0	0.0	9.0	0.0					1228.5567300999537	1235.581581999897	1235.581581999897	2.0	['2', 'return']	[2.103347899974324, 2.8397590999957174]	7.02	6.09	1.0	40hz	low_pain	47.2				sub-051	250	51	47.2	48.8	COM5	COM15	COM3	2024-12-09_09h55.14.423	001-EEG_SVR_Officel	2022.2.5	240.2662147553876		7.017000000000053	1_sub-pilot051_SVR_EEG_block3-4.protocol.csv	step21	3306	328.621	STIMULATE	47.2	47.1	47.2	47.2	47.3	21	1134.558
1128.746	0	1128746	40/Lo	10001	2	0	2	0	9.0	0.0	9.0	0.0					1228.5567300999537	1235.581581999897	1235.581581999897	2.0	['2', 'return']	[2.103347899974324, 2.8397590999957174]	7.02	6.09	1.0	40hz	low_pain	47.2				sub-051	250	51	47.2	48.8	COM5	COM15	COM3	2024-12-09_09h55.14.423	001-EEG_SVR_Officel	2022.2.5	240.2662147553876		6.092000000000098	1_sub-pilot051_SVR_EEG_block3-4.protocol.csv	step21	3306	328.621	STIMULATE	47.2	47.1	47.2	47.2	47.3	21	1134.558
1137.766	0	1137766	wait	10005	2	0	2	0	10.0	0.0	10.0	0.0					1251.4355947999284	1257.8193757999688	1257.8193757999688	3.0	['3', 'return']	[2.4342082000803202, 3.1239347000373527]	6.38	5.29	2.0	controle	low_pain	47.2				sub-051	250	51	47.2	48.8	COM5	COM15	COM3	2024-12-09_09h55.14.423	001-EEG_SVR_Officel	2022.2.5	240.2662147553876		9.769999999999982	1_sub-pilot051_SVR_EEG_block3-4.protocol.csv	step23	3523	350.199	STIMULATE	47.2	47.2	47.2	47.2	47.2	23	1156.136
1144.142	0	1144142	CNhz	10004	2	0	2	0	10.0	0.0	10.0	0.0					1251.4355947999284	1257.8193757999688	1257.8193757999688	3.0	['3', 'return']	[2.4342082000803202, 3.1239347000373527]	6.38	5.29	2.0	controle	low_pain	47.2				sub-051	250	51	47.2	48.8	COM5	COM15	COM3	2024-12-09_09h55.14.423	001-EEG_SVR_Officel	2022.2.5	240.2662147553876		6.375999999999976	1_sub-pilot051_SVR_EEG_block3-4.protocol.csv	step23	3523	350.199	STIMULATE	47.2	47.2	47.2	47.2	47.2	23	1156.136
1150.183	0	1150183	CN/Lo	10001	2	0	2	0	10.0	0.0	10.0	0.0					1251.4355947999284	1257.8193757999688	1257.8193757999688	3.0	['3', 'return']	[2.4342082000803202, 3.1239347000373527]	6.38	5.29	2.0	controle	low_pain	47.2				sub-051	250	51	47.2	48.8	COM5	COM15	COM3	2024-12-09_09h55.14.423	001-EEG_SVR_Officel	2022.2.5	240.2662147553876		5.29099999999994	1_sub-pilot051_SVR_EEG_block3-4.protocol.csv	step23	3523	350.199	STIMULATE	47.2	47.2	47.2	47.2	47.2	23	1156.136
1160.287	0	1160287	wait	10005	2	0	2	0	11.0	0.0	11.0	0.0					1273.9560961999232	1279.8102248999055	1279.8102248999055	6.0	['6', 'return']	[2.3549501999514177, 3.027299299952574]	5.85	5.27	3.0	40hz	high_pain	48.8				sub-051	250	51	47.2	48.8	COM5	COM15	COM3	2024-12-09_09h55.14.423	001-EEG_SVR_Officel	2022.2.5	240.2662147553876		10.854000000000042	1_sub-pilot051_SVR_EEG_block3-4.protocol.csv	step25	3745	372.181	STIMULATE	48.8	48.8	48.8	48.8	48.8	25	1178.118
1166.133	0	1166133	40hz	10004	2	0	2	0	11.0	0.0	11.0	0.0					1273.9560961999232	1279.8102248999055	1279.8102248999055	6.0	['6', 'return']	[2.3549501999514177, 3.027299299952574]	5.85	5.27	3.0	40hz	high_pain	48.8				sub-051	250	51	47.2	48.8	COM5	COM15	COM3	2024-12-09_09h55.14.423	001-EEG_SVR_Officel	2022.2.5	240.2662147553876		5.846000000000004	1_sub-pilot051_SVR_EEG_block3-4.protocol.csv	step25	3745	372.181	STIMULATE	48.8	48.8	48.8	48.8	48.8	25	1178.118
1172.153	0	1172153	40/Hi	10001	2	0	2	0	11.0	0.0	11.0	0.0					1273.9560961999232	1279.8102248999055	1279.8102248999055	6.0	['6', 'return']	[2.3549501999514177, 3.027299299952574]	5.85	5.27	3.0	40hz	high_pain	48.8				sub-051	250	51	47.2	48.8	COM5	COM15	COM3	2024-12-09_09h55.14.423	001-EEG_SVR_Officel	2022.2.5	240.2662147553876		5.269999999999982	1_sub-pilot051_SVR_EEG_block3-4.protocol.csv	step25	3745	372.181	STIMULATE	48.8	48.8	48.8	48.8	48.8	25	1178.118
1182.182	0	1182182	wait	10005	2	0	2	0	12.0	0.0	12.0	0.0					1295.851803299971	1303.8058535999153	1303.8058535999153	3.5	['3', 'a', '5', 'return']	[4.664172300021164, 4.863917200011201, 5.263347800006159, 7.103389500058256]	7.95	6.3	0.0	40hz	low_pain	47.2				sub-051	250	51	47.2	48.8	COM5	COM15	COM3	2024-12-09_09h55.14.423	001-EEG_SVR_Officel	2022.2.5	240.2662147553876		10.778999999999996	1_sub-pilot051_SVR_EEG_block3-4.protocol.csv	step27	3997	397.177	STIMULATE	47.2	47.1	47.2	47.2	47.2	27	1203.114
1190.128	0	1190128	40hz	10004	2	0	2	0	12.0	0.0	12.0	0.0					1295.851803299971	1303.8058535999153	1303.8058535999153	3.5	['3', 'a', '5', 'return']	[4.664172300021164, 4.863917200011201, 5.263347800006159, 7.103389500058256]	7.95	6.3	0.0	40hz	low_pain	47.2				sub-051	250	51	47.2	48.8	COM5	COM15	COM3	2024-12-09_09h55.14.423	001-EEG_SVR_Officel	2022.2.5	240.2662147553876		7.945999999999913	1_sub-pilot051_SVR_EEG_block3-4.protocol.csv	step27	3997	397.177	STIMULATE	47.2	47.1	47.2	47.2	47.2	27	1203.114
1197.182	0	1197182	40/Lo	10001	2	0	2	0	12.0	0.0	12.0	0.0					1295.851803299971	1303.8058535999153	1303.8058535999153	3.5	['3', 'a', '5', 'return']	[4.664172300021164, 4.863917200011201, 5.263347800006159, 7.103389500058256]	7.95	6.3	0.0	40hz	low_pain	47.2				sub-051	250	51	47.2	48.8	COM5	COM15	COM3	2024-12-09_09h55.14.423	001-EEG_SVR_Officel	2022.2.5	240.2662147553876		6.304000000000087	1_sub-pilot051_SVR_EEG_block3-4.protocol.csv	step27	3997	397.177	STIMULATE	47.2	47.1	47.2	47.2	47.2	27	1203.114
1210.253	0	1210253	wait	10005	2	0	2	0	13.0	0.0	13.0	0.0					1323.92240089993	1329.7556474999292	1329.7556474999292	4.5	['4', 'a', '5', 'return']	[2.353569999919273, 2.585592299932614, 2.7616122999461368, 3.8252344999928027]	5.83	6.09	1.0	20hz	high_pain	48.8				sub-051	250	51	47.2	48.8	COM5	COM15	COM3	2024-12-09_09h55.14.423	001-EEG_SVR_Officel	2022.2.5	240.2662147553876		13.820999999999913	1_sub-pilot051_SVR_EEG_block3-4.protocol.csv	step29	4256	422.849	STIMULATE	48.8	48.8	48.8	48.8	48.8	29	1228.786
1216.078	0	1216078	20hz	10004	2	0	2	0	13.0	0.0	13.0	0.0					1323.92240089993	1329.7556474999292	1329.7556474999292	4.5	['4', 'a', '5', 'return']	[2.353569999919273, 2.585592299932614, 2.7616122999461368, 3.8252344999928027]	5.83	6.09	1.0	20hz	high_pain	48.8				sub-051	250	51	47.2	48.8	COM5	COM15	COM3	2024-12-09_09h55.14.423	001-EEG_SVR_Officel	2022.2.5	240.2662147553876		5.8250000000000455	1_sub-pilot051_SVR_EEG_block3-4.protocol.csv	step29	4256	422.849	STIMULATE	48.8	48.8	48.8	48.8	48.8	29	1228.786
1222.92	0	1222920	20/Hi	10001	2	0	2	0	13.0	0.0	13.0	0.0					1323.92240089993	1329.7556474999292	1329.7556474999292	4.5	['4', 'a', '5', 'return']	[2.353569999919273, 2.585592299932614, 2.7616122999461368, 3.8252344999928027]	5.83	6.09	1.0	20hz	high_pain	48.8				sub-051	250	51	47.2	48.8	COM5	COM15	COM3	2024-12-09_09h55.14.423	001-EEG_SVR_Officel	2022.2.5	240.2662147553876		6.092000000000098	1_sub-pilot051_SVR_EEG_block3-4.protocol.csv	step29	4256	422.849	STIMULATE	48.8	48.8	48.8	48.8	48.8	29	1228.786
1232.924	0	1232924	wait	10005	2	0	2	0	14.0	0.0	14.0	0.0					1346.5931330999592	1353.3389570999425	1353.3389570999425	5.5	['5', 'a', '5', 'return']	[2.3466534999897704, 2.5460898999590427, 2.730684299953282, 3.4031819000374526]	6.74	5.49	2.0	20hz	high_pain	48.8				sub-051	250	51	47.2	48.8	COM5	COM15	COM3	2024-12-09_09h55.14.423	001-EEG_SVR_Officel	2022.2.5	240.2662147553876		10.753999999999905	1_sub-pilot051_SVR_EEG_block3-4.protocol.csv	step31	4488	445.881	STIMULATE	48.8	48.8	48.8	48.8	48.8	31	1251.818
1239.662	0	1239662	20hz	10004	2	0	2	0	14.0	0.0	14.0	0.0					1346.5931330999592	1353.3389570999425	1353.3389570999425	5.5	['5', 'a', '5', 'return']	[2.3466534999897704, 2.5460898999590427, 2.730684299953282, 3.4031819000374526]	6.74	5.49	2.0	20hz	high_pain	48.8				sub-051	250	51	47.2	48.8	COM5	COM15	COM3	2024-12-09_09h55.14.423	001-EEG_SVR_Officel	2022.2.5	240.2662147553876		6.738000000000056	1_sub-pilot051_SVR_EEG_block3-4.protocol.csv	step31	4488	445.881	STIMULATE	48.8	48.8	48.8	48.8	48.8	31	1251.818
1245.903	0	1245903	20/Hi	10001	2	0	2	0	14.0	0.0	14.0	0.0					1346.5931330999592	1353.3389570999425	1353.3389570999425	5.5	['5', 'a', '5', 'return']	[2.3466534999897704, 2.5460898999590427, 2.730684299953282, 3.4031819000374526]	6.74	5.49	2.0	20hz	high_pain	48.8				sub-051	250	51	47.2	48.8	COM5	COM15	COM3	2024-12-09_09h55.14.423	001-EEG_SVR_Officel	2022.2.5	240.2662147553876		5.4909999999999854	1_sub-pilot051_SVR_EEG_block3-4.protocol.csv	step31	4488	445.881	STIMULATE	48.8	48.8	48.8	48.8	48.8	31	1251.818
1256.081	0	1256081	wait	10005	2	0	2	0	15.0	0.0	15.0	0.0					1369.750636099954	1376.3685735999609	1376.3685735999609	6.0	['6', 'return']	[1.7377675001043826, 2.633241800009273]	6.61	5.91	3.0	20hz	high_pain	48.8				sub-051	250	51	47.2	48.8	COM5	COM15	COM3	2024-12-09_09h55.14.423	001-EEG_SVR_Officel	2022.2.5	240.2662147553876		10.927999999999884	1_sub-pilot051_SVR_EEG_block3-4.protocol.csv	step33	4725	469.325	STIMULATE	48.8	48.8	48.8	48.8	48.8	33	1275.262
1262.687	0	1262687	20hz	10004	2	0	2	0	15.0	0.0	15.0	0.0					1369.750636099954	1376.3685735999609	1376.3685735999609	6.0	['6', 'return']	[1.7377675001043826, 2.633241800009273]	6.61	5.91	3.0	20hz	high_pain	48.8				sub-051	250	51	47.2	48.8	COM5	COM15	COM3	2024-12-09_09h55.14.423	001-EEG_SVR_Officel	2022.2.5	240.2662147553876		6.6059999999999945	1_sub-pilot051_SVR_EEG_block3-4.protocol.csv	step33	4725	469.325	STIMULATE	48.8	48.8	48.8	48.8	48.8	33	1275.262
1269.348	0	1269348	20/Hi	10001	2	0	2	0	15.0	0.0	15.0	0.0					1369.750636099954	1376.3685735999609	1376.3685735999609	6.0	['6', 'return']	[1.7377675001043826, 2.633241800009273]	6.61	5.91	3.0	20hz	high_pain	48.8				sub-051	250	51	47.2	48.8	COM5	COM15	COM3	2024-12-09_09h55.14.423	001-EEG_SVR_Officel	2022.2.5	240.2662147553876		5.911000000000058	1_sub-pilot051_SVR_EEG_block3-4.protocol.csv	step33	4725	469.325	STIMULATE	48.8	48.8	48.8	48.8	48.8	33	1275.262
1367.364	0	1367364	wait	10005	3	0	3	0	0.0	0.0	0.0	0.0			p	1.2751445999601856	1481.0335509999422	1487.087715899921	1487.087715899921	3.0	['3', 'return']	[2.2303108000196517, 2.950363300042227]	6.05	6.12	0.0	10hz	low_pain	47.2				sub-051	250	51	47.2	48.8	COM5	COM15	COM3	2024-12-09_09h55.14.423	001-EEG_SVR_Officel	2022.2.5	240.2662147553876		98.76600000000008	1_sub-pilot051_SVR_EEG_block3-4.protocol.csv	step35	5836	580.269	STIMULATE	47.2	47.1	47.1	47.2	47.4	35	1386.184
1373.41	0	1373410	10hz	10004	3	0	3	0	0.0	0.0	0.0	0.0			p	1.2751445999601856	1481.0335509999422	1487.087715899921	1487.087715899921	3.0	['3', 'return']	[2.2303108000196517, 2.950363300042227]	6.05	6.12	0.0	10hz	low_pain	47.2				sub-051	250	51	47.2	48.8	COM5	COM15	COM3	2024-12-09_09h55.14.423	001-EEG_SVR_Officel	2022.2.5	240.2662147553876		6.046000000000049	1_sub-pilot051_SVR_EEG_block3-4.protocol.csv	step35	5836	580.269	STIMULATE	47.2	47.1	47.1	47.2	47.4	35	1386.184
1380.281	0	1380281	10/Lo	10001	3	0	3	0	0.0	0.0	0.0	0.0			p	1.2751445999601856	1481.0335509999422	1487.087715899921	1487.087715899921	3.0	['3', 'return']	[2.2303108000196517, 2.950363300042227]	6.05	6.12	0.0	10hz	low_pain	47.2				sub-051	250	51	47.2	48.8	COM5	COM15	COM3	2024-12-09_09h55.14.423	001-EEG_SVR_Officel	2022.2.5	240.2662147553876		6.120999999999867	1_sub-pilot051_SVR_EEG_block3-4.protocol.csv	step35	5836	580.269	STIMULATE	47.2	47.1	47.1	47.2	47.4	35	1386.184
1389.38	0	1389380	wait	10005	3	0	3	0	1.0	0.0	1.0	0.0					1503.049642099999	1508.7958330999827	1508.7958330999827	2.0	['2', 'return']	[2.0549638000084087, 2.7985337999416515]	5.74	5.91	1.0	20hz	low_pain	47.2				sub-051	250	51	47.2	48.8	COM5	COM15	COM3	2024-12-09_09h55.14.423	001-EEG_SVR_Officel	2022.2.5	240.2662147553876		9.84900000000016	1_sub-pilot051_SVR_EEG_block3-4.protocol.csv	step37	6053	601.767	STIMULATE	47.2	47.1	47.2	47.2	47.4	37	1407.682
1395.118	0	1395118	20hz	10004	3	0	3	0	1.0	0.0	1.0	0.0					1503.049642099999	1508.7958330999827	1508.7958330999827	2.0	['2', 'return']	[2.0549638000084087, 2.7985337999416515]	5.74	5.91	1.0	20hz	low_pain	47.2				sub-051	250	51	47.2	48.8	COM5	COM15	COM3	2024-12-09_09h55.14.423	001-EEG_SVR_Officel	2022.2.5	240.2662147553876		5.737999999999829	1_sub-pilot051_SVR_EEG_block3-4.protocol.csv	step37	6053	601.767	STIMULATE	47.2	47.1	47.2	47.2	47.4	37	1407.682
1401.781	0	1401781	20/Lo	10001	3	0	3	0	1.0	0.0	1.0	0.0					1503.049642099999	1508.7958330999827	1508.7958330999827	2.0	['2', 'return']	[2.0549638000084087, 2.7985337999416515]	5.74	5.91	1.0	20hz	low_pain	47.2				sub-051	250	51	47.2	48.8	COM5	COM15	COM3	2024-12-09_09h55.14.423	001-EEG_SVR_Officel	2022.2.5	240.2662147553876		5.913000000000011	1_sub-pilot051_SVR_EEG_block3-4.protocol.csv	step37	6053	601.767	STIMULATE	47.2	47.1	47.2	47.2	47.4	37	1407.682
1410.943	0	1410943	wait	10005	3	0	3	0	2.0	0.0	2.0	0.0					1524.6124810999029	1530.29594849993	1530.29594849993	3.0	['3', 'return']	[1.5171418000245467, 2.372559000039473]	5.68	5.61	2.0	40hz	low_pain	47.2				sub-051	250	51	47.2	48.8	COM5	COM15	COM3	2024-12-09_09h55.14.423	001-EEG_SVR_Officel	2022.2.5	240.2662147553876		9.912000000000035	1_sub-pilot051_SVR_EEG_block3-4.protocol.csv	step39	6267	623.0	STIMULATE	47.2	47.1	47.2	47.2	47.2	39	1428.915
1416.619	0	1416619	40hz	10004	3	0	3	0	2.0	0.0	2.0	0.0					1524.6124810999029	1530.29594849993	1530.29594849993	3.0	['3', 'return']	[1.5171418000245467, 2.372559000039473]	5.68	5.61	2.0	40hz	low_pain	47.2				sub-051	250	51	47.2	48.8	COM5	COM15	COM3	2024-12-09_09h55.14.423	001-EEG_SVR_Officel	2022.2.5	240.2662147553876		5.675999999999931	1_sub-pilot051_SVR_EEG_block3-4.protocol.csv	step39	6267	623.0	STIMULATE	47.2	47.1	47.2	47.2	47.2	39	1428.915
1422.98	0	1422980	40/Lo	10001	3	0	3	0	2.0	0.0	2.0	0.0					1524.6124810999029	1530.29594849993	1530.29594849993	3.0	['3', 'return']	[1.5171418000245467, 2.372559000039473]	5.68	5.61	2.0	40hz	low_pain	47.2				sub-051	250	51	47.2	48.8	COM5	COM15	COM3	2024-12-09_09h55.14.423	001-EEG_SVR_Officel	2022.2.5	240.2662147553876		5.611000000000104	1_sub-pilot051_SVR_EEG_block3-4.protocol.csv	step39	6267	623.0	STIMULATE	47.2	47.1	47.2	47.2	47.2	39	1428.915
1432.018	0	1432018	wait	10005	3	0	3	0	3.0	0.0	3.0	0.0					1545.6878189999843	1550.7829513999168	1550.7829513999168	5.5	['5', 'a', '5', 'return']	[2.36665959993843, 2.5907244000118226, 2.7659700999502093, 3.5031971000134945]	5.09	5.41	3.0	controle	high_pain	48.8				sub-051	250	51	47.2	48.8	COM5	COM15	COM3	2024-12-09_09h55.14.423	001-EEG_SVR_Officel	2022.2.5	240.2662147553876		9.788000000000011	1_sub-pilot051_SVR_EEG_block3-4.protocol.csv	step41	6472	643.219	STIMULATE	48.8	48.8	48.8	48.8	48.8	41	1449.134
1437.106	0	1437106	CNhz	10004	3	0	3	0	3.0	0.0	3.0	0.0					1545.6878189999843	1550.7829513999168	1550.7829513999168	5.5	['5', 'a', '5', 'return']	[2.36665959993843, 2.5907244000118226, 2.7659700999502093, 3.5031971000134945]	5.09	5.41	3.0	controle	high_pain	48.8				sub-051	250	51	47.2	48.8	COM5	COM15	COM3	2024-12-09_09h55.14.423	001-EEG_SVR_Officel	2022.2.5	240.2662147553876		5.087999999999965	1_sub-pilot051_SVR_EEG_block3-4.protocol.csv	step41	6472	643.219	STIMULATE	48.8	48.8	48.8	48.8	48.8	41	1449.134
1443.268	0	1443268	CN/Hi	10001	3	0	3	0	3.0	0.0	3.0	0.0					1545.6878189999843	1550.7829513999168	1550.7829513999168	5.5	['5', 'a', '5', 'return']	[2.36665959993843, 2.5907244000118226, 2.7659700999502093, 3.5031971000134945]	5.09	5.41	3.0	controle	high_pain	48.8				sub-051	250	51	47.2	48.8	COM5	COM15	COM3	2024-12-09_09h55.14.423	001-EEG_SVR_Officel	2022.2.5	240.2662147553876		5.412000000000035	1_sub-pilot051_SVR_EEG_block3-4.protocol.csv	step41	6472	643.219	STIMULATE	48.8	48.8	48.8	48.8	48.8	41	1449.134
1453.63	0	1453630	wait	10005	3	0	3	0	4.0	0.0	4.0	0.0					1567.299507999909	1573.3042651999276	1573.3042651999276	5.5	['5', 'a', '5', 'return']	[2.126118000014685, 2.4292666000546888, 2.6767989000072703, 3.3811546999495476]	6.0	6.19	0.0	10hz	high_pain	48.8				sub-051	250	51	47.2	48.8	COM5	COM15	COM3	2024-12-09_09h55.14.423	001-EEG_SVR_Officel	2022.2.5	240.2662147553876		11.11200000000008	1_sub-pilot051_SVR_EEG_block3-4.protocol.csv	step43	6708	666.626	STIMULATE	48.8	48.8	48.8	48.8	49.1	43	1472.541
1459.627	0	1459627	10hz	10004	3	0	3	0	4.0	0.0	4.0	0.0					1567.299507999909	1573.3042651999276	1573.3042651999276	5.5	['5', 'a', '5', 'return']	[2.126118000014685, 2.4292666000546888, 2.6767989000072703, 3.3811546999495476]	6.0	6.19	0.0	10hz	high_pain	48.8				sub-051	250	51	47.2	48.8	COM5	COM15	COM3	2024-12-09_09h55.14.423	001-EEG_SVR_Officel	2022.2.5	240.2662147553876		5.996999999999844	1_sub-pilot051_SVR_EEG_block3-4.protocol.csv	step43	6708	666.626	STIMULATE	48.8	48.8	48.8	48.8	49.1	43	1472.541
1466.568	0	1466568	10/Hi	10001	3	0	3	0	4.0	0.0	4.0	0.0					1567.299507999909	1573.3042651999276	1573.3042651999276	5.5	['5', 'a', '5', 'return']	[2.126118000014685, 2.4292666000546888, 2.6767989000072703, 3.3811546999495476]	6.0	6.19	0.0	10hz	high_pain	48.8				sub-051	250	51	47.2	48.8	COM5	COM15	COM3	2024-12-09_09h55.14.423	001-EEG_SVR_Officel	2022.2.5	240.2662147553876		6.191000000000031	1_sub-pilot051_SVR_EEG_block3-4.protocol.csv	step43	6708	666.626	STIMULATE	48.8	48.8	48.8	48.8	49.1	43	1472.541
1476.035	0	1476035	wait	10005	3	0	3	0	5.0	0.0	5.0	0.0					1589.7047019999009	1596.3546496999916	1596.3546496999916	5.0	['5', 'return']	[2.104551999946125, 2.7526455000042915]	6.64	5.46	1.0	10hz	high_pain	48.8				sub-051	250	51	47.2	48.8	COM5	COM15	COM3	2024-12-09_09h55.14.423	001-EEG_SVR_Officel	2022.2.5	240.2662147553876		10.217000000000098	1_sub-pilot051_SVR_EEG_block3-4.protocol.csv	step45	6932	688.873	STIMULATE	48.8	48.8	48.8	48.8	49.0	45	1494.788
1482.673	0	1482673	10hz	10004	3	0	3	0	5.0	0.0	5.0	0.0					1589.7047019999009	1596.3546496999916	1596.3546496999916	5.0	['5', 'return']	[2.104551999946125, 2.7526455000042915]	6.64	5.46	1.0	10hz	high_pain	48.8				sub-051	250	51	47.2	48.8	COM5	COM15	COM3	2024-12-09_09h55.14.423	001-EEG_SVR_Officel	2022.2.5	240.2662147553876		6.63799999999992	1_sub-pilot051_SVR_EEG_block3-4.protocol.csv	step45	6932	688.873	STIMULATE	48.8	48.8	48.8	48.8	49.0	45	1494.788
1488.89	0	1488890	10/Hi	10001	3	0	3	0	5.0	0.0	5.0	0.0					1589.7047019999009	1596.3546496999916	1596.3546496999916	5.0	['5', 'return']	[2.104551999946125, 2.7526455000042915]	6.64	5.46	1.0	10hz	high_pain	48.8				sub-051	250	51	47.2	48.8	COM5	COM15	COM3	2024-12-09_09h55.14.423	001-EEG_SVR_Officel	2022.2.5	240.2662147553876		5.467000000000098	1_sub-pilot051_SVR_EEG_block3-4.protocol.csv	step45	6932	688.873	STIMULATE	48.8	48.8	48.8	48.8	49.0	45	1494.788
1498.442	0	1498442	wait	10005	3	0	3	0	6.0	0.0	6.0	0.0					1612.1110960999504	1619.0705406999914	1619.0705406999914	4.0	['4', 'return']	[2.3114168000174686, 3.008472500019707]	6.95	6.45	2.0	20hz	low_pain	47.2				sub-051	250	51	47.2	48.8	COM5	COM15	COM3	2024-12-09_09h55.14.423	001-EEG_SVR_Officel	2022.2.5	240.2662147553876		10.301999999999907	1_sub-pilot051_SVR_EEG_block3-4.protocol.csv	step47	7172	712.619	STIMULATE	47.3	47.1	47.2	47.2	47.2	47	1518.534
1505.393	0	1505393	20hz	10004	3	0	3	0	6.0	0.0	6.0	0.0					1612.1110960999504	1619.0705406999914	1619.0705406999914	4.0	['4', 'return']	[2.3114168000174686, 3.008472500019707]	6.95	6.45	2.0	20hz	low_pain	47.2				sub-051	250	51	47.2	48.8	COM5	COM15	COM3	2024-12-09_09h55.14.423	001-EEG_SVR_Officel	2022.2.5	240.2662147553876		6.951000000000022	1_sub-pilot051_SVR_EEG_block3-4.protocol.csv	step47	7172	712.619	STIMULATE	47.3	47.1	47.2	47.2	47.2	47	1518.534
1512.596	0	1512596	20/Lo	10001	3	0	3	0	6.0	0.0	6.0	0.0					1612.1110960999504	1619.0705406999914	1619.0705406999914	4.0	['4', 'return']	[2.3114168000174686, 3.008472500019707]	6.95	6.45	2.0	20hz	low_pain	47.2				sub-051	250	51	47.2	48.8	COM5	COM15	COM3	2024-12-09_09h55.14.423	001-EEG_SVR_Officel	2022.2.5	240.2662147553876		6.4529999999999745	1_sub-pilot051_SVR_EEG_block3-4.protocol.csv	step47	7172	712.619	STIMULATE	47.3	47.1	47.2	47.2	47.2	47	1518.534
1521.425	0	1521425	wait	10005	3	0	3	0	7.0	0.0	7.0	0.0					1635.094772899989	1641.632206699927	1641.632206699927	5.0	['5', 'return']	[2.2213250999338925, 2.8445720999734476]	6.53	5.34	3.0	40hz	low_pain	47.2				sub-051	250	51	47.2	48.8	COM5	COM15	COM3	2024-12-09_09h55.14.423	001-EEG_SVR_Officel	2022.2.5	240.2662147553876		9.57899999999995	1_sub-pilot051_SVR_EEG_block3-4.protocol.csv	step49	7388	734.115	STIMULATE	47.2	47.1	47.1	47.2	47.2	49	1540.03
1527.955	0	1527955	40hz	10004	3	0	3	0	7.0	0.0	7.0	0.0					1635.094772899989	1641.632206699927	1641.632206699927	5.0	['5', 'return']	[2.2213250999338925, 2.8445720999734476]	6.53	5.34	3.0	40hz	low_pain	47.2				sub-051	250	51	47.2	48.8	COM5	COM15	COM3	2024-12-09_09h55.14.423	001-EEG_SVR_Officel	2022.2.5	240.2662147553876		6.529999999999973	1_sub-pilot051_SVR_EEG_block3-4.protocol.csv	step49	7388	734.115	STIMULATE	47.2	47.1	47.1	47.2	47.2	49	1540.03
1534.046	0	1534046	40/Lo	10001	3	0	3	0	7.0	0.0	7.0	0.0					1635.094772899989	1641.632206699927	1641.632206699927	5.0	['5', 'return']	[2.2213250999338925, 2.8445720999734476]	6.53	5.34	3.0	40hz	low_pain	47.2				sub-051	250	51	47.2	48.8	COM5	COM15	COM3	2024-12-09_09h55.14.423	001-EEG_SVR_Officel	2022.2.5	240.2662147553876		5.341000000000122	1_sub-pilot051_SVR_EEG_block3-4.protocol.csv	step49	7388	734.115	STIMULATE	47.2	47.1	47.1	47.2	47.2	49	1540.03
1543.821	0	1543821	wait	10005	3	0	3	0	8.0	0.0	8.0	0.0					1657.4903975999914	1663.285644999938	1663.285644999938	3.0	['3', 'return']	[2.198562299949117, 2.8245211000321433]	5.79	5.42	0.0	20hz	low_pain	47.2				sub-051	250	51	47.2	48.8	COM5	COM15	COM3	2024-12-09_09h55.14.423	001-EEG_SVR_Officel	2022.2.5	240.2662147553876		10.524999999999864	1_sub-pilot051_SVR_EEG_block3-4.protocol.csv	step51	7606	755.757	STIMULATE	47.2	47.1	47.1	47.2	47.4	51	1561.672
1549.61	0	1549610	20hz	10004	3	0	3	0	8.0	0.0	8.0	0.0					1657.4903975999914	1663.285644999938	1663.285644999938	3.0	['3', 'return']	[2.198562299949117, 2.8245211000321433]	5.79	5.42	0.0	20hz	low_pain	47.2				sub-051	250	51	47.2	48.8	COM5	COM15	COM3	2024-12-09_09h55.14.423	001-EEG_SVR_Officel	2022.2.5	240.2662147553876		5.788999999999987	1_sub-pilot051_SVR_EEG_block3-4.protocol.csv	step51	7606	755.757	STIMULATE	47.2	47.1	47.1	47.2	47.4	51	1561.672
1555.783	0	1555783	20/Lo	10001	3	0	3	0	8.0	0.0	8.0	0.0					1657.4903975999914	1663.285644999938	1663.285644999938	3.0	['3', 'return']	[2.198562299949117, 2.8245211000321433]	5.79	5.42	0.0	20hz	low_pain	47.2				sub-051	250	51	47.2	48.8	COM5	COM15	COM3	2024-12-09_09h55.14.423	001-EEG_SVR_Officel	2022.2.5	240.2662147553876		5.423000000000002	1_sub-pilot051_SVR_EEG_block3-4.protocol.csv	step51	7606	755.757	STIMULATE	47.2	47.1	47.1	47.2	47.4	51	1561.672
1565.454	0	1565454	wait	10005	3	0	3	0	9.0	0.0	9.0	0.0					1679.1235994999297	1686.9193417999195	1686.9193417999195	4.5	['4', 'a', '5', 'return']	[2.136818700004369, 2.3925243000267074, 2.6009459999622777, 3.345693700015545]	7.79	5.85	1.0	controle	high_pain	48.8				sub-051	250	51	47.2	48.8	COM5	COM15	COM3	2024-12-09_09h55.14.423	001-EEG_SVR_Officel	2022.2.5	240.2662147553876		10.42100000000005	1_sub-pilot051_SVR_EEG_block3-4.protocol.csv	step53	7845	779.973	STIMULATE	48.8	48.8	48.8	48.8	49.1	53	1585.888
1573.242	0	1573242	CNhz	10004	3	0	3	0	9.0	0.0	9.0	0.0					1679.1235994999297	1686.9193417999195	1686.9193417999195	4.5	['4', 'a', '5', 'return']	[2.136818700004369, 2.3925243000267074, 2.6009459999622777, 3.345693700015545]	7.79	5.85	1.0	controle	high_pain	48.8				sub-051	250	51	47.2	48.8	COM5	COM15	COM3	2024-12-09_09h55.14.423	001-EEG_SVR_Officel	2022.2.5	240.2662147553876		7.788000000000011	1_sub-pilot051_SVR_EEG_block3-4.protocol.csv	step53	7845	779.973	STIMULATE	48.8	48.8	48.8	48.8	49.1	53	1585.888
1579.846	0	1579846	CN/Hi	10001	3	0	3	0	9.0	0.0	9.0	0.0					1679.1235994999297	1686.9193417999195	1686.9193417999195	4.5	['4', 'a', '5', 'return']	[2.136818700004369, 2.3925243000267074, 2.6009459999622777, 3.345693700015545]	7.79	5.85	1.0	controle	high_pain	48.8				sub-051	250	51	47.2	48.8	COM5	COM15	COM3	2024-12-09_09h55.14.423	001-EEG_SVR_Officel	2022.2.5	240.2662147553876		5.854000000000042	1_sub-pilot051_SVR_EEG_block3-4.protocol.csv	step53	7845	779.973	STIMULATE	48.8	48.8	48.8	48.8	49.1	53	1585.888
1589.617	0	1589617	wait	10005	3	0	3	0	10.0	0.0	10.0	0.0					1703.2869710999075	1708.4818343999796	1708.4818343999796	5.5	['5', 'a', '5', 'return']	[2.2265407000668347, 2.8896088000619784, 3.1462944999802858, 3.8176032999763265]	5.19	5.9	2.0	10hz	high_pain	48.8				sub-051	250	51	47.2	48.8	COM5	COM15	COM3	2024-12-09_09h55.14.423	001-EEG_SVR_Officel	2022.2.5	240.2662147553876		10.520999999999958	1_sub-pilot051_SVR_EEG_block3-4.protocol.csv	step55	8054	801.546	STIMULATE	48.8	48.8	48.8	48.8	48.8	55	1607.461
1594.804	0	1594804	10hz	10004	3	0	3	0	10.0	0.0	10.0	0.0					1703.2869710999075	1708.4818343999796	1708.4818343999796	5.5	['5', 'a', '5', 'return']	[2.2265407000668347, 2.8896088000619784, 3.1462944999802858, 3.8176032999763265]	5.19	5.9	2.0	10hz	high_pain	48.8				sub-051	250	51	47.2	48.8	COM5	COM15	COM3	2024-12-09_09h55.14.423	001-EEG_SVR_Officel	2022.2.5	240.2662147553876		5.1870000000001255	1_sub-pilot051_SVR_EEG_block3-4.protocol.csv	step55	8054	801.546	STIMULATE	48.8	48.8	48.8	48.8	48.8	55	1607.461
1601.455	0	1601455	10/Hi	10001	3	0	3	0	10.0	0.0	10.0	0.0					1703.2869710999075	1708.4818343999796	1708.4818343999796	5.5	['5', 'a', '5', 'return']	[2.2265407000668347, 2.8896088000619784, 3.1462944999802858, 3.8176032999763265]	5.19	5.9	2.0	10hz	high_pain	48.8				sub-051	250	51	47.2	48.8	COM5	COM15	COM3	2024-12-09_09h55.14.423	001-EEG_SVR_Officel	2022.2.5	240.2662147553876		5.90099999999984	1_sub-pilot051_SVR_EEG_block3-4.protocol.csv	step55	8054	801.546	STIMULATE	48.8	48.8	48.8	48.8	48.8	55	1607.461
1611.655	0	1611655	wait	10005	3	0	3	0	11.0	0.0	11.0	0.0					1725.3243638999993	1730.6612778999845	1730.6612778999845	5.0	['5', 'return']	[2.316131900064647, 3.044434900046326]	5.33	6.01	3.0	10hz	high_pain	48.8				sub-051	250	51	47.2	48.8	COM5	COM15	COM3	2024-12-09_09h55.14.423	001-EEG_SVR_Officel	2022.2.5	240.2662147553876		10.950000000000045	1_sub-pilot051_SVR_EEG_block3-4.protocol.csv	step57	8267	823.746	STIMULATE	48.8	48.8	48.8	48.8	48.8	57	1629.661
1616.983	0	1616983	10hz	10004	3	0	3	0	11.0	0.0	11.0	0.0					1725.3243638999993	1730.6612778999845	1730.6612778999845	5.0	['5', 'return']	[2.316131900064647, 3.044434900046326]	5.33	6.01	3.0	10hz	high_pain	48.8				sub-051	250	51	47.2	48.8	COM5	COM15	COM3	2024-12-09_09h55.14.423	001-EEG_SVR_Officel	2022.2.5	240.2662147553876		5.3279999999999745	1_sub-pilot051_SVR_EEG_block3-4.protocol.csv	step57	8267	823.746	STIMULATE	48.8	48.8	48.8	48.8	48.8	57	1629.661
1623.746	0	1623746	10/Hi	10001	3	0	3	0	11.0	0.0	11.0	0.0					1725.3243638999993	1730.6612778999845	1730.6612778999845	5.0	['5', 'return']	[2.316131900064647, 3.044434900046326]	5.33	6.01	3.0	10hz	high_pain	48.8				sub-051	250	51	47.2	48.8	COM5	COM15	COM3	2024-12-09_09h55.14.423	001-EEG_SVR_Officel	2022.2.5	240.2662147553876		6.013000000000147	1_sub-pilot051_SVR_EEG_block3-4.protocol.csv	step57	8267	823.746	STIMULATE	48.8	48.8	48.8	48.8	48.8	57	1629.661
1633.054	0	1633054	wait	10005	3	0	3	0	12.0	0.0	12.0	0.0					1746.7230763999978	1753.2396663998952	1753.2396663998952	4.0	['4', 'return']	[1.5818003000458702, 2.294587800046429]	6.51	5.26	0.0	controle	low_pain	47.2				sub-051	250	51	47.2	48.8	COM5	COM15	COM3	2024-12-09_09h55.14.423	001-EEG_SVR_Officel	2022.2.5	240.2662147553876		10.057999999999993	1_sub-pilot051_SVR_EEG_block3-4.protocol.csv	step59	8476	845.624	STIMULATE	47.2	47.1	47.1	47.2	47.2	59	1651.539
1639.562	0	1639562	CNhz	10004	3	0	3	0	12.0	0.0	12.0	0.0					1746.7230763999978	1753.2396663998952	1753.2396663998952	4.0	['4', 'return']	[1.5818003000458702, 2.294587800046429]	6.51	5.26	0.0	controle	low_pain	47.2				sub-051	250	51	47.2	48.8	COM5	COM15	COM3	2024-12-09_09h55.14.423	001-EEG_SVR_Officel	2022.2.5	240.2662147553876		6.507999999999811	1_sub-pilot051_SVR_EEG_block3-4.protocol.csv	step59	8476	845.624	STIMULATE	47.2	47.1	47.1	47.2	47.2	59	1651.539
1645.574	0	1645574	CN/Lo	10001	3	0	3	0	12.0	0.0	12.0	0.0					1746.7230763999978	1753.2396663998952	1753.2396663998952	4.0	['4', 'return']	[1.5818003000458702, 2.294587800046429]	6.51	5.26	0.0	controle	low_pain	47.2				sub-051	250	51	47.2	48.8	COM5	COM15	COM3	2024-12-09_09h55.14.423	001-EEG_SVR_Officel	2022.2.5	240.2662147553876		5.262000000000171	1_sub-pilot051_SVR_EEG_block3-4.protocol.csv	step59	8476	845.624	STIMULATE	47.2	47.1	47.1	47.2	47.2	59	1651.539
1654.878	0	1654878	wait	10005	3	0	3	0	13.0	0.0	13.0	0.0					1768.5478275999194	1773.7311317999847	1773.7311317999847	2.5	['2', 'a', '5', 'return']	[3.7772761000087485, 4.233410999993794, 4.456722499919124, 5.241989900008775]	5.18	6.13	1.0	10hz	low_pain	47.2				sub-051	250	51	47.2	48.8	COM5	COM15	COM3	2024-12-09_09h55.14.423	001-EEG_SVR_Officel	2022.2.5	240.2662147553876		10.05399999999986	1_sub-pilot051_SVR_EEG_block3-4.protocol.csv	step61	8677	866.879	STIMULATE	47.1	47.2	47.2	47.2	47.2	61	1672.7939999999999
1660.053	0	1660053	10hz	10004	3	0	3	0	13.0	0.0	13.0	0.0					1768.5478275999194	1773.7311317999847	1773.7311317999847	2.5	['2', 'a', '5', 'return']	[3.7772761000087485, 4.233410999993794, 4.456722499919124, 5.241989900008775]	5.18	6.13	1.0	10hz	low_pain	47.2				sub-051	250	51	47.2	48.8	COM5	COM15	COM3	2024-12-09_09h55.14.423	001-EEG_SVR_Officel	2022.2.5	240.2662147553876		5.175000000000182	1_sub-pilot051_SVR_EEG_block3-4.protocol.csv	step61	8677	866.879	STIMULATE	47.1	47.2	47.2	47.2	47.2	61	1672.7939999999999
1666.937	0	1666937	10/Lo	10001	3	0	3	0	13.0	0.0	13.0	0.0					1768.5478275999194	1773.7311317999847	1773.7311317999847	2.5	['2', 'a', '5', 'return']	[3.7772761000087485, 4.233410999993794, 4.456722499919124, 5.241989900008775]	5.18	6.13	1.0	10hz	low_pain	47.2				sub-051	250	51	47.2	48.8	COM5	COM15	COM3	2024-12-09_09h55.14.423	001-EEG_SVR_Officel	2022.2.5	240.2662147553876		6.133999999999787	1_sub-pilot051_SVR_EEG_block3-4.protocol.csv	step61	8677	866.879	STIMULATE	47.1	47.2	47.2	47.2	47.2	61	1672.7939999999999
1678.32	0	1678320	wait	10005	3	0	3	0	14.0	0.0	14.0	0.0					1791.9894815000007	1797.7895724999253	1797.7895724999253	3.5	['3', 'a', '5', 'return']	[2.639761899947189, 2.9522740999236703, 3.1678060999838635, 3.920909699983895]	5.79	6.39	2.0	10hz	low_pain	47.2				sub-051	250	51	47.2	48.8	COM5	COM15	COM3	2024-12-09_09h55.14.423	001-EEG_SVR_Officel	2022.2.5	240.2662147553876		12.133000000000038	1_sub-pilot051_SVR_EEG_block3-4.protocol.csv	step63	8905	891.248	STIMULATE	47.2	47.2	47.2	47.2	47.2	63	1697.163
1684.112	0	1684112	10hz	10004	3	0	3	0	14.0	0.0	14.0	0.0					1791.9894815000007	1797.7895724999253	1797.7895724999253	3.5	['3', 'a', '5', 'return']	[2.639761899947189, 2.9522740999236703, 3.1678060999838635, 3.920909699983895]	5.79	6.39	2.0	10hz	low_pain	47.2				sub-051	250	51	47.2	48.8	COM5	COM15	COM3	2024-12-09_09h55.14.423	001-EEG_SVR_Officel	2022.2.5	240.2662147553876		5.792000000000144	1_sub-pilot051_SVR_EEG_block3-4.protocol.csv	step63	8905	891.248	STIMULATE	47.2	47.2	47.2	47.2	47.2	63	1697.163
1691.253	0	1691253	10/Lo	10001	3	0	3	0	14.0	0.0	14.0	0.0					1791.9894815000007	1797.7895724999253	1797.7895724999253	3.5	['3', 'a', '5', 'return']	[2.639761899947189, 2.9522740999236703, 3.1678060999838635, 3.920909699983895]	5.79	6.39	2.0	10hz	low_pain	47.2				sub-051	250	51	47.2	48.8	COM5	COM15	COM3	2024-12-09_09h55.14.423	001-EEG_SVR_Officel	2022.2.5	240.2662147553876		6.390999999999849	1_sub-pilot051_SVR_EEG_block3-4.protocol.csv	step63	8905	891.248	STIMULATE	47.2	47.2	47.2	47.2	47.2	63	1697.163
1701.052	0	1701052	wait	10005	3	0	3	0	15.0	0.0	15.0	0.0					1814.722002299968	1820.1113196999067	1820.1113196999067	1.0	['1', 'return']	[2.6938143000006676, 3.822152500040829]	5.38	5.35	3.0	20hz	low_pain	47.2				sub-051	250	51	47.2	48.8	COM5	COM15	COM3	2024-12-09_09h55.14.423	001-EEG_SVR_Officel	2022.2.5	240.2662147553876		10.548999999999978	1_sub-pilot051_SVR_EEG_block3-4.protocol.csv	step65	9103	912.584	STIMULATE	47.2	47.2	47.2	47.2	47.2	65	1718.4989999999998
1706.43	0	1706430	20hz	10004	3	0	3	0	15.0	0.0	15.0	0.0					1814.722002299968	1820.1113196999067	1820.1113196999067	1.0	['1', 'return']	[2.6938143000006676, 3.822152500040829]	5.38	5.35	3.0	20hz	low_pain	47.2				sub-051	250	51	47.2	48.8	COM5	COM15	COM3	2024-12-09_09h55.14.423	001-EEG_SVR_Officel	2022.2.5	240.2662147553876		5.378000000000156	1_sub-pilot051_SVR_EEG_block3-4.protocol.csv	step65	9103	912.584	STIMULATE	47.2	47.2	47.2	47.2	47.2	65	1718.4989999999998
1712.537	0	1712537	20/Lo	10001	3	0	3	0	15.0	0.0	15.0	0.0					1814.722002299968	1820.1113196999067	1820.1113196999067	1.0	['1', 'return']	[2.6938143000006676, 3.822152500040829]	5.38	5.35	3.0	20hz	low_pain	47.2				sub-051	250	51	47.2	48.8	COM5	COM15	COM3	2024-12-09_09h55.14.423	001-EEG_SVR_Officel	2022.2.5	240.2662147553876		5.356999999999971	1_sub-pilot051_SVR_EEG_block3-4.protocol.csv	step65	9103	912.584	STIMULATE	47.2	47.2	47.2	47.2	47.2	65	1718.4989999999998
1792.948	0	1792948	wait	10005	4	0	4	0	0.0	0.0	0.0	0.0			p	0.6670851999660954	1906.617559999926	1913.4264509999196	1913.4264509999196	3.5	['3', 'a', '5', 'return']	[2.119283500011079, 2.3753699999069795, 2.6155573999276385, 3.232960299937986]	6.8	6.13	0.0	20hz	low_pain	47.2				sub-051	250	51	47.2	48.8	COM5	COM15	COM3	2024-12-09_09h55.14.423	001-EEG_SVR_Officel	2022.2.5	240.2662147553876		81.16100000000006	2_sub-pilot051_SVR_EEG_block5-6.protocol.csv	step3	787	78.507	STIMULATE	47.2	47.1	47.1	47.2	47.3	3	1812.4579999999999
1799.745	0	1799745	20hz	10004	4	0	4	0	0.0	0.0	0.0	0.0			p	0.6670851999660954	1906.617559999926	1913.4264509999196	1913.4264509999196	3.5	['3', 'a', '5', 'return']	[2.119283500011079, 2.3753699999069795, 2.6155573999276385, 3.232960299937986]	6.8	6.13	0.0	20hz	low_pain	47.2				sub-051	250	51	47.2	48.8	COM5	COM15	COM3	2024-12-09_09h55.14.423	001-EEG_SVR_Officel	2022.2.5	240.2662147553876		6.796999999999798	2_sub-pilot051_SVR_EEG_block5-6.protocol.csv	step3	787	78.507	STIMULATE	47.2	47.1	47.1	47.2	47.3	3	1812.4579999999999
1806.627	0	1806627	20/Lo	10001	4	0	4	0	0.0	0.0	0.0	0.0			p	0.6670851999660954	1906.617559999926	1913.4264509999196	1913.4264509999196	3.5	['3', 'a', '5', 'return']	[2.119283500011079, 2.3753699999069795, 2.6155573999276385, 3.232960299937986]	6.8	6.13	0.0	20hz	low_pain	47.2				sub-051	250	51	47.2	48.8	COM5	COM15	COM3	2024-12-09_09h55.14.423	001-EEG_SVR_Officel	2022.2.5	240.2662147553876		6.132000000000062	2_sub-pilot051_SVR_EEG_block5-6.protocol.csv	step3	787	78.507	STIMULATE	47.2	47.1	47.1	47.2	47.3	3	1812.4579999999999
1816.002	0	1816002	wait	10005	4	0	4	0	1.0	0.0	1.0	0.0					1929.671797099989	1935.1215960999248	1935.1215960999248	5.0	['5', 'return']	[1.8277525999583304, 2.428037600009702]	5.44	6.02	1.0	40hz	high_pain	48.8				sub-051	250	51	47.2	48.8	COM5	COM15	COM3	2024-12-09_09h55.14.423	001-EEG_SVR_Officel	2022.2.5	240.2662147553876		10.125	2_sub-pilot051_SVR_EEG_block5-6.protocol.csv	step5	1005	100.144	STIMULATE	48.8	48.8	48.8	48.8	48.9	5	1834.095
1821.445	0	1821445	40hz	10004	4	0	4	0	1.0	0.0	1.0	0.0					1929.671797099989	1935.1215960999248	1935.1215960999248	5.0	['5', 'return']	[1.8277525999583304, 2.428037600009702]	5.44	6.02	1.0	40hz	high_pain	48.8				sub-051	250	51	47.2	48.8	COM5	COM15	COM3	2024-12-09_09h55.14.423	001-EEG_SVR_Officel	2022.2.5	240.2662147553876		5.442999999999984	2_sub-pilot051_SVR_EEG_block5-6.protocol.csv	step5	1005	100.144	STIMULATE	48.8	48.8	48.8	48.8	48.9	5	1834.095
1828.22	0	1828220	40/Hi	10001	4	0	4	0	1.0	0.0	1.0	0.0					1929.671797099989	1935.1215960999248	1935.1215960999248	5.0	['5', 'return']	[1.8277525999583304, 2.428037600009702]	5.44	6.02	1.0	40hz	high_pain	48.8				sub-051	250	51	47.2	48.8	COM5	COM15	COM3	2024-12-09_09h55.14.423	001-EEG_SVR_Officel	2022.2.5	240.2662147553876		6.025000000000091	2_sub-pilot051_SVR_EEG_block5-6.protocol.csv	step5	1005	100.144	STIMULATE	48.8	48.8	48.8	48.8	48.9	5	1834.095
1836.894	0	1836894	wait	10005	4	0	4	0	2.0	0.0	2.0	0.0					1950.5631287998983	1958.046448499896	1958.046448499896	5.0	['5', 'return']	[1.630957500077784, 2.2317214000504464]	7.48	5.31	2.0	20hz	high_pain	48.8				sub-051	250	51	47.2	48.8	COM5	COM15	COM3	2024-12-09_09h55.14.423	001-EEG_SVR_Officel	2022.2.5	240.2662147553876		9.423999999999978	2_sub-pilot051_SVR_EEG_block5-6.protocol.csv	step7	1229	122.333	STIMULATE	48.8	48.8	48.8	48.8	48.8	7	1856.2839999999999
1844.369	0	1844369	20hz	10004	4	0	4	0	2.0	0.0	2.0	0.0					1950.5631287998983	1958.046448499896	1958.046448499896	5.0	['5', 'return']	[1.630957500077784, 2.2317214000504464]	7.48	5.31	2.0	20hz	high_pain	48.8				sub-051	250	51	47.2	48.8	COM5	COM15	COM3	2024-12-09_09h55.14.423	001-EEG_SVR_Officel	2022.2.5	240.2662147553876		7.474999999999909	2_sub-pilot051_SVR_EEG_block5-6.protocol.csv	step7	1229	122.333	STIMULATE	48.8	48.8	48.8	48.8	48.8	7	1856.2839999999999
1850.431	0	1850431	20/Hi	10001	4	0	4	0	2.0	0.0	2.0	0.0					1950.5631287998983	1958.046448499896	1958.046448499896	5.0	['5', 'return']	[1.630957500077784, 2.2317214000504464]	7.48	5.31	2.0	20hz	high_pain	48.8				sub-051	250	51	47.2	48.8	COM5	COM15	COM3	2024-12-09_09h55.14.423	001-EEG_SVR_Officel	2022.2.5	240.2662147553876		5.3120000000001255	2_sub-pilot051_SVR_EEG_block5-6.protocol.csv	step7	1229	122.333	STIMULATE	48.8	48.8	48.8	48.8	48.8	7	1856.2839999999999
1859.622	0	1859622	wait	10005	4	0	4	0	3.0	0.0	3.0	0.0					1973.2920139998896	1979.2253345999636	1979.2253345999636	3.5	['3', 'a', '5', 'return']	[1.8767965999431908, 2.7161682000150904, 2.988239699974656, 3.7966938000172377]	5.93	5.37	3.0	40hz	low_pain	47.2				sub-051	250	51	47.2	48.8	COM5	COM15	COM3	2024-12-09_09h55.14.423	001-EEG_SVR_Officel	2022.2.5	240.2662147553876		9.941000000000031	2_sub-pilot051_SVR_EEG_block5-6.protocol.csv	step9	1444	143.608	STIMULATE	47.2	47.1	47.2	47.2	47.2	9	1877.559
1865.547	0	1865547	40hz	10004	4	0	4	0	3.0	0.0	3.0	0.0					1973.2920139998896	1979.2253345999636	1979.2253345999636	3.5	['3', 'a', '5', 'return']	[1.8767965999431908, 2.7161682000150904, 2.988239699974656, 3.7966938000172377]	5.93	5.37	3.0	40hz	low_pain	47.2				sub-051	250	51	47.2	48.8	COM5	COM15	COM3	2024-12-09_09h55.14.423	001-EEG_SVR_Officel	2022.2.5	240.2662147553876		5.9249999999999545	2_sub-pilot051_SVR_EEG_block5-6.protocol.csv	step9	1444	143.608	STIMULATE	47.2	47.1	47.2	47.2	47.2	9	1877.559
1871.668	0	1871668	40/Lo	10001	4	0	4	0	3.0	0.0	3.0	0.0					1973.2920139998896	1979.2253345999636	1979.2253345999636	3.5	['3', 'a', '5', 'return']	[1.8767965999431908, 2.7161682000150904, 2.988239699974656, 3.7966938000172377]	5.93	5.37	3.0	40hz	low_pain	47.2				sub-051	250	51	47.2	48.8	COM5	COM15	COM3	2024-12-09_09h55.14.423	001-EEG_SVR_Officel	2022.2.5	240.2662147553876		5.370999999999867	2_sub-pilot051_SVR_EEG_block5-6.protocol.csv	step9	1444	143.608	STIMULATE	47.2	47.1	47.2	47.2	47.2	9	1877.559
1882.368	0	1882368	wait	10005	4	0	4	0	4.0	0.0	4.0	0.0					1996.0376656999576	2001.0919071999376	2001.0919071999376	6.0	['6', 'return']	[2.122085699927993, 2.8345532999373972]	5.05	5.31	0.0	20hz	high_pain	48.8				sub-051	250	51	47.2	48.8	COM5	COM15	COM3	2024-12-09_09h55.14.423	001-EEG_SVR_Officel	2022.2.5	240.2662147553876		11.450000000000045	2_sub-pilot051_SVR_EEG_block5-6.protocol.csv	step11	1663	165.303	STIMULATE	48.8	48.8	48.8	48.8	49.1	11	1899.254
1887.414	0	1887414	20hz	10004	4	0	4	0	4.0	0.0	4.0	0.0					1996.0376656999576	2001.0919071999376	2001.0919071999376	6.0	['6', 'return']	[2.122085699927993, 2.8345532999373972]	5.05	5.31	0.0	20hz	high_pain	48.8				sub-051	250	51	47.2	48.8	COM5	COM15	COM3	2024-12-09_09h55.14.423	001-EEG_SVR_Officel	2022.2.5	240.2662147553876		5.046000000000049	2_sub-pilot051_SVR_EEG_block5-6.protocol.csv	step11	1663	165.303	STIMULATE	48.8	48.8	48.8	48.8	49.1	11	1899.254
1893.476	0	1893476	20/Hi	10001	4	0	4	0	4.0	0.0	4.0	0.0					1996.0376656999576	2001.0919071999376	2001.0919071999376	6.0	['6', 'return']	[2.122085699927993, 2.8345532999373972]	5.05	5.31	0.0	20hz	high_pain	48.8				sub-051	250	51	47.2	48.8	COM5	COM15	COM3	2024-12-09_09h55.14.423	001-EEG_SVR_Officel	2022.2.5	240.2662147553876		5.3120000000001255	2_sub-pilot051_SVR_EEG_block5-6.protocol.csv	step11	1663	165.303	STIMULATE	48.8	48.8	48.8	48.8	49.1	11	1899.254
1903.272	0	1903272	wait	10005	4	0	4	0	5.0	0.0	5.0	0.0					2016.9417845999124	2023.3957251999527	2023.3957251999527	5.0	['5', 'return']	[1.4655336000723764, 2.105854400084354]	6.45	6.26	1.0	20hz	high_pain	48.8				sub-051	250	51	47.2	48.8	COM5	COM15	COM3	2024-12-09_09h55.14.423	001-EEG_SVR_Officel	2022.2.5	240.2662147553876		10.545999999999822	2_sub-pilot051_SVR_EEG_block5-6.protocol.csv	step13	1897	188.514	STIMULATE	48.8	48.8	48.8	48.8	48.8	13	1922.465
1909.718	0	1909718	20hz	10004	4	0	4	0	5.0	0.0	5.0	0.0					2016.9417845999124	2023.3957251999527	2023.3957251999527	5.0	['5', 'return']	[1.4655336000723764, 2.105854400084354]	6.45	6.26	1.0	20hz	high_pain	48.8				sub-051	250	51	47.2	48.8	COM5	COM15	COM3	2024-12-09_09h55.14.423	001-EEG_SVR_Officel	2022.2.5	240.2662147553876		6.44600000000014	2_sub-pilot051_SVR_EEG_block5-6.protocol.csv	step13	1897	188.514	STIMULATE	48.8	48.8	48.8	48.8	48.8	13	1922.465
1916.73	0	1916730	20/Hi	10001	4	0	4	0	5.0	0.0	5.0	0.0					2016.9417845999124	2023.3957251999527	2023.3957251999527	5.0	['5', 'return']	[1.4655336000723764, 2.105854400084354]	6.45	6.26	1.0	20hz	high_pain	48.8				sub-051	250	51	47.2	48.8	COM5	COM15	COM3	2024-12-09_09h55.14.423	001-EEG_SVR_Officel	2022.2.5	240.2662147553876		6.261999999999944	2_sub-pilot051_SVR_EEG_block5-6.protocol.csv	step13	1897	188.514	STIMULATE	48.8	48.8	48.8	48.8	48.8	13	1922.465
1924.842	0	1924842	wait	10005	4	0	4	0	6.0	0.0	6.0	0.0					2038.511819899897	2045.4129883999703	2045.4129883999703	2.5	['2', 'a', '5', 'return']	[1.8201201999327168, 2.187349500018172, 2.404579499969259, 3.164283699938096]	6.89	5.41	2.0	controle	low_pain	47.2				sub-051	250	51	47.2	48.8	COM5	COM15	COM3	2024-12-09_09h55.14.423	001-EEG_SVR_Officel	2022.2.5	240.2662147553876		8.86200000000008	2_sub-pilot051_SVR_EEG_block5-6.protocol.csv	step15	2111	209.716	STIMULATE	47.2	47.2	47.2	47.2	47.2	15	1943.667
