onset	duration	sample	trial_type	value	block.thisRepN	block.thisTrialN	block.thisN	block.thisIndex	reps.thisRepN	reps.thisTrialN	reps.thisN	reps.thisIndex	afrec_start	rec_start	rec_start_egi	key_resp.keys	key_resp.rt	wait_time_text.started	wait_time_text.stopped	therm_loca_text.started	subResponse	keyResp.keys	keyResp.rt	ITI_wait	wait_trigger	loca_thermode	Hz_condition	temp_condition	temp_valeur	text.started	text.stopped	participant	brightness	num_part	low	high	com_svr	com_thermode	com_eeg	date	expName	psychopyVersion	frameRate	Unnamed: 39	distance_from_previous	file	step	index	time	type	temp1	temp2	temp3	temp4	temp5	step_num	time_sync
61.362	0	30681	wait	20	0	0	0	0	0.0	0.0	0.0	0.0	31.813649899995653	31.622958399995696	1717599189.4506688	p	61.14533130000928	92.98445710001396	100.48517160001212	100.48517160001212	10.0	['1', '0', 'return']	[4.025485400023172, 4.425834100024076, 6.442452200019034]	7.49	6.3	0.0	40hz	high_pain	47.2			sub-039	250	39	45.5	47.2	COM11	COM15	COM3	2024-06-05_10h53.03.735	001-EEG_SVR_Officel	2022.2.5	142.70383816748523		61.362	0_sub-pilot039_SVR_EEG_block1-2.protocol.csv	step3	571	56.935	STIMULATE	47.4	47.2	47.1	47.2	47.2	3	81.75200000000001
68.852	0	34426	40hz	9	0	0	0	0	0.0	0.0	0.0	0.0	31.813649899995653	31.622958399995696	1717599189.4506688	p	61.14533130000928	92.98445710001396	100.48517160001212	100.48517160001212	10.0	['1', '0', 'return']	[4.025485400023172, 4.425834100024076, 6.442452200019034]	7.49	6.3	0.0	40hz	high_pain	47.2			sub-039	250	39	45.5	47.2	COM11	COM15	COM3	2024-06-05_10h53.03.735	001-EEG_SVR_Officel	2022.2.5	142.70383816748523		7.490000000000002	0_sub-pilot039_SVR_EEG_block1-2.protocol.csv	step3	571	56.935	STIMULATE	47.4	47.2	47.1	47.2	47.2	3	81.75200000000001
75.906	0	37953	40/Hi	7	0	0	0	0	0.0	0.0	0.0	0.0	31.813649899995653	31.622958399995696	1717599189.4506688	p	61.14533130000928	92.98445710001396	100.48517160001212	100.48517160001212	10.0	['1', '0', 'return']	[4.025485400023172, 4.425834100024076, 6.442452200019034]	7.49	6.3	0.0	40hz	high_pain	47.2			sub-039	250	39	45.5	47.2	COM11	COM15	COM3	2024-06-05_10h53.03.735	001-EEG_SVR_Officel	2022.2.5	142.70383816748523		6.304000000000002	0_sub-pilot039_SVR_EEG_block1-2.protocol.csv	step3	571	56.935	STIMULATE	47.4	47.2	47.1	47.2	47.2	3	81.75200000000001
88.316	0	44158	wait	20	0	0	0	0	1.0	0.0	1.0	0.0						119.93837340001484	126.53004850001888	126.53004850001888	10.0	['1', '0', 'return']	[2.621510600001784, 3.0692592000123113, 3.597049900010461]	6.58	5.87	1.0	40hz	high_pain	47.2			sub-039	250	39	45.5	47.2	COM11	COM15	COM3	2024-06-05_10h53.03.735	001-EEG_SVR_Officel	2022.2.5	142.70383816748523		13.159999999999997	0_sub-pilot039_SVR_EEG_block1-2.protocol.csv	step5	829	82.515	STIMULATE	47.4	47.1	47.2	47.1	47.2	5	107.33200000000001
94.896	0	47448	40hz	9	0	0	0	0	1.0	0.0	1.0	0.0						119.93837340001484	126.53004850001888	126.53004850001888	10.0	['1', '0', 'return']	[2.621510600001784, 3.0692592000123113, 3.597049900010461]	6.58	5.87	1.0	40hz	high_pain	47.2			sub-039	250	39	45.5	47.2	COM11	COM15	COM3	2024-06-05_10h53.03.735	001-EEG_SVR_Officel	2022.2.5	142.70383816748523		6.579999999999998	0_sub-pilot039_SVR_EEG_block1-2.protocol.csv	step5	829	82.515	STIMULATE	47.4	47.1	47.2	47.1	47.2	5	107.33200000000001
101.52	0	50760	40/Hi	7	0	0	0	0	1.0	0.0	1.0	0.0						119.93837340001484	126.53004850001888	126.53004850001888	10.0	['1', '0', 'return']	[2.621510600001784, 3.0692592000123113, 3.597049900010461]	6.58	5.87	1.0	40hz	high_pain	47.2			sub-039	250	39	45.5	47.2	COM11	COM15	COM3	2024-06-05_10h53.03.735	001-EEG_SVR_Officel	2022.2.5	142.70383816748523		5.873999999999995	0_sub-pilot039_SVR_EEG_block1-2.protocol.csv	step5	829	82.515	STIMULATE	47.4	47.1	47.2	47.1	47.2	5	107.33200000000001
111.514	0	55757	wait	20	0	0	0	0	2.0	0.0	2.0	0.0						143.13607680000132	148.17858229999547	148.17858229999547	3.0	['3', 'return']	[4.41274249998969, 5.165575799997896]	5.03	5.13	2.0	20hz	low_pain	45.5			sub-039	250	39	45.5	47.2	COM11	COM15	COM3	2024-06-05_10h53.03.735	001-EEG_SVR_Officel	2022.2.5	142.70383816748523		10.744	0_sub-pilot039_SVR_EEG_block1-2.protocol.csv	step7	1040	103.413	STIMULATE	45.6	45.4	45.4	45.4	45.5	7	128.23000000000002
116.544	0	58272	20hz	6	0	0	0	0	2.0	0.0	2.0	0.0						143.13607680000132	148.17858229999547	148.17858229999547	3.0	['3', 'return']	[4.41274249998969, 5.165575799997896]	5.03	5.13	2.0	20hz	low_pain	45.5			sub-039	250	39	45.5	47.2	COM11	COM15	COM3	2024-06-05_10h53.03.735	001-EEG_SVR_Officel	2022.2.5	142.70383816748523		5.030000000000001	0_sub-pilot039_SVR_EEG_block1-2.protocol.csv	step7	1040	103.413	STIMULATE	45.6	45.4	45.4	45.4	45.5	7	128.23000000000002
122.426	0	61213	20/Lo	5	0	0	0	0	2.0	0.0	2.0	0.0						143.13607680000132	148.17858229999547	148.17858229999547	3.0	['3', 'return']	[4.41274249998969, 5.165575799997896]	5.03	5.13	2.0	20hz	low_pain	45.5			sub-039	250	39	45.5	47.2	COM11	COM15	COM3	2024-06-05_10h53.03.735	001-EEG_SVR_Officel	2022.2.5	142.70383816748523		5.132000000000005	0_sub-pilot039_SVR_EEG_block1-2.protocol.csv	step7	1040	103.413	STIMULATE	45.6	45.4	45.4	45.4	45.5	7	128.23000000000002
134.74	0	67370	wait	20	0	0	0	0	3.0	0.0	3.0	0.0						166.36112590000266	171.9520875000162	171.9520875000162	6.0	['6', 'return']	[2.759777400002349, 3.3596802999963984]	5.58	5.34	3.0	40hz	high_pain	47.2			sub-039	250	39	45.5	47.2	COM11	COM15	COM3	2024-06-05_10h53.03.735	001-EEG_SVR_Officel	2022.2.5	142.70383816748523		13.064000000000007	0_sub-pilot039_SVR_EEG_block1-2.protocol.csv	step9	1282	127.41	STIMULATE	47.2	47.1	47.2	47.1	47.2	9	152.227
140.318	0	70159	40hz	9	0	0	0	0	3.0	0.0	3.0	0.0						166.36112590000266	171.9520875000162	171.9520875000162	6.0	['6', 'return']	[2.759777400002349, 3.3596802999963984]	5.58	5.34	3.0	40hz	high_pain	47.2			sub-039	250	39	45.5	47.2	COM11	COM15	COM3	2024-06-05_10h53.03.735	001-EEG_SVR_Officel	2022.2.5	142.70383816748523		5.578000000000003	0_sub-pilot039_SVR_EEG_block1-2.protocol.csv	step9	1282	127.41	STIMULATE	47.2	47.1	47.2	47.1	47.2	9	152.227
146.408	0	73204	40/Hi	7	0	0	0	0	3.0	0.0	3.0	0.0						166.36112590000266	171.9520875000162	171.9520875000162	6.0	['6', 'return']	[2.759777400002349, 3.3596802999963984]	5.58	5.34	3.0	40hz	high_pain	47.2			sub-039	250	39	45.5	47.2	COM11	COM15	COM3	2024-06-05_10h53.03.735	001-EEG_SVR_Officel	2022.2.5	142.70383816748523		5.339999999999975	0_sub-pilot039_SVR_EEG_block1-2.protocol.csv	step9	1282	127.41	STIMULATE	47.2	47.1	47.2	47.1	47.2	9	152.227
156.708	0	78354	wait	20	0	0	0	0	4.0	0.0	4.0	0.0						188.32975999999329	195.8169657000108	195.8169657000108	5.0	['5', 'return']	[2.663248700002441, 3.095145900006173]	7.48	5.26	0.0	10hz	high_pain	47.2			sub-039	250	39	45.5	47.2	COM11	COM15	COM3	2024-06-05_10h53.03.735	001-EEG_SVR_Officel	2022.2.5	142.70383816748523		11.050000000000011	0_sub-pilot039_SVR_EEG_block1-2.protocol.csv	step11	1522	151.271	STIMULATE	47.5	47.2	47.2	47.2	47.2	11	176.088
164.182	0	82091	10hz	3	0	0	0	0	4.0	0.0	4.0	0.0						188.32975999999329	195.8169657000108	195.8169657000108	5.0	['5', 'return']	[2.663248700002441, 3.095145900006173]	7.48	5.26	0.0	10hz	high_pain	47.2			sub-039	250	39	45.5	47.2	COM11	COM15	COM3	2024-06-05_10h53.03.735	001-EEG_SVR_Officel	2022.2.5	142.70383816748523		7.4739999999999895	0_sub-pilot039_SVR_EEG_block1-2.protocol.csv	step11	1522	151.271	STIMULATE	47.5	47.2	47.2	47.2	47.2	11	176.088
170.194	0	85097	10/Hi	1	0	0	0	0	4.0	0.0	4.0	0.0						188.32975999999329	195.8169657000108	195.8169657000108	5.0	['5', 'return']	[2.663248700002441, 3.095145900006173]	7.48	5.26	0.0	10hz	high_pain	47.2			sub-039	250	39	45.5	47.2	COM11	COM15	COM3	2024-06-05_10h53.03.735	001-EEG_SVR_Officel	2022.2.5	142.70383816748523		5.2620000000000005	0_sub-pilot039_SVR_EEG_block1-2.protocol.csv	step11	1522	151.271	STIMULATE	47.5	47.2	47.2	47.2	47.2	11	176.088
180.298	0	90149	wait	20	0	0	0	0	5.0	0.0	5.0	0.0						211.9213102000067	217.58256569999503	217.58256569999503	9.0	['9', 'return']	[3.321752599993488, 4.00915850000456]	5.65	5.41	1.0	10hz	high_pain	47.2			sub-039	250	39	45.5	47.2	COM11	COM15	COM3	2024-06-05_10h53.03.735	001-EEG_SVR_Officel	2022.2.5	142.70383816748523		10.854000000000013	0_sub-pilot039_SVR_EEG_block1-2.protocol.csv	step13	1743	173.167	STIMULATE	47.3	47.1	47.2	47.1	47.2	13	197.984
185.948	0	92974	10hz	3	0	0	0	0	5.0	0.0	5.0	0.0						211.9213102000067	217.58256569999503	217.58256569999503	9.0	['9', 'return']	[3.321752599993488, 4.00915850000456]	5.65	5.41	1.0	10hz	high_pain	47.2			sub-039	250	39	45.5	47.2	COM11	COM15	COM3	2024-06-05_10h53.03.735	001-EEG_SVR_Officel	2022.2.5	142.70383816748523		5.650000000000006	0_sub-pilot039_SVR_EEG_block1-2.protocol.csv	step13	1743	173.167	STIMULATE	47.3	47.1	47.2	47.1	47.2	13	197.984
192.106	0	96053	10/Hi	1	0	0	0	0	5.0	0.0	5.0	0.0						211.9213102000067	217.58256569999503	217.58256569999503	9.0	['9', 'return']	[3.321752599993488, 4.00915850000456]	5.65	5.41	1.0	10hz	high_pain	47.2			sub-039	250	39	45.5	47.2	COM11	COM15	COM3	2024-06-05_10h53.03.735	001-EEG_SVR_Officel	2022.2.5	142.70383816748523		5.407999999999987	0_sub-pilot039_SVR_EEG_block1-2.protocol.csv	step13	1743	173.167	STIMULATE	47.3	47.1	47.2	47.1	47.2	13	197.984
202.99	0	101495	wait	20	0	0	0	0	6.0	0.0	6.0	0.0						234.61232740001287	240.0921392000164	240.0921392000164	1.0	['1', 'return']	[3.211410199990496, 3.9634980999981053]	5.47	6.2	2.0	controle	low_pain	45.5			sub-039	250	39	45.5	47.2	COM11	COM15	COM3	2024-06-05_10h53.03.735	001-EEG_SVR_Officel	2022.2.5	142.70383816748523		11.634000000000015	0_sub-pilot039_SVR_EEG_block1-2.protocol.csv	step15	1978	196.419	STIMULATE	45.7	45.4	45.4	45.5	45.4	15	221.23600000000002
208.458	0	104229	CNhz	12	0	0	0	0	6.0	0.0	6.0	0.0						234.61232740001287	240.0921392000164	240.0921392000164	1.0	['1', 'return']	[3.211410199990496, 3.9634980999981053]	5.47	6.2	2.0	controle	low_pain	45.5			sub-039	250	39	45.5	47.2	COM11	COM15	COM3	2024-06-05_10h53.03.735	001-EEG_SVR_Officel	2022.2.5	142.70383816748523		5.467999999999989	0_sub-pilot039_SVR_EEG_block1-2.protocol.csv	step15	1978	196.419	STIMULATE	45.7	45.4	45.4	45.5	45.4	15	221.23600000000002
215.408	0	107704	CN/Lo	11	0	0	0	0	6.0	0.0	6.0	0.0						234.61232740001287	240.0921392000164	240.0921392000164	1.0	['1', 'return']	[3.211410199990496, 3.9634980999981053]	5.47	6.2	2.0	controle	low_pain	45.5			sub-039	250	39	45.5	47.2	COM11	COM15	COM3	2024-06-05_10h53.03.735	001-EEG_SVR_Officel	2022.2.5	142.70383816748523		6.199999999999989	0_sub-pilot039_SVR_EEG_block1-2.protocol.csv	step15	1978	196.419	STIMULATE	45.7	45.4	45.4	45.5	45.4	15	221.23600000000002
225.444	0	112722	wait	20	0	0	0	0	7.0	0.0	7.0	0.0						257.0659193000174	263.2963954000152	263.2963954000152	2.0	['2', 'return']	[2.807239500019932, 3.6628420000197366]	6.22	5.29	3.0	controle	low_pain	45.5			sub-039	250	39	45.5	47.2	COM11	COM15	COM3	2024-06-05_10h53.03.735	001-EEG_SVR_Officel	2022.2.5	142.70383816748523		10.786000000000001	0_sub-pilot039_SVR_EEG_block1-2.protocol.csv	step17	2203	218.743	STIMULATE	45.5	45.4	45.4	45.5	45.5	17	243.56
231.662	0	115831	CNhz	12	0	0	0	0	7.0	0.0	7.0	0.0						257.0659193000174	263.2963954000152	263.2963954000152	2.0	['2', 'return']	[2.807239500019932, 3.6628420000197366]	6.22	5.29	3.0	controle	low_pain	45.5			sub-039	250	39	45.5	47.2	COM11	COM15	COM3	2024-06-05_10h53.03.735	001-EEG_SVR_Officel	2022.2.5	142.70383816748523		6.218000000000018	0_sub-pilot039_SVR_EEG_block1-2.protocol.csv	step17	2203	218.743	STIMULATE	45.5	45.4	45.4	45.5	45.5	17	243.56
237.702	0	118851	CN/Lo	11	0	0	0	0	7.0	0.0	7.0	0.0						257.0659193000174	263.2963954000152	263.2963954000152	2.0	['2', 'return']	[2.807239500019932, 3.6628420000197366]	6.22	5.29	3.0	controle	low_pain	45.5			sub-039	250	39	45.5	47.2	COM11	COM15	COM3	2024-06-05_10h53.03.735	001-EEG_SVR_Officel	2022.2.5	142.70383816748523		5.289999999999992	0_sub-pilot039_SVR_EEG_block1-2.protocol.csv	step17	2203	218.743	STIMULATE	45.5	45.4	45.4	45.5	45.5	17	243.56
248.348	0	124174	wait	20	0	0	0	0	8.0	0.0	8.0	0.0						279.97101320000365	285.2291947999911	285.2291947999911	4.0	['4', 'return']	[2.6072741999814752, 3.143145599984564]	5.25	5.73	0.0	20hz	high_pain	47.2			sub-039	250	39	45.5	47.2	COM11	COM15	COM3	2024-06-05_10h53.03.735	001-EEG_SVR_Officel	2022.2.5	142.70383816748523		11.396000000000015	0_sub-pilot039_SVR_EEG_block1-2.protocol.csv	step19	2429	241.166	STIMULATE	47.4	47.2	47.2	47.2	47.2	19	265.983
253.594	0	126797	20hz	6	0	0	0	0	8.0	0.0	8.0	0.0						279.97101320000365	285.2291947999911	285.2291947999911	4.0	['4', 'return']	[2.6072741999814752, 3.143145599984564]	5.25	5.73	0.0	20hz	high_pain	47.2			sub-039	250	39	45.5	47.2	COM11	COM15	COM3	2024-06-05_10h53.03.735	001-EEG_SVR_Officel	2022.2.5	142.70383816748523		5.245999999999981	0_sub-pilot039_SVR_EEG_block1-2.protocol.csv	step19	2429	241.166	STIMULATE	47.4	47.2	47.2	47.2	47.2	19	265.983
260.08	0	130039	20/Hi	4	0	0	0	0	8.0	0.0	8.0	0.0						279.97101320000365	285.2291947999911	285.2291947999911	4.0	['4', 'return']	[2.6072741999814752, 3.143145599984564]	5.25	5.73	0.0	20hz	high_pain	47.2			sub-039	250	39	45.5	47.2	COM11	COM15	COM3	2024-06-05_10h53.03.735	001-EEG_SVR_Officel	2022.2.5	142.70383816748523		5.73599999999999	0_sub-pilot039_SVR_EEG_block1-2.protocol.csv	step19	2429	241.166	STIMULATE	47.4	47.2	47.2	47.2	47.2	19	265.983
269.776	0	134888	wait	20	0	0	0	0	9.0	0.0	9.0	0.0						301.39851110000745	306.78789090001374	306.78789090001374	6.0	['6', 'return']	[2.562854999996489, 2.9472469000029378]	5.37	5.47	1.0	20hz	high_pain	47.2			sub-039	250	39	45.5	47.2	COM11	COM15	COM3	2024-06-05_10h53.03.735	001-EEG_SVR_Officel	2022.2.5	142.70383816748523		10.446000000000026	0_sub-pilot039_SVR_EEG_block1-2.protocol.csv	step21	2643	262.321	STIMULATE	47.4	47.2	47.2	47.2	47.2	21	287.13800000000003
275.154	0	137577	20hz	6	0	0	0	0	9.0	0.0	9.0	0.0						301.39851110000745	306.78789090001374	306.78789090001374	6.0	['6', 'return']	[2.562854999996489, 2.9472469000029378]	5.37	5.47	1.0	20hz	high_pain	47.2			sub-039	250	39	45.5	47.2	COM11	COM15	COM3	2024-06-05_10h53.03.735	001-EEG_SVR_Officel	2022.2.5	142.70383816748523		5.377999999999986	0_sub-pilot039_SVR_EEG_block1-2.protocol.csv	step21	2643	262.321	STIMULATE	47.4	47.2	47.2	47.2	47.2	21	287.13800000000003
281.374	0	140687	20/Hi	4	0	0	0	0	9.0	0.0	9.0	0.0						301.39851110000745	306.78789090001374	306.78789090001374	6.0	['6', 'return']	[2.562854999996489, 2.9472469000029378]	5.37	5.47	1.0	20hz	high_pain	47.2			sub-039	250	39	45.5	47.2	COM11	COM15	COM3	2024-06-05_10h53.03.735	001-EEG_SVR_Officel	2022.2.5	142.70383816748523		5.470000000000027	0_sub-pilot039_SVR_EEG_block1-2.protocol.csv	step21	2643	262.321	STIMULATE	47.4	47.2	47.2	47.2	47.2	21	287.13800000000003
291.132	0	145566	wait	20	0	0	0	0	10.0	0.0	10.0	0.0						322.7554200000013	329.1729822999914	329.1729822999914	2.0	['2', 'return']	[2.923112399992533, 3.505828900000779]	6.41	5.17	2.0	40hz	low_pain	45.5			sub-039	250	39	45.5	47.2	COM11	COM15	COM3	2024-06-05_10h53.03.735	001-EEG_SVR_Officel	2022.2.5	142.70383816748523		10.507999999999981	0_sub-pilot039_SVR_EEG_block1-2.protocol.csv	step23	2866	284.423	STIMULATE	45.7	45.4	45.5	45.5	45.5	23	309.24
297.538	0	148769	40hz	9	0	0	0	0	10.0	0.0	10.0	0.0						322.7554200000013	329.1729822999914	329.1729822999914	2.0	['2', 'return']	[2.923112399992533, 3.505828900000779]	6.41	5.17	2.0	40hz	low_pain	45.5			sub-039	250	39	45.5	47.2	COM11	COM15	COM3	2024-06-05_10h53.03.735	001-EEG_SVR_Officel	2022.2.5	142.70383816748523		6.406000000000006	0_sub-pilot039_SVR_EEG_block1-2.protocol.csv	step23	2866	284.423	STIMULATE	45.7	45.4	45.5	45.5	45.5	23	309.24
303.46	0	151730	40/Lo	8	0	0	0	0	10.0	0.0	10.0	0.0						322.7554200000013	329.1729822999914	329.1729822999914	2.0	['2', 'return']	[2.923112399992533, 3.505828900000779]	6.41	5.17	2.0	40hz	low_pain	45.5			sub-039	250	39	45.5	47.2	COM11	COM15	COM3	2024-06-05_10h53.03.735	001-EEG_SVR_Officel	2022.2.5	142.70383816748523		5.171999999999969	0_sub-pilot039_SVR_EEG_block1-2.protocol.csv	step23	2866	284.423	STIMULATE	45.7	45.4	45.5	45.5	45.5	23	309.24
314.074	0	157037	wait	20	0	0	0	0	11.0	0.0	11.0	0.0						345.6955448999943	352.35556510000606	352.35556510000606	5.0	['5', 'return']	[2.9713419000036083, 3.722832900006324]	6.65	5.68	3.0	20hz	high_pain	47.2			sub-039	250	39	45.5	47.2	COM11	COM15	COM3	2024-06-05_10h53.03.735	001-EEG_SVR_Officel	2022.2.5	142.70383816748523		11.364000000000033	0_sub-pilot039_SVR_EEG_block1-2.protocol.csv	step25	3106	308.235	STIMULATE	47.4	47.2	47.2	47.2	47.2	25	333.052
320.72	0	160360	20hz	6	0	0	0	0	11.0	0.0	11.0	0.0						345.6955448999943	352.35556510000606	352.35556510000606	5.0	['5', 'return']	[2.9713419000036083, 3.722832900006324]	6.65	5.68	3.0	20hz	high_pain	47.2			sub-039	250	39	45.5	47.2	COM11	COM15	COM3	2024-06-05_10h53.03.735	001-EEG_SVR_Officel	2022.2.5	142.70383816748523		6.646000000000015	0_sub-pilot039_SVR_EEG_block1-2.protocol.csv	step25	3106	308.235	STIMULATE	47.4	47.2	47.2	47.2	47.2	25	333.052
327.15	0	163575	20/Hi	4	0	0	0	0	11.0	0.0	11.0	0.0						345.6955448999943	352.35556510000606	352.35556510000606	5.0	['5', 'return']	[2.9713419000036083, 3.722832900006324]	6.65	5.68	3.0	20hz	high_pain	47.2			sub-039	250	39	45.5	47.2	COM11	COM15	COM3	2024-06-05_10h53.03.735	001-EEG_SVR_Officel	2022.2.5	142.70383816748523		5.67999999999995	0_sub-pilot039_SVR_EEG_block1-2.protocol.csv	step25	3106	308.235	STIMULATE	47.4	47.2	47.2	47.2	47.2	25	333.052
337.478	0	168739	wait	20	0	0	0	0	12.0	0.0	12.0	0.0						369.1005543000065	376.58062860000064	376.58062860000064	3.0	['3', 'return']	[3.3231505999865476, 5.890772799990373]	7.47	5.84	0.0	controle	high_pain	47.2			sub-039	250	39	45.5	47.2	COM11	COM15	COM3	2024-06-05_10h53.03.735	001-EEG_SVR_Officel	2022.2.5	142.70383816748523		11.078000000000031	0_sub-pilot039_SVR_EEG_block1-2.protocol.csv	step27	3351	332.52	STIMULATE	47.4	47.2	47.2	47.2	47.2	27	357.337
344.944	0	172472	CNhz	12	0	0	0	0	12.0	0.0	12.0	0.0						369.1005543000065	376.58062860000064	376.58062860000064	3.0	['3', 'return']	[3.3231505999865476, 5.890772799990373]	7.47	5.84	0.0	controle	high_pain	47.2			sub-039	250	39	45.5	47.2	COM11	COM15	COM3	2024-06-05_10h53.03.735	001-EEG_SVR_Officel	2022.2.5	142.70383816748523		7.466000000000008	0_sub-pilot039_SVR_EEG_block1-2.protocol.csv	step27	3351	332.52	STIMULATE	47.4	47.2	47.2	47.2	47.2	27	357.337
351.534	0	175767	CN/Hi	10	0	0	0	0	12.0	0.0	12.0	0.0						369.1005543000065	376.58062860000064	376.58062860000064	3.0	['3', 'return']	[3.3231505999865476, 5.890772799990373]	7.47	5.84	0.0	controle	high_pain	47.2			sub-039	250	39	45.5	47.2	COM11	COM15	COM3	2024-06-05_10h53.03.735	001-EEG_SVR_Officel	2022.2.5	142.70383816748523		5.839999999999975	0_sub-pilot039_SVR_EEG_block1-2.protocol.csv	step27	3351	332.52	STIMULATE	47.4	47.2	47.2	47.2	47.2	27	357.337
363.868	0	181934	wait	20	0	0	0	0	13.0	0.0	13.0	0.0						395.4927368999925	402.047607000015	402.047607000015	2.0	['2', 'return']	[2.230398299987428, 2.774356300011277]	6.55	5.03	1.0	10hz	low_pain	45.5			sub-039	250	39	45.5	47.2	COM11	COM15	COM3	2024-06-05_10h53.03.735	001-EEG_SVR_Officel	2022.2.5	142.70383816748523		13.084000000000003	0_sub-pilot039_SVR_EEG_block1-2.protocol.csv	step29	3601	357.316	STIMULATE	45.6	45.5	45.5	45.5	45.5	29	382.133
370.418	0	185209	10hz	3	0	0	0	0	13.0	0.0	13.0	0.0						395.4927368999925	402.047607000015	402.047607000015	2.0	['2', 'return']	[2.230398299987428, 2.774356300011277]	6.55	5.03	1.0	10hz	low_pain	45.5			sub-039	250	39	45.5	47.2	COM11	COM15	COM3	2024-06-05_10h53.03.735	001-EEG_SVR_Officel	2022.2.5	142.70383816748523		6.550000000000011	0_sub-pilot039_SVR_EEG_block1-2.protocol.csv	step29	3601	357.316	STIMULATE	45.6	45.5	45.5	45.5	45.5	29	382.133
376.204	0	188102	10/Lo	2	0	0	0	0	13.0	0.0	13.0	0.0						395.4927368999925	402.047607000015	402.047607000015	2.0	['2', 'return']	[2.230398299987428, 2.774356300011277]	6.55	5.03	1.0	10hz	low_pain	45.5			sub-039	250	39	45.5	47.2	COM11	COM15	COM3	2024-06-05_10h53.03.735	001-EEG_SVR_Officel	2022.2.5	142.70383816748523		5.036000000000001	0_sub-pilot039_SVR_EEG_block1-2.protocol.csv	step29	3601	357.316	STIMULATE	45.6	45.5	45.5	45.5	45.5	29	382.133
386.226	0	193113	wait	20	0	0	0	0	14.0	0.0	14.0	0.0						417.8499075	423.8505710000172	423.8505710000172	1.0	['1', 'return']	[2.205646600021282, 2.701823900017189]	5.99	5.91	2.0	10hz	low_pain	45.5			sub-039	250	39	45.5	47.2	COM11	COM15	COM3	2024-06-05_10h53.03.735	001-EEG_SVR_Officel	2022.2.5	142.70383816748523		10.771999999999991	0_sub-pilot039_SVR_EEG_block1-2.protocol.csv	step31	3829	379.94	STIMULATE	45.7	45.4	45.4	45.5	45.5	31	404.757
392.214	0	196107	10hz	3	0	0	0	0	14.0	0.0	14.0	0.0						417.8499075	423.8505710000172	423.8505710000172	1.0	['1', 'return']	[2.205646600021282, 2.701823900017189]	5.99	5.91	2.0	10hz	low_pain	45.5			sub-039	250	39	45.5	47.2	COM11	COM15	COM3	2024-06-05_10h53.03.735	001-EEG_SVR_Officel	2022.2.5	142.70383816748523		5.9879999999999995	0_sub-pilot039_SVR_EEG_block1-2.protocol.csv	step31	3829	379.94	STIMULATE	45.7	45.4	45.4	45.5	45.5	31	404.757
398.874	0	199437	10/Lo	2	0	0	0	0	14.0	0.0	14.0	0.0						417.8499075	423.8505710000172	423.8505710000172	1.0	['1', 'return']	[2.205646600021282, 2.701823900017189]	5.99	5.91	2.0	10hz	low_pain	45.5			sub-039	250	39	45.5	47.2	COM11	COM15	COM3	2024-06-05_10h53.03.735	001-EEG_SVR_Officel	2022.2.5	142.70383816748523		5.910000000000025	0_sub-pilot039_SVR_EEG_block1-2.protocol.csv	step31	3829	379.94	STIMULATE	45.7	45.4	45.4	45.5	45.5	31	404.757
407.944	0	203972	wait	20	0	0	0	0	15.0	0.0	15.0	0.0						439.56787980001536	445.4982779000129	445.4982779000129	5.0	['5', 'return']	[2.516151499992702, 2.9727994999848306]	5.92	5.63	3.0	controle	high_pain	47.2			sub-039	250	39	45.5	47.2	COM11	COM15	COM3	2024-06-05_10h53.03.735	001-EEG_SVR_Officel	2022.2.5	142.70383816748523		9.819999999999993	0_sub-pilot039_SVR_EEG_block1-2.protocol.csv	step33	4045	401.366	STIMULATE	47.4	47.2	47.2	47.2	47.2	33	426.183
413.864	0	206932	CNhz	12	0	0	0	0	15.0	0.0	15.0	0.0						439.56787980001536	445.4982779000129	445.4982779000129	5.0	['5', 'return']	[2.516151499992702, 2.9727994999848306]	5.92	5.63	3.0	controle	high_pain	47.2			sub-039	250	39	45.5	47.2	COM11	COM15	COM3	2024-06-05_10h53.03.735	001-EEG_SVR_Officel	2022.2.5	142.70383816748523		5.919999999999959	0_sub-pilot039_SVR_EEG_block1-2.protocol.csv	step33	4045	401.366	STIMULATE	47.4	47.2	47.2	47.2	47.2	33	426.183
420.244	0	210122	CN/Hi	10	0	0	0	0	15.0	0.0	15.0	0.0						439.56787980001536	445.4982779000129	445.4982779000129	5.0	['5', 'return']	[2.516151499992702, 2.9727994999848306]	5.92	5.63	3.0	controle	high_pain	47.2			sub-039	250	39	45.5	47.2	COM11	COM15	COM3	2024-06-05_10h53.03.735	001-EEG_SVR_Officel	2022.2.5	142.70383816748523		5.630000000000052	0_sub-pilot039_SVR_EEG_block1-2.protocol.csv	step33	4045	401.366	STIMULATE	47.4	47.2	47.2	47.2	47.2	33	426.183
496.566	0	248283	wait	20	1	0	1	0	0.0	0.0	0.0	0.0				p	1.2236713000165764	528.1889841000084	536.0510689000075	536.0510689000075	1.0	['1', 'return']	[2.4440186000138056, 3.0282464000047185]	7.85	5.08	0.0	20hz	low_pain	45.5			sub-039	250	39	45.5	47.2	COM11	COM15	COM3	2024-06-05_10h53.03.735	001-EEG_SVR_Officel	2022.2.5	142.70383816748523		77.07199999999995	0_sub-pilot039_SVR_EEG_block1-2.protocol.csv	step35	4947	491.375	STIMULATE	45.7	45.4	45.4	45.4	45.4	35	516.174
504.414	0	252207	20hz	6	1	0	1	0	0.0	0.0	0.0	0.0				p	1.2236713000165764	528.1889841000084	536.0510689000075	536.0510689000075	1.0	['1', 'return']	[2.4440186000138056, 3.0282464000047185]	7.85	5.08	0.0	20hz	low_pain	45.5			sub-039	250	39	45.5	47.2	COM11	COM15	COM3	2024-06-05_10h53.03.735	001-EEG_SVR_Officel	2022.2.5	142.70383816748523		7.848000000000013	0_sub-pilot039_SVR_EEG_block1-2.protocol.csv	step35	4947	491.375	STIMULATE	45.7	45.4	45.4	45.4	45.4	35	516.174
510.248	0	255124	20/Lo	5	1	0	1	0	0.0	0.0	0.0	0.0				p	1.2236713000165764	528.1889841000084	536.0510689000075	536.0510689000075	1.0	['1', 'return']	[2.4440186000138056, 3.0282464000047185]	7.85	5.08	0.0	20hz	low_pain	45.5			sub-039	250	39	45.5	47.2	COM11	COM15	COM3	2024-06-05_10h53.03.735	001-EEG_SVR_Officel	2022.2.5	142.70383816748523		5.084000000000003	0_sub-pilot039_SVR_EEG_block1-2.protocol.csv	step35	4947	491.375	STIMULATE	45.7	45.4	45.4	45.4	45.4	35	516.174
520.47	0	260235	wait	20	1	0	1	0	1.0	0.0	1.0	0.0						552.0950934000139	558.8943817999971	558.8943817999971	2.0	['2', 'return']	[2.616699600010179, 3.0660593000066]	6.79	5.71	1.0	20hz	low_pain	45.5			sub-039	250	39	45.5	47.2	COM11	COM15	COM3	2024-06-05_10h53.03.735	001-EEG_SVR_Officel	2022.2.5	142.70383816748523		10.972000000000037	0_sub-pilot039_SVR_EEG_block1-2.protocol.csv	step37	5183	514.77	STIMULATE	45.6	45.4	45.4	45.4	45.5	37	539.569
527.258	0	263629	20hz	6	1	0	1	0	1.0	0.0	1.0	0.0						552.0950934000139	558.8943817999971	558.8943817999971	2.0	['2', 'return']	[2.616699600010179, 3.0660593000066]	6.79	5.71	1.0	20hz	low_pain	45.5			sub-039	250	39	45.5	47.2	COM11	COM15	COM3	2024-06-05_10h53.03.735	001-EEG_SVR_Officel	2022.2.5	142.70383816748523		6.788000000000011	0_sub-pilot039_SVR_EEG_block1-2.protocol.csv	step37	5183	514.77	STIMULATE	45.6	45.4	45.4	45.4	45.5	37	539.569
533.722	0	266861	20/Lo	5	1	0	1	0	1.0	0.0	1.0	0.0						552.0950934000139	558.8943817999971	558.8943817999971	2.0	['2', 'return']	[2.616699600010179, 3.0660593000066]	6.79	5.71	1.0	20hz	low_pain	45.5			sub-039	250	39	45.5	47.2	COM11	COM15	COM3	2024-06-05_10h53.03.735	001-EEG_SVR_Officel	2022.2.5	142.70383816748523		5.713999999999942	0_sub-pilot039_SVR_EEG_block1-2.protocol.csv	step37	5183	514.77	STIMULATE	45.6	45.4	45.4	45.4	45.5	37	539.569
543.348	0	271674	wait	20	1	0	1	0	2.0	0.0	2.0	0.0						574.9722968999995	580.910566400009	580.910566400009	4.0	['4', 'return']	[2.424775799998315, 3.0651504999841563]	5.93	5.96	2.0	20hz	high_pain	47.2			sub-039	250	39	45.5	47.2	COM11	COM15	COM3	2024-06-05_10h53.03.735	001-EEG_SVR_Officel	2022.2.5	142.70383816748523		10.375999999999976	0_sub-pilot039_SVR_EEG_block1-2.protocol.csv	step39	5409	537.129	STIMULATE	47.2	47.1	47.2	47.2	47.2	39	561.928
549.274	0	274637	20hz	6	1	0	1	0	2.0	0.0	2.0	0.0						574.9722968999995	580.910566400009	580.910566400009	4.0	['4', 'return']	[2.424775799998315, 3.0651504999841563]	5.93	5.96	2.0	20hz	high_pain	47.2			sub-039	250	39	45.5	47.2	COM11	COM15	COM3	2024-06-05_10h53.03.735	001-EEG_SVR_Officel	2022.2.5	142.70383816748523		5.926000000000045	0_sub-pilot039_SVR_EEG_block1-2.protocol.csv	step39	5409	537.129	STIMULATE	47.2	47.1	47.2	47.2	47.2	39	561.928
555.988	0	277994	20/Hi	4	1	0	1	0	2.0	0.0	2.0	0.0						574.9722968999995	580.910566400009	580.910566400009	4.0	['4', 'return']	[2.424775799998315, 3.0651504999841563]	5.93	5.96	2.0	20hz	high_pain	47.2			sub-039	250	39	45.5	47.2	COM11	COM15	COM3	2024-06-05_10h53.03.735	001-EEG_SVR_Officel	2022.2.5	142.70383816748523		5.9640000000000555	0_sub-pilot039_SVR_EEG_block1-2.protocol.csv	step39	5409	537.129	STIMULATE	47.2	47.1	47.2	47.2	47.2	39	561.928
565.364	0	282682	wait	20	1	0	1	0	3.0	0.0	3.0	0.0						596.9891452000011	603.4201433999988	603.4201433999988	5.0	['5', 'return']	[2.779382499982603, 3.3232488999783527]	6.42	6.26	3.0	10hz	high_pain	47.2			sub-039	250	39	45.5	47.2	COM11	COM15	COM3	2024-06-05_10h53.03.735	001-EEG_SVR_Officel	2022.2.5	142.70383816748523		10.125999999999976	0_sub-pilot039_SVR_EEG_block1-2.protocol.csv	step41	5639	559.957	STIMULATE	47.4	47.2	47.1	47.2	47.2	41	584.756
571.784	0	285892	10hz	3	1	0	1	0	3.0	0.0	3.0	0.0						596.9891452000011	603.4201433999988	603.4201433999988	5.0	['5', 'return']	[2.779382499982603, 3.3232488999783527]	6.42	6.26	3.0	10hz	high_pain	47.2			sub-039	250	39	45.5	47.2	COM11	COM15	COM3	2024-06-05_10h53.03.735	001-EEG_SVR_Officel	2022.2.5	142.70383816748523		6.419999999999959	0_sub-pilot039_SVR_EEG_block1-2.protocol.csv	step41	5639	559.957	STIMULATE	47.4	47.2	47.1	47.2	47.2	41	584.756
578.798	0	289399	10/Hi	1	1	0	1	0	3.0	0.0	3.0	0.0						596.9891452000011	603.4201433999988	603.4201433999988	5.0	['5', 'return']	[2.779382499982603, 3.3232488999783527]	6.42	6.26	3.0	10hz	high_pain	47.2			sub-039	250	39	45.5	47.2	COM11	COM15	COM3	2024-06-05_10h53.03.735	001-EEG_SVR_Officel	2022.2.5	142.70383816748523		6.26400000000001	0_sub-pilot039_SVR_EEG_block1-2.protocol.csv	step41	5639	559.957	STIMULATE	47.4	47.2	47.1	47.2	47.2	41	584.756
588.138	0	294069	wait	20	1	0	1	0	4.0	0.0	4.0	0.0						619.7623994000023	624.7692988000053	624.7692988000053	1.0	['1', 'return']	[2.965981199988164, 3.5250445999845397]	5.0	5.67	0.0	10hz	low_pain	45.5			sub-039	250	39	45.5	47.2	COM11	COM15	COM3	2024-06-05_10h53.03.735	001-EEG_SVR_Officel	2022.2.5	142.70383816748523		10.090000000000032	0_sub-pilot039_SVR_EEG_block1-2.protocol.csv	step43	5848	580.678	STIMULATE	45.6	45.4	45.4	45.4	45.5	43	605.477
593.132	0	296566	10hz	3	1	0	1	0	4.0	0.0	4.0	0.0						619.7623994000023	624.7692988000053	624.7692988000053	1.0	['1', 'return']	[2.965981199988164, 3.5250445999845397]	5.0	5.67	0.0	10hz	low_pain	45.5			sub-039	250	39	45.5	47.2	COM11	COM15	COM3	2024-06-05_10h53.03.735	001-EEG_SVR_Officel	2022.2.5	142.70383816748523		4.9939999999999145	0_sub-pilot039_SVR_EEG_block1-2.protocol.csv	step43	5848	580.678	STIMULATE	45.6	45.4	45.4	45.4	45.5	43	605.477
599.556	0	299778	10/Lo	2	1	0	1	0	4.0	0.0	4.0	0.0						619.7623994000023	624.7692988000053	624.7692988000053	1.0	['1', 'return']	[2.965981199988164, 3.5250445999845397]	5.0	5.67	0.0	10hz	low_pain	45.5			sub-039	250	39	45.5	47.2	COM11	COM15	COM3	2024-06-05_10h53.03.735	001-EEG_SVR_Officel	2022.2.5	142.70383816748523		5.674000000000092	0_sub-pilot039_SVR_EEG_block1-2.protocol.csv	step43	5848	580.678	STIMULATE	45.6	45.4	45.4	45.4	45.5	43	605.477
609.688	0	304844	wait	20	1	0	1	0	5.0	0.0	5.0	0.0						641.3135610000172	649.231308300019	649.231308300019	5.0	['5', 'return']	[2.4077091999934055, 2.904157300014049]	7.91	5.58	1.0	controle	high_pain	47.2			sub-039	250	39	45.5	47.2	COM11	COM15	COM3	2024-06-05_10h53.03.735	001-EEG_SVR_Officel	2022.2.5	142.70383816748523		10.881999999999948	0_sub-pilot039_SVR_EEG_block1-2.protocol.csv	step45	6094	605.056	STIMULATE	47.3	47.2	47.2	47.2	47.2	45	629.855
617.594	0	308797	CNhz	12	1	0	1	0	5.0	0.0	5.0	0.0						641.3135610000172	649.231308300019	649.231308300019	5.0	['5', 'return']	[2.4077091999934055, 2.904157300014049]	7.91	5.58	1.0	controle	high_pain	47.2			sub-039	250	39	45.5	47.2	COM11	COM15	COM3	2024-06-05_10h53.03.735	001-EEG_SVR_Officel	2022.2.5	142.70383816748523		7.906000000000063	0_sub-pilot039_SVR_EEG_block1-2.protocol.csv	step45	6094	605.056	STIMULATE	47.3	47.2	47.2	47.2	47.2	45	629.855
623.926	0	311963	CN/Hi	10	1	0	1	0	5.0	0.0	5.0	0.0						641.3135610000172	649.231308300019	649.231308300019	5.0	['5', 'return']	[2.4077091999934055, 2.904157300014049]	7.91	5.58	1.0	controle	high_pain	47.2			sub-039	250	39	45.5	47.2	COM11	COM15	COM3	2024-06-05_10h53.03.735	001-EEG_SVR_Officel	2022.2.5	142.70383816748523		5.581999999999994	0_sub-pilot039_SVR_EEG_block1-2.protocol.csv	step45	6094	605.056	STIMULATE	47.3	47.2	47.2	47.2	47.2	45	629.855
633.532	0	316766	wait	20	1	0	1	0	6.0	0.0	6.0	0.0						665.1567178000114	673.0744118000148	673.0744118000148	2.0	['2', 'return']	[2.5016195999924093, 3.0283518999931403]	7.91	6.15	2.0	10hz	high_pain	47.2			sub-039	250	39	45.5	47.2	COM11	COM15	COM3	2024-06-05_10h53.03.735	001-EEG_SVR_Officel	2022.2.5	142.70383816748523		10.355999999999995	0_sub-pilot039_SVR_EEG_block1-2.protocol.csv	step47	6339	629.384	STIMULATE	47.3	47.2	47.2	47.2	47.2	47	654.183
641.438	0	320719	10hz	3	1	0	1	0	6.0	0.0	6.0	0.0						665.1567178000114	673.0744118000148	673.0744118000148	2.0	['2', 'return']	[2.5016195999924093, 3.0283518999931403]	7.91	6.15	2.0	10hz	high_pain	47.2			sub-039	250	39	45.5	47.2	COM11	COM15	COM3	2024-06-05_10h53.03.735	001-EEG_SVR_Officel	2022.2.5	142.70383816748523		7.905999999999949	0_sub-pilot039_SVR_EEG_block1-2.protocol.csv	step47	6339	629.384	STIMULATE	47.3	47.2	47.2	47.2	47.2	47	654.183
648.34	0	324170	10/Hi	1	1	0	1	0	6.0	0.0	6.0	0.0						665.1567178000114	673.0744118000148	673.0744118000148	2.0	['2', 'return']	[2.5016195999924093, 3.0283518999931403]	7.91	6.15	2.0	10hz	high_pain	47.2			sub-039	250	39	45.5	47.2	COM11	COM15	COM3	2024-06-05_10h53.03.735	001-EEG_SVR_Officel	2022.2.5	142.70383816748523		6.152000000000044	0_sub-pilot039_SVR_EEG_block1-2.protocol.csv	step47	6339	629.384	STIMULATE	47.3	47.2	47.2	47.2	47.2	47	654.183
657.5	0	328750	wait	20	1	0	1	0	7.0	0.0	7.0	0.0						689.1248946000123	697.0772516000143	697.0772516000143	3.0	['3', 'return']	[2.1873493999883067, 2.817909499979578]	7.94	6.36	3.0	40hz	low_pain	45.5			sub-039	250	39	45.5	47.2	COM11	COM15	COM3	2024-06-05_10h53.03.735	001-EEG_SVR_Officel	2022.2.5	142.70383816748523		9.909999999999968	0_sub-pilot039_SVR_EEG_block1-2.protocol.csv	step49	6584	653.633	STIMULATE	45.5	45.4	45.4	45.5	45.5	49	678.432
665.44	0	332720	40hz	9	1	0	1	0	7.0	0.0	7.0	0.0						689.1248946000123	697.0772516000143	697.0772516000143	3.0	['3', 'return']	[2.1873493999883067, 2.817909499979578]	7.94	6.36	3.0	40hz	low_pain	45.5			sub-039	250	39	45.5	47.2	COM11	COM15	COM3	2024-06-05_10h53.03.735	001-EEG_SVR_Officel	2022.2.5	142.70383816748523		7.940000000000055	0_sub-pilot039_SVR_EEG_block1-2.protocol.csv	step49	6584	653.633	STIMULATE	45.5	45.4	45.4	45.5	45.5	49	678.432
672.55	0	336275	40/Lo	8	1	0	1	0	7.0	0.0	7.0	0.0						689.1248946000123	697.0772516000143	697.0772516000143	3.0	['3', 'return']	[2.1873493999883067, 2.817909499979578]	7.94	6.36	3.0	40hz	low_pain	45.5			sub-039	250	39	45.5	47.2	COM11	COM15	COM3	2024-06-05_10h53.03.735	001-EEG_SVR_Officel	2022.2.5	142.70383816748523		6.3599999999999	0_sub-pilot039_SVR_EEG_block1-2.protocol.csv	step49	6584	653.633	STIMULATE	45.5	45.4	45.4	45.5	45.5	49	678.432
681.28	0	340640	wait	20	1	0	1	0	8.0	0.0	8.0	0.0						712.9047892999952	718.7811966000008	718.7811966000008	3.0	['3', 'return']	[2.827046699996572, 3.3942173999967054]	5.87	5.08	0.0	40hz	low_pain	45.5			sub-039	250	39	45.5	47.2	COM11	COM15	COM3	2024-06-05_10h53.03.735	001-EEG_SVR_Officel	2022.2.5	142.70383816748523		9.480000000000018	0_sub-pilot039_SVR_EEG_block1-2.protocol.csv	step51	6791	674.155	STIMULATE	45.6	45.4	45.4	45.4	45.5	51	698.954
687.146	0	343573	40hz	9	1	0	1	0	8.0	0.0	8.0	0.0						712.9047892999952	718.7811966000008	718.7811966000008	3.0	['3', 'return']	[2.827046699996572, 3.3942173999967054]	5.87	5.08	0.0	40hz	low_pain	45.5			sub-039	250	39	45.5	47.2	COM11	COM15	COM3	2024-06-05_10h53.03.735	001-EEG_SVR_Officel	2022.2.5	142.70383816748523		5.8659999999999854	0_sub-pilot039_SVR_EEG_block1-2.protocol.csv	step51	6791	674.155	STIMULATE	45.6	45.4	45.4	45.4	45.5	51	698.954
692.976	0	346488	40/Lo	8	1	0	1	0	8.0	0.0	8.0	0.0						712.9047892999952	718.7811966000008	718.7811966000008	3.0	['3', 'return']	[2.827046699996572, 3.3942173999967054]	5.87	5.08	0.0	40hz	low_pain	45.5			sub-039	250	39	45.5	47.2	COM11	COM15	COM3	2024-06-05_10h53.03.735	001-EEG_SVR_Officel	2022.2.5	142.70383816748523		5.080000000000041	0_sub-pilot039_SVR_EEG_block1-2.protocol.csv	step51	6791	674.155	STIMULATE	45.6	45.4	45.4	45.4	45.5	51	698.954
703.568	0	351784	wait	20	1	0	1	0	9.0	0.0	9.0	0.0						735.1928207000019	740.5756737999909	740.5756737999909	2.0	['2', 'return']	[2.328249899990624, 2.943800699984422]	5.37	5.57	1.0	controle	low_pain	45.5			sub-039	250	39	45.5	47.2	COM11	COM15	COM3	2024-06-05_10h53.03.735	001-EEG_SVR_Officel	2022.2.5	142.70383816748523		11.341999999999985	0_sub-pilot039_SVR_EEG_block1-2.protocol.csv	step53	7016	696.397	STIMULATE	45.6	45.4	45.4	45.5	45.5	53	721.196
708.94	0	354470	CNhz	12	1	0	1	0	9.0	0.0	9.0	0.0						735.1928207000019	740.5756737999909	740.5756737999909	2.0	['2', 'return']	[2.328249899990624, 2.943800699984422]	5.37	5.57	1.0	controle	low_pain	45.5			sub-039	250	39	45.5	47.2	COM11	COM15	COM3	2024-06-05_10h53.03.735	001-EEG_SVR_Officel	2022.2.5	142.70383816748523		5.372000000000071	0_sub-pilot039_SVR_EEG_block1-2.protocol.csv	step53	7016	696.397	STIMULATE	45.6	45.4	45.4	45.5	45.5	53	721.196
715.256	0	357628	CN/Lo	11	1	0	1	0	9.0	0.0	9.0	0.0						735.1928207000019	740.5756737999909	740.5756737999909	2.0	['2', 'return']	[2.328249899990624, 2.943800699984422]	5.37	5.57	1.0	controle	low_pain	45.5			sub-039	250	39	45.5	47.2	COM11	COM15	COM3	2024-06-05_10h53.03.735	001-EEG_SVR_Officel	2022.2.5	142.70383816748523		5.565999999999917	0_sub-pilot039_SVR_EEG_block1-2.protocol.csv	step53	7016	696.397	STIMULATE	45.6	45.4	45.4	45.5	45.5	53	721.196
724.912	0	362456	wait	20	1	0	1	0	10.0	0.0	10.0	0.0						756.5357371999999	763.0642013000033	763.0642013000033	6.0	['6', 'return']	[2.3186232000007294, 2.8620406000118237]	6.52	5.51	2.0	40hz	high_pain	47.2			sub-039	250	39	45.5	47.2	COM11	COM15	COM3	2024-06-05_10h53.03.735	001-EEG_SVR_Officel	2022.2.5	142.70383816748523		10.406000000000063	0_sub-pilot039_SVR_EEG_block1-2.protocol.csv	step55	7242	718.816	STIMULATE	47.2	47.1	47.2	47.2	47.2	55	743.615
731.426	0	365713	40hz	9	1	0	1	0	10.0	0.0	10.0	0.0						756.5357371999999	763.0642013000033	763.0642013000033	6.0	['6', 'return']	[2.3186232000007294, 2.8620406000118237]	6.52	5.51	2.0	40hz	high_pain	47.2			sub-039	250	39	45.5	47.2	COM11	COM15	COM3	2024-06-05_10h53.03.735	001-EEG_SVR_Officel	2022.2.5	142.70383816748523		6.51400000000001	0_sub-pilot039_SVR_EEG_block1-2.protocol.csv	step55	7242	718.816	STIMULATE	47.2	47.1	47.2	47.2	47.2	55	743.615
737.69	0	368845	40/Hi	7	1	0	1	0	10.0	0.0	10.0	0.0						756.5357371999999	763.0642013000033	763.0642013000033	6.0	['6', 'return']	[2.3186232000007294, 2.8620406000118237]	6.52	5.51	2.0	40hz	high_pain	47.2			sub-039	250	39	45.5	47.2	COM11	COM15	COM3	2024-06-05_10h53.03.735	001-EEG_SVR_Officel	2022.2.5	142.70383816748523		5.51400000000001	0_sub-pilot039_SVR_EEG_block1-2.protocol.csv	step55	7242	718.816	STIMULATE	47.2	47.1	47.2	47.2	47.2	55	743.615
747.324	0	373662	wait	20	1	0	1	0	11.0	0.0	11.0	0.0						778.9486574000039	785.1577576000127	785.1577576000127	2.0	['2', 'return']	[2.408098500018241, 3.128742600005353]	6.2	5.08	3.0	20hz	low_pain	45.5			sub-039	250	39	45.5	47.2	COM11	COM15	COM3	2024-06-05_10h53.03.735	001-EEG_SVR_Officel	2022.2.5	142.70383816748523		10.3839999999999	0_sub-pilot039_SVR_EEG_block1-2.protocol.csv	step57	7460	740.422	STIMULATE	45.5	45.4	45.4	45.5	45.5	57	765.221
753.522	0	376761	20hz	6	1	0	1	0	11.0	0.0	11.0	0.0						778.9486574000039	785.1577576000127	785.1577576000127	2.0	['2', 'return']	[2.408098500018241, 3.128742600005353]	6.2	5.08	3.0	20hz	low_pain	45.5			sub-039	250	39	45.5	47.2	COM11	COM15	COM3	2024-06-05_10h53.03.735	001-EEG_SVR_Officel	2022.2.5	142.70383816748523		6.198000000000093	0_sub-pilot039_SVR_EEG_block1-2.protocol.csv	step57	7460	740.422	STIMULATE	45.5	45.4	45.4	45.5	45.5	57	765.221
759.352	0	379676	20/Lo	5	1	0	1	0	11.0	0.0	11.0	0.0						778.9486574000039	785.1577576000127	785.1577576000127	2.0	['2', 'return']	[2.408098500018241, 3.128742600005353]	6.2	5.08	3.0	20hz	low_pain	45.5			sub-039	250	39	45.5	47.2	COM11	COM15	COM3	2024-06-05_10h53.03.735	001-EEG_SVR_Officel	2022.2.5	142.70383816748523		5.079999999999927	0_sub-pilot039_SVR_EEG_block1-2.protocol.csv	step57	7460	740.422	STIMULATE	45.5	45.4	45.4	45.5	45.5	57	765.221
769.686	0	384843	wait	20	1	0	1	0	12.0	0.0	12.0	0.0						801.312013799994	809.0142578000086	809.0142578000086	1.0	['1', 'return']	[2.6975071000051685, 3.848006099986378]	7.69	5.74	0.0	controle	low_pain	45.5			sub-039	250	39	45.5	47.2	COM11	COM15	COM3	2024-06-05_10h53.03.735	001-EEG_SVR_Officel	2022.2.5	142.70383816748523		11.08400000000006	0_sub-pilot039_SVR_EEG_block1-2.protocol.csv	step59	7708	765.028	STIMULATE	45.6	45.4	45.4	45.4	45.5	59	789.827
777.376	0	388688	CNhz	12	1	0	1	0	12.0	0.0	12.0	0.0						801.312013799994	809.0142578000086	809.0142578000086	1.0	['1', 'return']	[2.6975071000051685, 3.848006099986378]	7.69	5.74	0.0	controle	low_pain	45.5			sub-039	250	39	45.5	47.2	COM11	COM15	COM3	2024-06-05_10h53.03.735	001-EEG_SVR_Officel	2022.2.5	142.70383816748523		7.689999999999941	0_sub-pilot039_SVR_EEG_block1-2.protocol.csv	step59	7708	765.028	STIMULATE	45.6	45.4	45.4	45.4	45.5	59	789.827
783.868	0	391934	CN/Lo	11	1	0	1	0	12.0	0.0	12.0	0.0						801.312013799994	809.0142578000086	809.0142578000086	1.0	['1', 'return']	[2.6975071000051685, 3.848006099986378]	7.69	5.74	0.0	controle	low_pain	45.5			sub-039	250	39	45.5	47.2	COM11	COM15	COM3	2024-06-05_10h53.03.735	001-EEG_SVR_Officel	2022.2.5	142.70383816748523		5.7420000000000755	0_sub-pilot039_SVR_EEG_block1-2.protocol.csv	step59	7708	765.028	STIMULATE	45.6	45.4	45.4	45.4	45.5	59	789.827
794.258	0	397129	wait	20	1	0	1	0	13.0	0.0	13.0	0.0						825.8842070999963	833.7324297000014	833.7324297000014	5.0	['5', 'return']	[2.4264903999865055, 2.818499499990139]	7.84	6.36	1.0	40hz	low_pain	45.5			sub-039	250	39	45.5	47.2	COM11	COM15	COM3	2024-06-05_10h53.03.735	001-EEG_SVR_Officel	2022.2.5	142.70383816748523		11.139999999999986	0_sub-pilot039_SVR_EEG_block1-2.protocol.csv	step61	7962	790.312	STIMULATE	45.6	45.4	45.4	45.5	45.5	61	815.111
802.096	0	401048	40hz	9	1	0	1	0	13.0	0.0	13.0	0.0						825.8842070999963	833.7324297000014	833.7324297000014	5.0	['5', 'return']	[2.4264903999865055, 2.818499499990139]	7.84	6.36	1.0	40hz	low_pain	45.5			sub-039	250	39	45.5	47.2	COM11	COM15	COM3	2024-06-05_10h53.03.735	001-EEG_SVR_Officel	2022.2.5	142.70383816748523		7.837999999999965	0_sub-pilot039_SVR_EEG_block1-2.protocol.csv	step61	7962	790.312	STIMULATE	45.6	45.4	45.4	45.5	45.5	61	815.111
809.204	0	404602	40/Lo	8	1	0	1	0	13.0	0.0	13.0	0.0						825.8842070999963	833.7324297000014	833.7324297000014	5.0	['5', 'return']	[2.4264903999865055, 2.818499499990139]	7.84	6.36	1.0	40hz	low_pain	45.5			sub-039	250	39	45.5	47.2	COM11	COM15	COM3	2024-06-05_10h53.03.735	001-EEG_SVR_Officel	2022.2.5	142.70383816748523		6.357999999999947	0_sub-pilot039_SVR_EEG_block1-2.protocol.csv	step61	7962	790.312	STIMULATE	45.6	45.4	45.4	45.5	45.5	61	815.111
817.942	0	408971	wait	20	1	0	1	0	14.0	0.0	14.0	0.0						849.5675726000045	856.6796617000073	856.6796617000073	4.0	['4', 'return']	[2.543363300006604, 3.0786723000055645]	7.1	6.1	2.0	controle	high_pain	47.2			sub-039	250	39	45.5	47.2	COM11	COM15	COM3	2024-06-05_10h53.03.735	001-EEG_SVR_Officel	2022.2.5	142.70383816748523		9.488000000000056	0_sub-pilot039_SVR_EEG_block1-2.protocol.csv	step63	8185	813.034	STIMULATE	47.3	47.2	47.2	47.2	47.2	63	837.833
825.042	0	412521	CNhz	12	1	0	1	0	14.0	0.0	14.0	0.0						849.5675726000045	856.6796617000073	856.6796617000073	4.0	['4', 'return']	[2.543363300006604, 3.0786723000055645]	7.1	6.1	2.0	controle	high_pain	47.2			sub-039	250	39	45.5	47.2	COM11	COM15	COM3	2024-06-05_10h53.03.735	001-EEG_SVR_Officel	2022.2.5	142.70383816748523		7.100000000000023	0_sub-pilot039_SVR_EEG_block1-2.protocol.csv	step63	8185	813.034	STIMULATE	47.3	47.2	47.2	47.2	47.2	63	837.833
831.896	0	415948	CN/Hi	10	1	0	1	0	14.0	0.0	14.0	0.0						849.5675726000045	856.6796617000073	856.6796617000073	4.0	['4', 'return']	[2.543363300006604, 3.0786723000055645]	7.1	6.1	2.0	controle	high_pain	47.2			sub-039	250	39	45.5	47.2	COM11	COM15	COM3	2024-06-05_10h53.03.735	001-EEG_SVR_Officel	2022.2.5	142.70383816748523		6.103999999999928	0_sub-pilot039_SVR_EEG_block1-2.protocol.csv	step63	8185	813.034	STIMULATE	47.3	47.2	47.2	47.2	47.2	63	837.833
841.154	0	420577	wait	20	1	0	1	0	15.0	0.0	15.0	0.0						872.7793224999914	877.8070651000016	877.8070651000016	2.0	['2', 'return']	[2.4958600999962073, 3.2870708999980707]	5.02	5.03	3.0	10hz	low_pain	45.5			sub-039	250	39	45.5	47.2	COM11	COM15	COM3	2024-06-05_10h53.03.735	001-EEG_SVR_Officel	2022.2.5	142.70383816748523		10.008000000000038	0_sub-pilot039_SVR_EEG_block1-2.protocol.csv	step65	8380	833.136	STIMULATE	45.5	45.4	45.4	45.5	45.5	65	857.935
846.17	0	423085	10hz	3	1	0	1	0	15.0	0.0	15.0	0.0						872.7793224999914	877.8070651000016	877.8070651000016	2.0	['2', 'return']	[2.4958600999962073, 3.2870708999980707]	5.02	5.03	3.0	10hz	low_pain	45.5			sub-039	250	39	45.5	47.2	COM11	COM15	COM3	2024-06-05_10h53.03.735	001-EEG_SVR_Officel	2022.2.5	142.70383816748523		5.015999999999963	0_sub-pilot039_SVR_EEG_block1-2.protocol.csv	step65	8380	833.136	STIMULATE	45.5	45.4	45.4	45.5	45.5	65	857.935
851.952	0	425976	10/Lo	2	1	0	1	0	15.0	0.0	15.0	0.0						872.7793224999914	877.8070651000016	877.8070651000016	2.0	['2', 'return']	[2.4958600999962073, 3.2870708999980707]	5.02	5.03	3.0	10hz	low_pain	45.5			sub-039	250	39	45.5	47.2	COM11	COM15	COM3	2024-06-05_10h53.03.735	001-EEG_SVR_Officel	2022.2.5	142.70383816748523		5.032000000000039	0_sub-pilot039_SVR_EEG_block1-2.protocol.csv	step65	8380	833.136	STIMULATE	45.5	45.4	45.4	45.5	45.5	65	857.935
931.002	0	465501	wait	20	2	0	2	0	0.0	0.0	0.0	0.0				p	0.6269681999983732	962.6284957000172	969.5749639999996	969.5749639999996	7.0	['7', 'return']	[2.511813399993116, 3.023359199985862]	6.94	5.27	0.0	10hz	high_pain	47.2			sub-039	250	39	45.5	47.2	COM11	COM15	COM3	2024-06-05_10h53.03.735	001-EEG_SVR_Officel	2022.2.5	142.70383816748523		79.79999999999995	1_sub-pilot039_SVR_EEG_block3-4.protocol.csv	step3	790	78.823	STIMULATE	47.5	47.2	47.1	47.2	47.2	3	949.707
937.936	0	468968	10hz	3	2	0	2	0	0.0	0.0	0.0	0.0				p	0.6269681999983732	962.6284957000172	969.5749639999996	969.5749639999996	7.0	['7', 'return']	[2.511813399993116, 3.023359199985862]	6.94	5.27	0.0	10hz	high_pain	47.2			sub-039	250	39	45.5	47.2	COM11	COM15	COM3	2024-06-05_10h53.03.735	001-EEG_SVR_Officel	2022.2.5	142.70383816748523		6.934000000000083	1_sub-pilot039_SVR_EEG_block3-4.protocol.csv	step3	790	78.823	STIMULATE	47.5	47.2	47.1	47.2	47.2	3	949.707
943.956	0	471978	10/Hi	1	2	0	2	0	0.0	0.0	0.0	0.0				p	0.6269681999983732	962.6284957000172	969.5749639999996	969.5749639999996	7.0	['7', 'return']	[2.511813399993116, 3.023359199985862]	6.94	5.27	0.0	10hz	high_pain	47.2			sub-039	250	39	45.5	47.2	COM11	COM15	COM3	2024-06-05_10h53.03.735	001-EEG_SVR_Officel	2022.2.5	142.70383816748523		5.269999999999982	1_sub-pilot039_SVR_EEG_block3-4.protocol.csv	step3	790	78.823	STIMULATE	47.5	47.2	47.1	47.2	47.2	3	949.707
953.992	0	476996	wait	20	2	0	2	0	1.0	0.0	1.0	0.0						985.6185484000016	991.411021100008	991.411021100008	3.0	['3', 'return']	[2.483467699988978, 3.1728042000031564]	5.78	6.43	1.0	20hz	low_pain	45.5			sub-039	250	39	45.5	47.2	COM11	COM15	COM3	2024-06-05_10h53.03.735	001-EEG_SVR_Officel	2022.2.5	142.70383816748523		10.785999999999945	1_sub-pilot039_SVR_EEG_block3-4.protocol.csv	step5	1023	101.949	STIMULATE	45.5	45.4	45.4	45.5	45.5	5	972.833
959.772	0	479886	20hz	6	2	0	2	0	1.0	0.0	1.0	0.0						985.6185484000016	991.411021100008	991.411021100008	3.0	['3', 'return']	[2.483467699988978, 3.1728042000031564]	5.78	6.43	1.0	20hz	low_pain	45.5			sub-039	250	39	45.5	47.2	COM11	COM15	COM3	2024-06-05_10h53.03.735	001-EEG_SVR_Officel	2022.2.5	142.70383816748523		5.780000000000086	1_sub-pilot039_SVR_EEG_block3-4.protocol.csv	step5	1023	101.949	STIMULATE	45.5	45.4	45.4	45.5	45.5	5	972.833
966.952	0	483476	20/Lo	5	2	0	2	0	1.0	0.0	1.0	0.0						985.6185484000016	991.411021100008	991.411021100008	3.0	['3', 'return']	[2.483467699988978, 3.1728042000031564]	5.78	6.43	1.0	20hz	low_pain	45.5			sub-039	250	39	45.5	47.2	COM11	COM15	COM3	2024-06-05_10h53.03.735	001-EEG_SVR_Officel	2022.2.5	142.70383816748523		6.42999999999995	1_sub-pilot039_SVR_EEG_block3-4.protocol.csv	step5	1023	101.949	STIMULATE	45.5	45.4	45.4	45.5	45.5	5	972.833
975.966	0	487983	wait	20	2	0	2	0	2.0	0.0	2.0	0.0						1007.5938024999924	1013.5944535000016	1013.5944535000016	1.0	['1', 'return']	[1.9898274000152014, 2.6145650999969803]	5.99	5.12	2.0	10hz	low_pain	45.5			sub-039	250	39	45.5	47.2	COM11	COM15	COM3	2024-06-05_10h53.03.735	001-EEG_SVR_Officel	2022.2.5	142.70383816748523		9.76400000000001	1_sub-pilot039_SVR_EEG_block3-4.protocol.csv	step7	1234	122.84	STIMULATE	45.5	45.4	45.5	45.4	45.4	7	993.724
981.956	0	490978	10hz	3	2	0	2	0	2.0	0.0	2.0	0.0						1007.5938024999924	1013.5944535000016	1013.5944535000016	1.0	['1', 'return']	[1.9898274000152014, 2.6145650999969803]	5.99	5.12	2.0	10hz	low_pain	45.5			sub-039	250	39	45.5	47.2	COM11	COM15	COM3	2024-06-05_10h53.03.735	001-EEG_SVR_Officel	2022.2.5	142.70383816748523		5.990000000000009	1_sub-pilot039_SVR_EEG_block3-4.protocol.csv	step7	1234	122.84	STIMULATE	45.5	45.4	45.5	45.4	45.4	7	993.724
987.83	0	493915	10/Lo	2	2	0	2	0	2.0	0.0	2.0	0.0						1007.5938024999924	1013.5944535000016	1013.5944535000016	1.0	['1', 'return']	[1.9898274000152014, 2.6145650999969803]	5.99	5.12	2.0	10hz	low_pain	45.5			sub-039	250	39	45.5	47.2	COM11	COM15	COM3	2024-06-05_10h53.03.735	001-EEG_SVR_Officel	2022.2.5	142.70383816748523		5.124000000000024	1_sub-pilot039_SVR_EEG_block3-4.protocol.csv	step7	1234	122.84	STIMULATE	45.5	45.4	45.5	45.4	45.4	7	993.724
997.602	0	498801	wait	20	2	0	2	0	3.0	0.0	3.0	0.0						1029.2286032999982	1035.1109033999965	1035.1109033999965	3.0	['3', 'return']	[2.7278885999985505, 3.5045429000165313]	5.87	5.21	3.0	40hz	low_pain	45.5			sub-039	250	39	45.5	47.2	COM11	COM15	COM3	2024-06-05_10h53.03.735	001-EEG_SVR_Officel	2022.2.5	142.70383816748523		10.521999999999935	1_sub-pilot039_SVR_EEG_block3-4.protocol.csv	step9	1452	144.412	STIMULATE	45.5	45.4	45.4	45.4	45.5	9	1015.296
1003.472	0	501736	40hz	9	2	0	2	0	3.0	0.0	3.0	0.0						1029.2286032999982	1035.1109033999965	1035.1109033999965	3.0	['3', 'return']	[2.7278885999985505, 3.5045429000165313]	5.87	5.21	3.0	40hz	low_pain	45.5			sub-039	250	39	45.5	47.2	COM11	COM15	COM3	2024-06-05_10h53.03.735	001-EEG_SVR_Officel	2022.2.5	142.70383816748523		5.8700000000000045	1_sub-pilot039_SVR_EEG_block3-4.protocol.csv	step9	1452	144.412	STIMULATE	45.5	45.4	45.4	45.4	45.5	9	1015.296
1009.436	0	504718	40/Lo	8	2	0	2	0	3.0	0.0	3.0	0.0						1029.2286032999982	1035.1109033999965	1035.1109033999965	3.0	['3', 'return']	[2.7278885999985505, 3.5045429000165313]	5.87	5.21	3.0	40hz	low_pain	45.5			sub-039	250	39	45.5	47.2	COM11	COM15	COM3	2024-06-05_10h53.03.735	001-EEG_SVR_Officel	2022.2.5	142.70383816748523		5.2140000000000555	1_sub-pilot039_SVR_EEG_block3-4.protocol.csv	step9	1452	144.412	STIMULATE	45.5	45.4	45.4	45.4	45.5	9	1015.296
1020.006	0	510003	wait	20	2	0	2	0	4.0	0.0	4.0	0.0						1051.6333814999962	1058.224393100012	1058.224393100012	9.0	['9', 'return']	[3.2860021999804303, 3.7988435000006575]	6.58	5.64	0.0	controle	high_pain	47.2			sub-039	250	39	45.5	47.2	COM11	COM15	COM3	2024-06-05_10h53.03.735	001-EEG_SVR_Officel	2022.2.5	142.70383816748523		11.319999999999936	1_sub-pilot039_SVR_EEG_block3-4.protocol.csv	step11	1689	167.916	STIMULATE	47.2	47.2	47.2	47.2	47.2	11	1038.8
1026.586	0	513293	CNhz	12	2	0	2	0	4.0	0.0	4.0	0.0						1051.6333814999962	1058.224393100012	1058.224393100012	9.0	['9', 'return']	[3.2860021999804303, 3.7988435000006575]	6.58	5.64	0.0	controle	high_pain	47.2			sub-039	250	39	45.5	47.2	COM11	COM15	COM3	2024-06-05_10h53.03.735	001-EEG_SVR_Officel	2022.2.5	142.70383816748523		6.580000000000041	1_sub-pilot039_SVR_EEG_block3-4.protocol.csv	step11	1689	167.916	STIMULATE	47.2	47.2	47.2	47.2	47.2	11	1038.8
1032.98	0	516490	CN/Hi	10	2	0	2	0	4.0	0.0	4.0	0.0						1051.6333814999962	1058.224393100012	1058.224393100012	9.0	['9', 'return']	[3.2860021999804303, 3.7988435000006575]	6.58	5.64	0.0	controle	high_pain	47.2			sub-039	250	39	45.5	47.2	COM11	COM15	COM3	2024-06-05_10h53.03.735	001-EEG_SVR_Officel	2022.2.5	142.70383816748523		5.6440000000000055	1_sub-pilot039_SVR_EEG_block3-4.protocol.csv	step11	1689	167.916	STIMULATE	47.2	47.2	47.2	47.2	47.2	11	1038.8
1043.412	0	521706	wait	20	2	0	2	0	5.0	0.0	5.0	0.0						1075.0389018999997	1080.9078040000168	1080.9078040000168	10.0	['1', '0', 'return']	[3.0270883000048343, 3.4669213999877684, 4.018418299994664]	5.86	6.25	1.0	20hz	high_pain	47.2			sub-039	250	39	45.5	47.2	COM11	COM15	COM3	2024-06-05_10h53.03.735	001-EEG_SVR_Officel	2022.2.5	142.70383816748523		11.182000000000016	1_sub-pilot039_SVR_EEG_block3-4.protocol.csv	step13	1924	191.23	STIMULATE	47.2	47.2	47.2	47.1	47.2	13	1062.114
1049.268	0	524634	20hz	6	2	0	2	0	5.0	0.0	5.0	0.0						1075.0389018999997	1080.9078040000168	1080.9078040000168	10.0	['1', '0', 'return']	[3.0270883000048343, 3.4669213999877684, 4.018418299994664]	5.86	6.25	1.0	20hz	high_pain	47.2			sub-039	250	39	45.5	47.2	COM11	COM15	COM3	2024-06-05_10h53.03.735	001-EEG_SVR_Officel	2022.2.5	142.70383816748523		5.8559999999999945	1_sub-pilot039_SVR_EEG_block3-4.protocol.csv	step13	1924	191.23	STIMULATE	47.2	47.2	47.2	47.1	47.2	13	1062.114
1056.268	0	528134	20/Hi	4	2	0	2	0	5.0	0.0	5.0	0.0						1075.0389018999997	1080.9078040000168	1080.9078040000168	10.0	['1', '0', 'return']	[3.0270883000048343, 3.4669213999877684, 4.018418299994664]	5.86	6.25	1.0	20hz	high_pain	47.2			sub-039	250	39	45.5	47.2	COM11	COM15	COM3	2024-06-05_10h53.03.735	001-EEG_SVR_Officel	2022.2.5	142.70383816748523		6.25	1_sub-pilot039_SVR_EEG_block3-4.protocol.csv	step13	1924	191.23	STIMULATE	47.2	47.2	47.2	47.1	47.2	13	1062.114
1066.31	0	533155	wait	20	2	0	2	0	6.0	0.0	6.0	0.0						1097.937081800017	1103.7438763999962	1103.7438763999962	2.0	['2', 'return']	[2.655154500011122, 3.3587535000115167]	5.8	5.67	2.0	20hz	low_pain	45.5			sub-039	250	39	45.5	47.2	COM11	COM15	COM3	2024-06-05_10h53.03.735	001-EEG_SVR_Officel	2022.2.5	142.70383816748523		10.791999999999916	1_sub-pilot039_SVR_EEG_block3-4.protocol.csv	step15	2148	213.483	STIMULATE	45.5	45.4	45.5	45.5	45.5	15	1084.367
1072.104	0	536052	20hz	6	2	0	2	0	6.0	0.0	6.0	0.0						1097.937081800017	1103.7438763999962	1103.7438763999962	2.0	['2', 'return']	[2.655154500011122, 3.3587535000115167]	5.8	5.67	2.0	20hz	low_pain	45.5			sub-039	250	39	45.5	47.2	COM11	COM15	COM3	2024-06-05_10h53.03.735	001-EEG_SVR_Officel	2022.2.5	142.70383816748523		5.794000000000096	1_sub-pilot039_SVR_EEG_block3-4.protocol.csv	step15	2148	213.483	STIMULATE	45.5	45.4	45.5	45.5	45.5	15	1084.367
1078.528	0	539264	20/Lo	5	2	0	2	0	6.0	0.0	6.0	0.0						1097.937081800017	1103.7438763999962	1103.7438763999962	2.0	['2', 'return']	[2.655154500011122, 3.3587535000115167]	5.8	5.67	2.0	20hz	low_pain	45.5			sub-039	250	39	45.5	47.2	COM11	COM15	COM3	2024-06-05_10h53.03.735	001-EEG_SVR_Officel	2022.2.5	142.70383816748523		5.673999999999978	1_sub-pilot039_SVR_EEG_block3-4.protocol.csv	step15	2148	213.483	STIMULATE	45.5	45.4	45.5	45.5	45.5	15	1084.367
1088.494	0	544247	wait	20	2	0	2	0	7.0	0.0	7.0	0.0						1120.1208101999946	1125.8505675000197	1125.8505675000197	2.0	['2', 'return']	[2.8357132999808528, 3.4688114000018686]	5.72	5.51	3.0	10hz	low_pain	45.5			sub-039	250	39	45.5	47.2	COM11	COM15	COM3	2024-06-05_10h53.03.735	001-EEG_SVR_Officel	2022.2.5	142.70383816748523		10.715999999999894	1_sub-pilot039_SVR_EEG_block3-4.protocol.csv	step17	2371	235.506	STIMULATE	45.5	45.5	45.4	45.4	45.5	17	1106.39
1094.212	0	547106	10hz	3	2	0	2	0	7.0	0.0	7.0	0.0						1120.1208101999946	1125.8505675000197	1125.8505675000197	2.0	['2', 'return']	[2.8357132999808528, 3.4688114000018686]	5.72	5.51	3.0	10hz	low_pain	45.5			sub-039	250	39	45.5	47.2	COM11	COM15	COM3	2024-06-05_10h53.03.735	001-EEG_SVR_Officel	2022.2.5	142.70383816748523		5.718000000000075	1_sub-pilot039_SVR_EEG_block3-4.protocol.csv	step17	2371	235.506	STIMULATE	45.5	45.5	45.4	45.4	45.5	17	1106.39
1100.474	0	550237	10/Lo	2	2	0	2	0	7.0	0.0	7.0	0.0						1120.1208101999946	1125.8505675000197	1125.8505675000197	2.0	['2', 'return']	[2.8357132999808528, 3.4688114000018686]	5.72	5.51	3.0	10hz	low_pain	45.5			sub-039	250	39	45.5	47.2	COM11	COM15	COM3	2024-06-05_10h53.03.735	001-EEG_SVR_Officel	2022.2.5	142.70383816748523		5.511999999999944	1_sub-pilot039_SVR_EEG_block3-4.protocol.csv	step17	2371	235.506	STIMULATE	45.5	45.5	45.4	45.4	45.5	17	1106.39
1110.712	0	555356	wait	20	2	0	2	0	8.0	0.0	8.0	0.0						1142.33926790001	1148.666151900019	1148.666151900019	2.0	['2', 'return']	[2.836590699997032, 3.7169472000095993]	6.32	6.49	0.0	20hz	low_pain	45.5			sub-039	250	39	45.5	47.2	COM11	COM15	COM3	2024-06-05_10h53.03.735	001-EEG_SVR_Officel	2022.2.5	142.70383816748523		10.988000000000056	1_sub-pilot039_SVR_EEG_block3-4.protocol.csv	step19	2610	259.214	STIMULATE	45.4	45.4	45.4	45.4	45.7	19	1130.098
1117.026	0	558513	20hz	6	2	0	2	0	8.0	0.0	8.0	0.0						1142.33926790001	1148.666151900019	1148.666151900019	2.0	['2', 'return']	[2.836590699997032, 3.7169472000095993]	6.32	6.49	0.0	20hz	low_pain	45.5			sub-039	250	39	45.5	47.2	COM11	COM15	COM3	2024-06-05_10h53.03.735	001-EEG_SVR_Officel	2022.2.5	142.70383816748523		6.314000000000078	1_sub-pilot039_SVR_EEG_block3-4.protocol.csv	step19	2610	259.214	STIMULATE	45.4	45.4	45.4	45.4	45.7	19	1130.098
1124.27	0	562135	20/Lo	5	2	0	2	0	8.0	0.0	8.0	0.0						1142.33926790001	1148.666151900019	1148.666151900019	2.0	['2', 'return']	[2.836590699997032, 3.7169472000095993]	6.32	6.49	0.0	20hz	low_pain	45.5			sub-039	250	39	45.5	47.2	COM11	COM15	COM3	2024-06-05_10h53.03.735	001-EEG_SVR_Officel	2022.2.5	142.70383816748523		6.4939999999999145	1_sub-pilot039_SVR_EEG_block3-4.protocol.csv	step19	2610	259.214	STIMULATE	45.4	45.4	45.4	45.4	45.7	19	1130.098
1133.776	0	566888	wait	20	2	0	2	0	9.0	0.0	9.0	0.0						1165.404000600014	1172.0643713000172	1172.0643713000172	7.0	['7', 'return']	[2.4707629999902565, 3.0397003999969456]	6.65	5.4	1.0	controle	high_pain	47.2			sub-039	250	39	45.5	47.2	COM11	COM15	COM3	2024-06-05_10h53.03.735	001-EEG_SVR_Officel	2022.2.5	142.70383816748523		10.256000000000085	1_sub-pilot039_SVR_EEG_block3-4.protocol.csv	step21	2835	281.585	STIMULATE	47.2	47.2	47.2	47.2	47.4	21	1152.469
1140.424	0	570212	CNhz	12	2	0	2	0	9.0	0.0	9.0	0.0						1165.404000600014	1172.0643713000172	1172.0643713000172	7.0	['7', 'return']	[2.4707629999902565, 3.0397003999969456]	6.65	5.4	1.0	controle	high_pain	47.2			sub-039	250	39	45.5	47.2	COM11	COM15	COM3	2024-06-05_10h53.03.735	001-EEG_SVR_Officel	2022.2.5	142.70383816748523		6.647999999999911	1_sub-pilot039_SVR_EEG_block3-4.protocol.csv	step21	2835	281.585	STIMULATE	47.2	47.2	47.2	47.2	47.4	21	1152.469
1146.576	0	573288	CN/Hi	10	2	0	2	0	9.0	0.0	9.0	0.0						1165.404000600014	1172.0643713000172	1172.0643713000172	7.0	['7', 'return']	[2.4707629999902565, 3.0397003999969456]	6.65	5.4	1.0	controle	high_pain	47.2			sub-039	250	39	45.5	47.2	COM11	COM15	COM3	2024-06-05_10h53.03.735	001-EEG_SVR_Officel	2022.2.5	142.70383816748523		5.402000000000044	1_sub-pilot039_SVR_EEG_block3-4.protocol.csv	step21	2835	281.585	STIMULATE	47.2	47.2	47.2	47.2	47.4	21	1152.469
1156.5	0	578250	wait	20	2	0	2	0	10.0	0.0	10.0	0.0						1188.1289280999918	1193.796300799993	1193.796300799993	4.0	['4', 'return']	[2.4266689000069164, 3.0030528999923263]	5.66	5.17	2.0	10hz	high_pain	47.2			sub-039	250	39	45.5	47.2	COM11	COM15	COM3	2024-06-05_10h53.03.735	001-EEG_SVR_Officel	2022.2.5	142.70383816748523		10.673999999999978	1_sub-pilot039_SVR_EEG_block3-4.protocol.csv	step23	3053	303.116	STIMULATE	47.2	47.1	47.2	47.2	47.2	23	1174.0
1162.156	0	581078	10hz	3	2	0	2	0	10.0	0.0	10.0	0.0						1188.1289280999918	1193.796300799993	1193.796300799993	4.0	['4', 'return']	[2.4266689000069164, 3.0030528999923263]	5.66	5.17	2.0	10hz	high_pain	47.2			sub-039	250	39	45.5	47.2	COM11	COM15	COM3	2024-06-05_10h53.03.735	001-EEG_SVR_Officel	2022.2.5	142.70383816748523		5.655999999999949	1_sub-pilot039_SVR_EEG_block3-4.protocol.csv	step23	3053	303.116	STIMULATE	47.2	47.1	47.2	47.2	47.2	23	1174.0
1168.078	0	584039	10/Hi	1	2	0	2	0	10.0	0.0	10.0	0.0						1188.1289280999918	1193.796300799993	1193.796300799993	4.0	['4', 'return']	[2.4266689000069164, 3.0030528999923263]	5.66	5.17	2.0	10hz	high_pain	47.2			sub-039	250	39	45.5	47.2	COM11	COM15	COM3	2024-06-05_10h53.03.735	001-EEG_SVR_Officel	2022.2.5	142.70383816748523		5.1720000000000255	1_sub-pilot039_SVR_EEG_block3-4.protocol.csv	step23	3053	303.116	STIMULATE	47.2	47.1	47.2	47.2	47.2	23	1174.0
1178.192	0	589096	wait	20	2	0	2	0	11.0	0.0	11.0	0.0						1209.8188743999926	1216.2294139000005	1216.2294139000005	2.0	['2', 'return']	[2.9063279000110924, 4.714537799998652]	6.4	6.12	3.0	20hz	low_pain	45.5			sub-039	250	39	45.5	47.2	COM11	COM15	COM3	2024-06-05_10h53.03.735	001-EEG_SVR_Officel	2022.2.5	142.70383816748523		10.864000000000033	1_sub-pilot039_SVR_EEG_block3-4.protocol.csv	step25	3288	326.432	STIMULATE	45.5	45.4	45.5	45.5	45.5	25	1197.316
1184.59	0	592295	20hz	6	2	0	2	0	11.0	0.0	11.0	0.0						1209.8188743999926	1216.2294139000005	1216.2294139000005	2.0	['2', 'return']	[2.9063279000110924, 4.714537799998652]	6.4	6.12	3.0	20hz	low_pain	45.5			sub-039	250	39	45.5	47.2	COM11	COM15	COM3	2024-06-05_10h53.03.735	001-EEG_SVR_Officel	2022.2.5	142.70383816748523		6.397999999999911	1_sub-pilot039_SVR_EEG_block3-4.protocol.csv	step25	3288	326.432	STIMULATE	45.5	45.4	45.5	45.5	45.5	25	1197.316
1191.464	0	595732	20/Lo	5	2	0	2	0	11.0	0.0	11.0	0.0						1209.8188743999926	1216.2294139000005	1216.2294139000005	2.0	['2', 'return']	[2.9063279000110924, 4.714537799998652]	6.4	6.12	3.0	20hz	low_pain	45.5			sub-039	250	39	45.5	47.2	COM11	COM15	COM3	2024-06-05_10h53.03.735	001-EEG_SVR_Officel	2022.2.5	142.70383816748523		6.124000000000024	1_sub-pilot039_SVR_EEG_block3-4.protocol.csv	step25	3288	326.432	STIMULATE	45.5	45.4	45.5	45.5	45.5	25	1197.316
1202.34	0	601170	wait	20	2	0	2	0	12.0	0.0	12.0	0.0						1233.9676185999997	1240.6837057000084	1240.6837057000084	2.0	['2', 'return']	[3.8115216000005603, 4.451699199998984]	6.71	6.16	0.0	10hz	low_pain	45.5			sub-039	250	39	45.5	47.2	COM11	COM15	COM3	2024-06-05_10h53.03.735	001-EEG_SVR_Officel	2022.2.5	142.70383816748523		11.625999999999976	1_sub-pilot039_SVR_EEG_block3-4.protocol.csv	step27	3535	350.926	STIMULATE	45.5	45.4	45.4	45.4	45.6	27	1221.81
1209.044	0	604522	10hz	3	2	0	2	0	12.0	0.0	12.0	0.0						1233.9676185999997	1240.6837057000084	1240.6837057000084	2.0	['2', 'return']	[3.8115216000005603, 4.451699199998984]	6.71	6.16	0.0	10hz	low_pain	45.5			sub-039	250	39	45.5	47.2	COM11	COM15	COM3	2024-06-05_10h53.03.735	001-EEG_SVR_Officel	2022.2.5	142.70383816748523		6.704000000000178	1_sub-pilot039_SVR_EEG_block3-4.protocol.csv	step27	3535	350.926	STIMULATE	45.5	45.4	45.4	45.4	45.6	27	1221.81
1215.952	0	607976	10/Lo	2	2	0	2	0	12.0	0.0	12.0	0.0						1233.9676185999997	1240.6837057000084	1240.6837057000084	2.0	['2', 'return']	[3.8115216000005603, 4.451699199998984]	6.71	6.16	0.0	10hz	low_pain	45.5			sub-039	250	39	45.5	47.2	COM11	COM15	COM3	2024-06-05_10h53.03.735	001-EEG_SVR_Officel	2022.2.5	142.70383816748523		6.157999999999902	1_sub-pilot039_SVR_EEG_block3-4.protocol.csv	step27	3535	350.926	STIMULATE	45.5	45.4	45.4	45.4	45.6	27	1221.81
1226.524	0	613262	wait	20	2	0	2	0	13.0	0.0	13.0	0.0						1258.1514202000108	1265.9717509000038	1265.9717509000038	8.0	['8', 'return']	[2.468178100010846, 3.004058199992869]	7.81	5.06	1.0	40hz	high_pain	47.2			sub-039	250	39	45.5	47.2	COM11	COM15	COM3	2024-06-05_10h53.03.735	001-EEG_SVR_Officel	2022.2.5	142.70383816748523		11.321999999999889	1_sub-pilot039_SVR_EEG_block3-4.protocol.csv	step29	3779	375.176	STIMULATE	47.2	47.2	47.2	47.2	47.3	29	1246.06
1234.332	0	617166	40hz	9	2	0	2	0	13.0	0.0	13.0	0.0						1258.1514202000108	1265.9717509000038	1265.9717509000038	8.0	['8', 'return']	[2.468178100010846, 3.004058199992869]	7.81	5.06	1.0	40hz	high_pain	47.2			sub-039	250	39	45.5	47.2	COM11	COM15	COM3	2024-06-05_10h53.03.735	001-EEG_SVR_Officel	2022.2.5	142.70383816748523		7.80800000000022	1_sub-pilot039_SVR_EEG_block3-4.protocol.csv	step29	3779	375.176	STIMULATE	47.2	47.2	47.2	47.2	47.3	29	1246.06
1240.142	0	620071	40/Hi	7	2	0	2	0	13.0	0.0	13.0	0.0						1258.1514202000108	1265.9717509000038	1265.9717509000038	8.0	['8', 'return']	[2.468178100010846, 3.004058199992869]	7.81	5.06	1.0	40hz	high_pain	47.2			sub-039	250	39	45.5	47.2	COM11	COM15	COM3	2024-06-05_10h53.03.735	001-EEG_SVR_Officel	2022.2.5	142.70383816748523		5.059999999999945	1_sub-pilot039_SVR_EEG_block3-4.protocol.csv	step29	3779	375.176	STIMULATE	47.2	47.2	47.2	47.2	47.3	29	1246.06
1250.366	0	625183	wait	20	2	0	2	0	14.0	0.0	14.0	0.0						1281.994549199997	1287.65466510001	1287.65466510001	0.0	['0', 'return']	[2.9040411000023596, 3.84204960000352]	5.65	5.08	2.0	40hz	low_pain	45.5			sub-039	250	39	45.5	47.2	COM11	COM15	COM3	2024-06-05_10h53.03.735	001-EEG_SVR_Officel	2022.2.5	142.70383816748523		10.973999999999933	1_sub-pilot039_SVR_EEG_block3-4.protocol.csv	step31	3998	396.823	STIMULATE	45.5	45.5	45.4	45.4	45.5	31	1267.7069999999999
1256.014	0	628007	40hz	9	2	0	2	0	14.0	0.0	14.0	0.0						1281.994549199997	1287.65466510001	1287.65466510001	0.0	['0', 'return']	[2.9040411000023596, 3.84204960000352]	5.65	5.08	2.0	40hz	low_pain	45.5			sub-039	250	39	45.5	47.2	COM11	COM15	COM3	2024-06-05_10h53.03.735	001-EEG_SVR_Officel	2022.2.5	142.70383816748523		5.647999999999911	1_sub-pilot039_SVR_EEG_block3-4.protocol.csv	step31	3998	396.823	STIMULATE	45.5	45.5	45.4	45.4	45.5	31	1267.7069999999999
1261.846	0	630923	40/Lo	8	2	0	2	0	14.0	0.0	14.0	0.0						1281.994549199997	1287.65466510001	1287.65466510001	0.0	['0', 'return']	[2.9040411000023596, 3.84204960000352]	5.65	5.08	2.0	40hz	low_pain	45.5			sub-039	250	39	45.5	47.2	COM11	COM15	COM3	2024-06-05_10h53.03.735	001-EEG_SVR_Officel	2022.2.5	142.70383816748523		5.082000000000107	1_sub-pilot039_SVR_EEG_block3-4.protocol.csv	step31	3998	396.823	STIMULATE	45.5	45.5	45.4	45.4	45.5	31	1267.7069999999999
1272.896	0	636448	wait	20	2	0	2	0	15.0	0.0	15.0	0.0						1304.5248161999916	1311.8936546000186	1311.8936546000186	2.0	['2', 'return']	[2.818599299993366, 3.465729799994733]	7.36	5.16	3.0	controle	low_pain	45.5			sub-039	250	39	45.5	47.2	COM11	COM15	COM3	2024-06-05_10h53.03.735	001-EEG_SVR_Officel	2022.2.5	142.70383816748523		11.799999999999955	1_sub-pilot039_SVR_EEG_block3-4.protocol.csv	step33	4243	421.175	STIMULATE	45.5	45.4	45.4	45.5	45.5	33	1292.059
1280.252	0	640126	CNhz	12	2	0	2	0	15.0	0.0	15.0	0.0						1304.5248161999916	1311.8936546000186	1311.8936546000186	2.0	['2', 'return']	[2.818599299993366, 3.465729799994733]	7.36	5.16	3.0	controle	low_pain	45.5			sub-039	250	39	45.5	47.2	COM11	COM15	COM3	2024-06-05_10h53.03.735	001-EEG_SVR_Officel	2022.2.5	142.70383816748523		7.3559999999999945	1_sub-pilot039_SVR_EEG_block3-4.protocol.csv	step33	4243	421.175	STIMULATE	45.5	45.4	45.4	45.5	45.5	33	1292.059
1286.162	0	643081	CN/Lo	11	2	0	2	0	15.0	0.0	15.0	0.0						1304.5248161999916	1311.8936546000186	1311.8936546000186	2.0	['2', 'return']	[2.818599299993366, 3.465729799994733]	7.36	5.16	3.0	controle	low_pain	45.5			sub-039	250	39	45.5	47.2	COM11	COM15	COM3	2024-06-05_10h53.03.735	001-EEG_SVR_Officel	2022.2.5	142.70383816748523		5.160000000000082	1_sub-pilot039_SVR_EEG_block3-4.protocol.csv	step33	4243	421.175	STIMULATE	45.5	45.4	45.4	45.5	45.5	33	1292.059
1357.678	0	678839	wait	20	3	0	3	0	0.0	0.0	0.0	0.0				p	1.025509799976135	1389.3059995000076	1394.7441337000057	1394.7441337000057	9.0	['9', 'return']	[2.172889200010104, 2.5818692999891937]	5.43	6.48	0.0	20hz	high_pain	47.2			sub-039	250	39	45.5	47.2	COM11	COM15	COM3	2024-06-05_10h53.03.735	001-EEG_SVR_Officel	2022.2.5	142.70383816748523		72.26600000000008	1_sub-pilot039_SVR_EEG_block3-4.protocol.csv	step35	5087	505.379	STIMULATE	47.3	47.1	47.1	47.2	47.2	35	1376.219
1363.102	0	681551	20hz	6	3	0	3	0	0.0	0.0	0.0	0.0				p	1.025509799976135	1389.3059995000076	1394.7441337000057	1394.7441337000057	9.0	['9', 'return']	[2.172889200010104, 2.5818692999891937]	5.43	6.48	0.0	20hz	high_pain	47.2			sub-039	250	39	45.5	47.2	COM11	COM15	COM3	2024-06-05_10h53.03.735	001-EEG_SVR_Officel	2022.2.5	142.70383816748523		5.423999999999978	1_sub-pilot039_SVR_EEG_block3-4.protocol.csv	step35	5087	505.379	STIMULATE	47.3	47.1	47.1	47.2	47.2	35	1376.219
1370.332	0	685166	20/Hi	4	3	0	3	0	0.0	0.0	0.0	0.0				p	1.025509799976135	1389.3059995000076	1394.7441337000057	1394.7441337000057	9.0	['9', 'return']	[2.172889200010104, 2.5818692999891937]	5.43	6.48	0.0	20hz	high_pain	47.2			sub-039	250	39	45.5	47.2	COM11	COM15	COM3	2024-06-05_10h53.03.735	001-EEG_SVR_Officel	2022.2.5	142.70383816748523		6.480000000000018	1_sub-pilot039_SVR_EEG_block3-4.protocol.csv	step35	5087	505.379	STIMULATE	47.3	47.1	47.1	47.2	47.2	35	1376.219
1378.72	0	689360	wait	20	3	0	3	0	1.0	0.0	1.0	0.0						1410.3497646000178	1416.8088664000095	1416.8088664000095	9.0	['9', 'return']	[2.2707599999848753, 2.790417299984256]	6.45	5.69	1.0	10hz	high_pain	47.2			sub-039	250	39	45.5	47.2	COM11	COM15	COM3	2024-06-05_10h53.03.735	001-EEG_SVR_Officel	2022.2.5	142.70383816748523		9.13799999999992	1_sub-pilot039_SVR_EEG_block3-4.protocol.csv	step37	5301	526.579	STIMULATE	47.3	47.2	47.2	47.2	47.2	37	1397.419
1385.168	0	692584	10hz	3	3	0	3	0	1.0	0.0	1.0	0.0						1410.3497646000178	1416.8088664000095	1416.8088664000095	9.0	['9', 'return']	[2.2707599999848753, 2.790417299984256]	6.45	5.69	1.0	10hz	high_pain	47.2			sub-039	250	39	45.5	47.2	COM11	COM15	COM3	2024-06-05_10h53.03.735	001-EEG_SVR_Officel	2022.2.5	142.70383816748523		6.447999999999865	1_sub-pilot039_SVR_EEG_block3-4.protocol.csv	step37	5301	526.579	STIMULATE	47.3	47.2	47.2	47.2	47.2	37	1397.419
1391.612	0	695806	10/Hi	1	3	0	3	0	1.0	0.0	1.0	0.0						1410.3497646000178	1416.8088664000095	1416.8088664000095	9.0	['9', 'return']	[2.2707599999848753, 2.790417299984256]	6.45	5.69	1.0	10hz	high_pain	47.2			sub-039	250	39	45.5	47.2	COM11	COM15	COM3	2024-06-05_10h53.03.735	001-EEG_SVR_Officel	2022.2.5	142.70383816748523		5.694000000000187	1_sub-pilot039_SVR_EEG_block3-4.protocol.csv	step37	5301	526.579	STIMULATE	47.3	47.2	47.2	47.2	47.2	37	1397.419
1400.98	0	700490	wait	20	3	0	3	0	2.0	0.0	2.0	0.0						1432.6089566000155	1438.0476519000076	1438.0476519000076	1.0	['1', 'return']	[2.3506915000034496, 2.830901100009214]	5.43	5.88	2.0	controle	low_pain	45.5			sub-039	250	39	45.5	47.2	COM11	COM15	COM3	2024-06-05_10h53.03.735	001-EEG_SVR_Officel	2022.2.5	142.70383816748523		10.117999999999938	1_sub-pilot039_SVR_EEG_block3-4.protocol.csv	step39	5517	548.006	STIMULATE	45.6	45.4	45.5	45.5	45.5	39	1418.846
1406.408	0	703204	CNhz	12	3	0	3	0	2.0	0.0	2.0	0.0						1432.6089566000155	1438.0476519000076	1438.0476519000076	1.0	['1', 'return']	[2.3506915000034496, 2.830901100009214]	5.43	5.88	2.0	controle	low_pain	45.5			sub-039	250	39	45.5	47.2	COM11	COM15	COM3	2024-06-05_10h53.03.735	001-EEG_SVR_Officel	2022.2.5	142.70383816748523		5.427999999999884	1_sub-pilot039_SVR_EEG_block3-4.protocol.csv	step39	5517	548.006	STIMULATE	45.6	45.4	45.5	45.5	45.5	39	1418.846
1413.038	0	706519	CN/Lo	11	3	0	3	0	2.0	0.0	2.0	0.0						1432.6089566000155	1438.0476519000076	1438.0476519000076	1.0	['1', 'return']	[2.3506915000034496, 2.830901100009214]	5.43	5.88	2.0	controle	low_pain	45.5			sub-039	250	39	45.5	47.2	COM11	COM15	COM3	2024-06-05_10h53.03.735	001-EEG_SVR_Officel	2022.2.5	142.70383816748523		5.880000000000109	1_sub-pilot039_SVR_EEG_block3-4.protocol.csv	step39	5517	548.006	STIMULATE	45.6	45.4	45.5	45.5	45.5	39	1418.846
1422.268	0	711134	wait	20	3	0	3	0	3.0	0.0	3.0	0.0						1453.896646100009	1459.4737329999916	1459.4737329999916	9.0	['9', 'return']	[2.197307100024773, 2.597911100019701]	5.57	5.05	3.0	40hz	high_pain	47.2			sub-039	250	39	45.5	47.2	COM11	COM15	COM3	2024-06-05_10h53.03.735	001-EEG_SVR_Officel	2022.2.5	142.70383816748523		9.980000000000018	1_sub-pilot039_SVR_EEG_block3-4.protocol.csv	step41	5727	568.711	STIMULATE	47.3	47.2	47.2	47.2	47.2	41	1439.5510000000002
1427.832	0	713916	40hz	9	3	0	3	0	3.0	0.0	3.0	0.0						1453.896646100009	1459.4737329999916	1459.4737329999916	9.0	['9', 'return']	[2.197307100024773, 2.597911100019701]	5.57	5.05	3.0	40hz	high_pain	47.2			sub-039	250	39	45.5	47.2	COM11	COM15	COM3	2024-06-05_10h53.03.735	001-EEG_SVR_Officel	2022.2.5	142.70383816748523		5.564000000000078	1_sub-pilot039_SVR_EEG_block3-4.protocol.csv	step41	5727	568.711	STIMULATE	47.3	47.2	47.2	47.2	47.2	41	1439.5510000000002
1433.636	0	716818	40/Hi	7	3	0	3	0	3.0	0.0	3.0	0.0						1453.896646100009	1459.4737329999916	1459.4737329999916	9.0	['9', 'return']	[2.197307100024773, 2.597911100019701]	5.57	5.05	3.0	40hz	high_pain	47.2			sub-039	250	39	45.5	47.2	COM11	COM15	COM3	2024-06-05_10h53.03.735	001-EEG_SVR_Officel	2022.2.5	142.70383816748523		5.05399999999986	1_sub-pilot039_SVR_EEG_block3-4.protocol.csv	step41	5727	568.711	STIMULATE	47.3	47.2	47.2	47.2	47.2	41	1439.5510000000002
1443.458	0	721729	wait	20	3	0	3	0	4.0	0.0	4.0	0.0						1475.0870458999998	1480.358161400014	1480.358161400014	2.0	['2', 'return']	[2.7048635999963153, 3.265779699984705]	5.26	5.92	0.0	controle	low_pain	45.5			sub-039	250	39	45.5	47.2	COM11	COM15	COM3	2024-06-05_10h53.03.735	001-EEG_SVR_Officel	2022.2.5	142.70383816748523		10.572000000000116	1_sub-pilot039_SVR_EEG_block3-4.protocol.csv	step43	5946	590.439	STIMULATE	45.5	45.4	45.4	45.4	45.5	43	1461.279
1448.716	0	724358	CNhz	12	3	0	3	0	4.0	0.0	4.0	0.0						1475.0870458999998	1480.358161400014	1480.358161400014	2.0	['2', 'return']	[2.7048635999963153, 3.265779699984705]	5.26	5.92	0.0	controle	low_pain	45.5			sub-039	250	39	45.5	47.2	COM11	COM15	COM3	2024-06-05_10h53.03.735	001-EEG_SVR_Officel	2022.2.5	142.70383816748523		5.257999999999811	1_sub-pilot039_SVR_EEG_block3-4.protocol.csv	step43	5946	590.439	STIMULATE	45.5	45.4	45.4	45.4	45.5	43	1461.279
1455.388	0	727694	CN/Lo	11	3	0	3	0	4.0	0.0	4.0	0.0						1475.0870458999998	1480.358161400014	1480.358161400014	2.0	['2', 'return']	[2.7048635999963153, 3.265779699984705]	5.26	5.92	0.0	controle	low_pain	45.5			sub-039	250	39	45.5	47.2	COM11	COM15	COM3	2024-06-05_10h53.03.735	001-EEG_SVR_Officel	2022.2.5	142.70383816748523		5.9220000000000255	1_sub-pilot039_SVR_EEG_block3-4.protocol.csv	step43	5946	590.439	STIMULATE	45.5	45.4	45.4	45.4	45.5	43	1461.279
1465.008	0	732504	wait	20	3	0	3	0	5.0	0.0	5.0	0.0						1496.6378729999997	1502.5558513000142	1502.5558513000142	2.0	['2', 'return']	[2.8915743000106886, 3.5563915999955498]	5.91	6.13	1.0	40hz	low_pain	45.5			sub-039	250	39	45.5	47.2	COM11	COM15	COM3	2024-06-05_10h53.03.735	001-EEG_SVR_Officel	2022.2.5	142.70383816748523		10.370000000000118	1_sub-pilot039_SVR_EEG_block3-4.protocol.csv	step45	6172	612.81	STIMULATE	45.5	45.5	45.4	45.4	45.4	45	1483.65
1470.914	0	735457	40hz	9	3	0	3	0	5.0	0.0	5.0	0.0						1496.6378729999997	1502.5558513000142	1502.5558513000142	2.0	['2', 'return']	[2.8915743000106886, 3.5563915999955498]	5.91	6.13	1.0	40hz	low_pain	45.5			sub-039	250	39	45.5	47.2	COM11	COM15	COM3	2024-06-05_10h53.03.735	001-EEG_SVR_Officel	2022.2.5	142.70383816748523		5.905999999999949	1_sub-pilot039_SVR_EEG_block3-4.protocol.csv	step45	6172	612.81	STIMULATE	45.5	45.5	45.4	45.4	45.4	45	1483.65
1477.796	0	738898	40/Lo	8	3	0	3	0	5.0	0.0	5.0	0.0						1496.6378729999997	1502.5558513000142	1502.5558513000142	2.0	['2', 'return']	[2.8915743000106886, 3.5563915999955498]	5.91	6.13	1.0	40hz	low_pain	45.5			sub-039	250	39	45.5	47.2	COM11	COM15	COM3	2024-06-05_10h53.03.735	001-EEG_SVR_Officel	2022.2.5	142.70383816748523		6.132000000000062	1_sub-pilot039_SVR_EEG_block3-4.protocol.csv	step45	6172	612.81	STIMULATE	45.5	45.5	45.4	45.4	45.4	45	1483.65
1487.512	0	743756	wait	20	3	0	3	0	6.0	0.0	6.0	0.0						1519.141265800019	1524.6016825000115	1524.6016825000115	3.0	['3', 'return']	[2.2863807999819983, 3.1675373000034597]	5.45	5.01	2.0	20hz	high_pain	47.2			sub-039	250	39	45.5	47.2	COM11	COM15	COM3	2024-06-05_10h53.03.735	001-EEG_SVR_Officel	2022.2.5	142.70383816748523		10.465999999999894	1_sub-pilot039_SVR_EEG_block3-4.protocol.csv	step47	6383	633.711	STIMULATE	47.4	47.2	47.2	47.2	47.2	47	1504.5510000000002
1492.958	0	746479	20hz	6	3	0	3	0	6.0	0.0	6.0	0.0						1519.141265800019	1524.6016825000115	1524.6016825000115	3.0	['3', 'return']	[2.2863807999819983, 3.1675373000034597]	5.45	5.01	2.0	20hz	high_pain	47.2			sub-039	250	39	45.5	47.2	COM11	COM15	COM3	2024-06-05_10h53.03.735	001-EEG_SVR_Officel	2022.2.5	142.70383816748523		5.44600000000014	1_sub-pilot039_SVR_EEG_block3-4.protocol.csv	step47	6383	633.711	STIMULATE	47.4	47.2	47.2	47.2	47.2	47	1504.5510000000002
1498.72	0	749360	20/Hi	4	3	0	3	0	6.0	0.0	6.0	0.0						1519.141265800019	1524.6016825000115	1524.6016825000115	3.0	['3', 'return']	[2.2863807999819983, 3.1675373000034597]	5.45	5.01	2.0	20hz	high_pain	47.2			sub-039	250	39	45.5	47.2	COM11	COM15	COM3	2024-06-05_10h53.03.735	001-EEG_SVR_Officel	2022.2.5	142.70383816748523		5.011999999999944	1_sub-pilot039_SVR_EEG_block3-4.protocol.csv	step47	6383	633.711	STIMULATE	47.4	47.2	47.2	47.2	47.2	47	1504.5510000000002
1509.152	0	754576	wait	20	3	0	3	0	7.0	0.0	7.0	0.0						1540.7823292000105	1546.6646412000118	1546.6646412000118	9.0	['9', 'return']	[2.3828836000175215, 2.8461705000081565]	5.87	5.23	3.0	controle	high_pain	47.2			sub-039	250	39	45.5	47.2	COM11	COM15	COM3	2024-06-05_10h53.03.735	001-EEG_SVR_Officel	2022.2.5	142.70383816748523		11.182000000000016	1_sub-pilot039_SVR_EEG_block3-4.protocol.csv	step49	6608	656.047	STIMULATE	47.3	47.2	47.2	47.2	47.1	49	1526.8870000000002
1515.022	0	757511	CNhz	12	3	0	3	0	7.0	0.0	7.0	0.0						1540.7823292000105	1546.6646412000118	1546.6646412000118	9.0	['9', 'return']	[2.3828836000175215, 2.8461705000081565]	5.87	5.23	3.0	controle	high_pain	47.2			sub-039	250	39	45.5	47.2	COM11	COM15	COM3	2024-06-05_10h53.03.735	001-EEG_SVR_Officel	2022.2.5	142.70383816748523		5.869999999999891	1_sub-pilot039_SVR_EEG_block3-4.protocol.csv	step49	6608	656.047	STIMULATE	47.3	47.2	47.2	47.2	47.1	49	1526.8870000000002
1521.008	0	760504	CN/Hi	10	3	0	3	0	7.0	0.0	7.0	0.0						1540.7823292000105	1546.6646412000118	1546.6646412000118	9.0	['9', 'return']	[2.3828836000175215, 2.8461705000081565]	5.87	5.23	3.0	controle	high_pain	47.2			sub-039	250	39	45.5	47.2	COM11	COM15	COM3	2024-06-05_10h53.03.735	001-EEG_SVR_Officel	2022.2.5	142.70383816748523		5.236000000000104	1_sub-pilot039_SVR_EEG_block3-4.protocol.csv	step49	6608	656.047	STIMULATE	47.3	47.2	47.2	47.2	47.1	49	1526.8870000000002
1530.898	0	765449	wait	20	3	0	3	0	8.0	0.0	8.0	0.0						1562.527652299992	1570.2299619000114	1570.2299619000114	1.0	['1', 'return']	[2.7206905000202823, 3.360539500019513]	7.69	6.28	0.0	40hz	low_pain	45.5			sub-039	250	39	45.5	47.2	COM11	COM15	COM3	2024-06-05_10h53.03.735	001-EEG_SVR_Officel	2022.2.5	142.70383816748523		10.639999999999873	1_sub-pilot039_SVR_EEG_block3-4.protocol.csv	step51	6856	680.697	STIMULATE	45.6	45.4	45.4	45.4	45.4	51	1551.537
1538.588	0	769294	40hz	9	3	0	3	0	8.0	0.0	8.0	0.0						1562.527652299992	1570.2299619000114	1570.2299619000114	1.0	['1', 'return']	[2.7206905000202823, 3.360539500019513]	7.69	6.28	0.0	40hz	low_pain	45.5			sub-039	250	39	45.5	47.2	COM11	COM15	COM3	2024-06-05_10h53.03.735	001-EEG_SVR_Officel	2022.2.5	142.70383816748523		7.690000000000055	1_sub-pilot039_SVR_EEG_block3-4.protocol.csv	step51	6856	680.697	STIMULATE	45.6	45.4	45.4	45.4	45.4	51	1551.537
1545.624	0	772812	40/Lo	8	3	0	3	0	8.0	0.0	8.0	0.0						1562.527652299992	1570.2299619000114	1570.2299619000114	1.0	['1', 'return']	[2.7206905000202823, 3.360539500019513]	7.69	6.28	0.0	40hz	low_pain	45.5			sub-039	250	39	45.5	47.2	COM11	COM15	COM3	2024-06-05_10h53.03.735	001-EEG_SVR_Officel	2022.2.5	142.70383816748523		6.286000000000058	1_sub-pilot039_SVR_EEG_block3-4.protocol.csv	step51	6856	680.697	STIMULATE	45.6	45.4	45.4	45.4	45.4	51	1551.537
1554.978	0	777489	wait	20	3	0	3	0	9.0	0.0	9.0	0.0						1586.6069359999965	1593.482769299997	1593.482769299997	2.0	['2', 'return']	[2.1077834999887273, 2.699239100009436]	6.87	5.72	1.0	10hz	low_pain	45.5			sub-039	250	39	45.5	47.2	COM11	COM15	COM3	2024-06-05_10h53.03.735	001-EEG_SVR_Officel	2022.2.5	142.70383816748523		10.104000000000042	1_sub-pilot039_SVR_EEG_block3-4.protocol.csv	step53	7085	703.339	STIMULATE	45.5	45.4	45.5	45.5	45.5	53	1574.179
1561.842	0	780921	10hz	3	3	0	3	0	9.0	0.0	9.0	0.0						1586.6069359999965	1593.482769299997	1593.482769299997	2.0	['2', 'return']	[2.1077834999887273, 2.699239100009436]	6.87	5.72	1.0	10hz	low_pain	45.5			sub-039	250	39	45.5	47.2	COM11	COM15	COM3	2024-06-05_10h53.03.735	001-EEG_SVR_Officel	2022.2.5	142.70383816748523		6.864000000000033	1_sub-pilot039_SVR_EEG_block3-4.protocol.csv	step53	7085	703.339	STIMULATE	45.5	45.4	45.5	45.5	45.5	53	1574.179
1568.312	0	784156	10/Lo	2	3	0	3	0	9.0	0.0	9.0	0.0						1586.6069359999965	1593.482769299997	1593.482769299997	2.0	['2', 'return']	[2.1077834999887273, 2.699239100009436]	6.87	5.72	1.0	10hz	low_pain	45.5			sub-039	250	39	45.5	47.2	COM11	COM15	COM3	2024-06-05_10h53.03.735	001-EEG_SVR_Officel	2022.2.5	142.70383816748523		5.7199999999998	1_sub-pilot039_SVR_EEG_block3-4.protocol.csv	step53	7085	703.339	STIMULATE	45.5	45.4	45.5	45.5	45.5	53	1574.179
1577.562	0	788781	wait	20	3	0	3	0	10.0	0.0	10.0	0.0						1609.192417400016	1614.6939477999986	1614.6939477999986	4.0	['4', 'return']	[2.345203799981391, 2.9217326999932993]	5.49	5.49	2.0	controle	high_pain	47.2			sub-039	250	39	45.5	47.2	COM11	COM15	COM3	2024-06-05_10h53.03.735	001-EEG_SVR_Officel	2022.2.5	142.70383816748523		10.0	1_sub-pilot039_SVR_EEG_block3-4.protocol.csv	step55	7296	724.295	STIMULATE	47.3	47.2	47.2	47.2	47.2	55	1595.135
1583.052	0	791526	CNhz	12	3	0	3	0	10.0	0.0	10.0	0.0						1609.192417400016	1614.6939477999986	1614.6939477999986	4.0	['4', 'return']	[2.345203799981391, 2.9217326999932993]	5.49	5.49	2.0	controle	high_pain	47.2			sub-039	250	39	45.5	47.2	COM11	COM15	COM3	2024-06-05_10h53.03.735	001-EEG_SVR_Officel	2022.2.5	142.70383816748523		5.490000000000009	1_sub-pilot039_SVR_EEG_block3-4.protocol.csv	step55	7296	724.295	STIMULATE	47.3	47.2	47.2	47.2	47.2	55	1595.135
1589.294	0	794647	CN/Hi	10	3	0	3	0	10.0	0.0	10.0	0.0						1609.192417400016	1614.6939477999986	1614.6939477999986	4.0	['4', 'return']	[2.345203799981391, 2.9217326999932993]	5.49	5.49	2.0	controle	high_pain	47.2			sub-039	250	39	45.5	47.2	COM11	COM15	COM3	2024-06-05_10h53.03.735	001-EEG_SVR_Officel	2022.2.5	142.70383816748523		5.492000000000189	1_sub-pilot039_SVR_EEG_block3-4.protocol.csv	step55	7296	724.295	STIMULATE	47.3	47.2	47.2	47.2	47.2	55	1595.135
1599.004	0	799502	wait	20	3	0	3	0	11.0	0.0	11.0	0.0						1630.6335202000046	1636.3493605999977	1636.3493605999977	7.0	['7', 'return']	[2.217530399997486, 2.729042599996319]	5.71	6.48	3.0	10hz	high_pain	47.2			sub-039	250	39	45.5	47.2	COM11	COM15	COM3	2024-06-05_10h53.03.735	001-EEG_SVR_Officel	2022.2.5	142.70383816748523		10.459999999999809	1_sub-pilot039_SVR_EEG_block3-4.protocol.csv	step57	7526	747.068	STIMULATE	47.3	47.1	47.2	47.2	47.2	57	1617.9080000000001
1604.708	0	802354	10hz	3	3	0	3	0	11.0	0.0	11.0	0.0						1630.6335202000046	1636.3493605999977	1636.3493605999977	7.0	['7', 'return']	[2.217530399997486, 2.729042599996319]	5.71	6.48	3.0	10hz	high_pain	47.2			sub-039	250	39	45.5	47.2	COM11	COM15	COM3	2024-06-05_10h53.03.735	001-EEG_SVR_Officel	2022.2.5	142.70383816748523		5.704000000000178	1_sub-pilot039_SVR_EEG_block3-4.protocol.csv	step57	7526	747.068	STIMULATE	47.3	47.1	47.2	47.2	47.2	57	1617.9080000000001
1611.942	0	805971	10/Hi	1	3	0	3	0	11.0	0.0	11.0	0.0						1630.6335202000046	1636.3493605999977	1636.3493605999977	7.0	['7', 'return']	[2.217530399997486, 2.729042599996319]	5.71	6.48	3.0	10hz	high_pain	47.2			sub-039	250	39	45.5	47.2	COM11	COM15	COM3	2024-06-05_10h53.03.735	001-EEG_SVR_Officel	2022.2.5	142.70383816748523		6.483999999999924	1_sub-pilot039_SVR_EEG_block3-4.protocol.csv	step57	7526	747.068	STIMULATE	47.3	47.1	47.2	47.2	47.2	57	1617.9080000000001
1620.464	0	810232	wait	20	3	0	3	0	12.0	0.0	12.0	0.0						1652.0939497000072	1658.3239150000154	1658.3239150000154	6.0	['6', 'return']	[2.42701099999249, 2.9476103999768384]	6.22	5.93	0.0	40hz	high_pain	47.2			sub-039	250	39	45.5	47.2	COM11	COM15	COM3	2024-06-05_10h53.03.735	001-EEG_SVR_Officel	2022.2.5	142.70383816748523		9.271999999999935	1_sub-pilot039_SVR_EEG_block3-4.protocol.csv	step59	7740	768.343	STIMULATE	47.3	47.1	47.2	47.2	47.2	59	1639.183
1626.68	0	813340	40hz	9	3	0	3	0	12.0	0.0	12.0	0.0						1652.0939497000072	1658.3239150000154	1658.3239150000154	6.0	['6', 'return']	[2.42701099999249, 2.9476103999768384]	6.22	5.93	0.0	40hz	high_pain	47.2			sub-039	250	39	45.5	47.2	COM11	COM15	COM3	2024-06-05_10h53.03.735	001-EEG_SVR_Officel	2022.2.5	142.70383816748523		6.216000000000122	1_sub-pilot039_SVR_EEG_block3-4.protocol.csv	step59	7740	768.343	STIMULATE	47.3	47.1	47.2	47.2	47.2	59	1639.183
1633.36	0	816680	40/Hi	7	3	0	3	0	12.0	0.0	12.0	0.0						1652.0939497000072	1658.3239150000154	1658.3239150000154	6.0	['6', 'return']	[2.42701099999249, 2.9476103999768384]	6.22	5.93	0.0	40hz	high_pain	47.2			sub-039	250	39	45.5	47.2	COM11	COM15	COM3	2024-06-05_10h53.03.735	001-EEG_SVR_Officel	2022.2.5	142.70383816748523		5.929999999999836	1_sub-pilot039_SVR_EEG_block3-4.protocol.csv	step59	7740	768.343	STIMULATE	47.3	47.1	47.2	47.2	47.2	59	1639.183
1642.654	0	821327	wait	20	3	0	3	0	13.0	0.0	13.0	0.0						1674.283637799992	1680.5758123999983	1680.5758123999983	2.0	['2', 'return']	[2.9664504999818746, 3.7102479999884963]	6.28	6.28	1.0	controle	low_pain	45.5			sub-039	250	39	45.5	47.2	COM11	COM15	COM3	2024-06-05_10h53.03.735	001-EEG_SVR_Officel	2022.2.5	142.70383816748523		10.044000000000096	1_sub-pilot039_SVR_EEG_block3-4.protocol.csv	step61	7963	791.004	STIMULATE	45.5	45.4	45.4	45.4	45.5	61	1661.844
1648.934	0	824467	CNhz	12	3	0	3	0	13.0	0.0	13.0	0.0						1674.283637799992	1680.5758123999983	1680.5758123999983	2.0	['2', 'return']	[2.9664504999818746, 3.7102479999884963]	6.28	6.28	1.0	controle	low_pain	45.5			sub-039	250	39	45.5	47.2	COM11	COM15	COM3	2024-06-05_10h53.03.735	001-EEG_SVR_Officel	2022.2.5	142.70383816748523		6.279999999999973	1_sub-pilot039_SVR_EEG_block3-4.protocol.csv	step61	7963	791.004	STIMULATE	45.5	45.4	45.4	45.4	45.5	61	1661.844
1655.968	0	827984	CN/Lo	11	3	0	3	0	13.0	0.0	13.0	0.0						1674.283637799992	1680.5758123999983	1680.5758123999983	2.0	['2', 'return']	[2.9664504999818746, 3.7102479999884963]	6.28	6.28	1.0	controle	low_pain	45.5			sub-039	250	39	45.5	47.2	COM11	COM15	COM3	2024-06-05_10h53.03.735	001-EEG_SVR_Officel	2022.2.5	142.70383816748523		6.2840000000001055	1_sub-pilot039_SVR_EEG_block3-4.protocol.csv	step61	7963	791.004	STIMULATE	45.5	45.4	45.4	45.4	45.5	61	1661.844
1665.678	0	832839	wait	20	3	0	3	0	14.0	0.0	14.0	0.0						1697.3076595000166	1704.0796406000154	1704.0796406000154	6.0	['6', 'return']	[2.4717210000089835, 2.9845420000201557]	6.76	6.04	2.0	40hz	high_pain	47.2			sub-039	250	39	45.5	47.2	COM11	COM15	COM3	2024-06-05_10h53.03.735	001-EEG_SVR_Officel	2022.2.5	142.70383816748523		10.460000000000036	1_sub-pilot039_SVR_EEG_block3-4.protocol.csv	step63	8188	814.257	STIMULATE	47.3	47.2	47.2	47.2	47.2	63	1685.097
1672.438	0	836219	40hz	9	3	0	3	0	14.0	0.0	14.0	0.0						1697.3076595000166	1704.0796406000154	1704.0796406000154	6.0	['6', 'return']	[2.4717210000089835, 2.9845420000201557]	6.76	6.04	2.0	40hz	high_pain	47.2			sub-039	250	39	45.5	47.2	COM11	COM15	COM3	2024-06-05_10h53.03.735	001-EEG_SVR_Officel	2022.2.5	142.70383816748523		6.759999999999991	1_sub-pilot039_SVR_EEG_block3-4.protocol.csv	step63	8188	814.257	STIMULATE	47.3	47.2	47.2	47.2	47.2	63	1685.097
1679.228	0	839614	40/Hi	7	3	0	3	0	14.0	0.0	14.0	0.0						1697.3076595000166	1704.0796406000154	1704.0796406000154	6.0	['6', 'return']	[2.4717210000089835, 2.9845420000201557]	6.76	6.04	2.0	40hz	high_pain	47.2			sub-039	250	39	45.5	47.2	COM11	COM15	COM3	2024-06-05_10h53.03.735	001-EEG_SVR_Officel	2022.2.5	142.70383816748523		6.039999999999964	1_sub-pilot039_SVR_EEG_block3-4.protocol.csv	step63	8188	814.257	STIMULATE	47.3	47.2	47.2	47.2	47.2	63	1685.097
1688.452	0	844226	wait	20	3	0	3	0	15.0	0.0	15.0	0.0						1720.0812408000056	1727.1585210000048	1727.1585210000048	7.0	['7', 'return']	[2.2170787999930326, 2.712476999993669]	7.07	6.39	3.0	20hz	high_pain	47.2			sub-039	250	39	45.5	47.2	COM11	COM15	COM3	2024-06-05_10h53.03.735	001-EEG_SVR_Officel	2022.2.5	142.70383816748523		9.973999999999933	1_sub-pilot039_SVR_EEG_block3-4.protocol.csv	step65	8413	837.741	STIMULATE	47.2	47.2	47.2	47.2	47.2	65	1708.5810000000001
1695.516	0	847758	20hz	6	3	0	3	0	15.0	0.0	15.0	0.0						1720.0812408000056	1727.1585210000048	1727.1585210000048	7.0	['7', 'return']	[2.2170787999930326, 2.712476999993669]	7.07	6.39	3.0	20hz	high_pain	47.2			sub-039	250	39	45.5	47.2	COM11	COM15	COM3	2024-06-05_10h53.03.735	001-EEG_SVR_Officel	2022.2.5	142.70383816748523		7.064000000000078	1_sub-pilot039_SVR_EEG_block3-4.protocol.csv	step65	8413	837.741	STIMULATE	47.2	47.2	47.2	47.2	47.2	65	1708.5810000000001
1702.66	0	851330	20/Hi	4	3	0	3	0	15.0	0.0	15.0	0.0						1720.0812408000056	1727.1585210000048	1727.1585210000048	7.0	['7', 'return']	[2.2170787999930326, 2.712476999993669]	7.07	6.39	3.0	20hz	high_pain	47.2			sub-039	250	39	45.5	47.2	COM11	COM15	COM3	2024-06-05_10h53.03.735	001-EEG_SVR_Officel	2022.2.5	142.70383816748523		6.3940000000000055	1_sub-pilot039_SVR_EEG_block3-4.protocol.csv	step65	8413	837.741	STIMULATE	47.2	47.2	47.2	47.2	47.2	65	1708.5810000000001
1772.364	0	886182	wait	20	4	0	4	0	0.0	0.0	0.0	0.0				p	0.8930517999979202	1803.994103200006	1809.9252939000144	1809.9252939000144	1.0	['1', 'return']	[1.7785432999953628, 2.4025719000201207]	5.92	5.34	0.0	10hz	low_pain	45.5			sub-039	250	39	45.5	47.2	COM11	COM15	COM3	2024-06-05_10h53.03.735	001-EEG_SVR_Officel	2022.2.5	142.70383816748523		70.45399999999995	2_sub-pilot039_SVR_EEG_block5-6.protocol.csv	step3	703	70.112	STIMULATE	45.7	45.4	45.4	45.4	45.5	3	1790.153
1778.282	0	889141	10hz	3	4	0	4	0	0.0	0.0	0.0	0.0				p	0.8930517999979202	1803.994103200006	1809.9252939000144	1809.9252939000144	1.0	['1', 'return']	[1.7785432999953628, 2.4025719000201207]	5.92	5.34	0.0	10hz	low_pain	45.5			sub-039	250	39	45.5	47.2	COM11	COM15	COM3	2024-06-05_10h53.03.735	001-EEG_SVR_Officel	2022.2.5	142.70383816748523		5.917999999999893	2_sub-pilot039_SVR_EEG_block5-6.protocol.csv	step3	703	70.112	STIMULATE	45.7	45.4	45.4	45.4	45.5	3	1790.153
1784.372	0	892186	10/Lo	2	4	0	4	0	0.0	0.0	0.0	0.0				p	0.8930517999979202	1803.994103200006	1809.9252939000144	1809.9252939000144	1.0	['1', 'return']	[1.7785432999953628, 2.4025719000201207]	5.92	5.34	0.0	10hz	low_pain	45.5			sub-039	250	39	45.5	47.2	COM11	COM15	COM3	2024-06-05_10h53.03.735	001-EEG_SVR_Officel	2022.2.5	142.70383816748523		5.3400000000001455	2_sub-pilot039_SVR_EEG_block5-6.protocol.csv	step3	703	70.112	STIMULATE	45.7	45.4	45.4	45.4	45.5	3	1790.153
1793.704	0	896852	wait	20	4	0	4	0	1.0	0.0	1.0	0.0						1825.33631340001	1830.4137924000097	1830.4137924000097	7.0	['7', 'return']	[2.5446749000111595, 3.1770150999946054]	5.07	6.4	1.0	controle	high_pain	47.2			sub-039	250	39	45.5	47.2	COM11	COM15	COM3	2024-06-05_10h53.03.735	001-EEG_SVR_Officel	2022.2.5	142.70383816748523		10.08199999999988	2_sub-pilot039_SVR_EEG_block5-6.protocol.csv	step5	921	91.752	STIMULATE	47.3	47.2	47.2	47.2	47.2	5	1811.7930000000001
1798.77	0	899385	CNhz	12	4	0	4	0	1.0	0.0	1.0	0.0						1825.33631340001	1830.4137924000097	1830.4137924000097	7.0	['7', 'return']	[2.5446749000111595, 3.1770150999946054]	5.07	6.4	1.0	controle	high_pain	47.2			sub-039	250	39	45.5	47.2	COM11	COM15	COM3	2024-06-05_10h53.03.735	001-EEG_SVR_Officel	2022.2.5	142.70383816748523		5.066000000000031	2_sub-pilot039_SVR_EEG_block5-6.protocol.csv	step5	921	91.752	STIMULATE	47.3	47.2	47.2	47.2	47.2	5	1811.7930000000001
1805.922	0	902961	CN/Hi	10	4	0	4	0	1.0	0.0	1.0	0.0						1825.33631340001	1830.4137924000097	1830.4137924000097	7.0	['7', 'return']	[2.5446749000111595, 3.1770150999946054]	5.07	6.4	1.0	controle	high_pain	47.2			sub-039	250	39	45.5	47.2	COM11	COM15	COM3	2024-06-05_10h53.03.735	001-EEG_SVR_Officel	2022.2.5	142.70383816748523		6.402000000000044	2_sub-pilot039_SVR_EEG_block5-6.protocol.csv	step5	921	91.752	STIMULATE	47.3	47.2	47.2	47.2	47.2	5	1811.7930000000001
1814.978	0	907489	wait	20	4	0	4	0	2.0	0.0	2.0	0.0						1846.610321000015	1854.2365461000009	1854.2365461000009	4.0	['4', 'return']	[2.2735900999978185, 2.881485799996881]	7.62	6.43	2.0	20hz	high_pain	47.2			sub-039	250	39	45.5	47.2	COM11	COM15	COM3	2024-06-05_10h53.03.735	001-EEG_SVR_Officel	2022.2.5	142.70383816748523		9.80600000000004	2_sub-pilot039_SVR_EEG_block5-6.protocol.csv	step7	1161	115.558	STIMULATE	47.4	47.2	47.2	47.2	47.2	7	1835.5990000000002
1822.592	0	911296	20hz	6	4	0	4	0	2.0	0.0	2.0	0.0						1846.610321000015	1854.2365461000009	1854.2365461000009	4.0	['4', 'return']	[2.2735900999978185, 2.881485799996881]	7.62	6.43	2.0	20hz	high_pain	47.2			sub-039	250	39	45.5	47.2	COM11	COM15	COM3	2024-06-05_10h53.03.735	001-EEG_SVR_Officel	2022.2.5	142.70383816748523		7.614000000000033	2_sub-pilot039_SVR_EEG_block5-6.protocol.csv	step7	1161	115.558	STIMULATE	47.4	47.2	47.2	47.2	47.2	7	1835.5990000000002
1829.772	0	914886	20/Hi	4	4	0	4	0	2.0	0.0	2.0	0.0						1846.610321000015	1854.2365461000009	1854.2365461000009	4.0	['4', 'return']	[2.2735900999978185, 2.881485799996881]	7.62	6.43	2.0	20hz	high_pain	47.2			sub-039	250	39	45.5	47.2	COM11	COM15	COM3	2024-06-05_10h53.03.735	001-EEG_SVR_Officel	2022.2.5	142.70383816748523		6.429999999999836	2_sub-pilot039_SVR_EEG_block5-6.protocol.csv	step7	1161	115.558	STIMULATE	47.4	47.2	47.2	47.2	47.2	7	1835.5990000000002
1838.504	0	919252	wait	20	4	0	4	0	3.0	0.0	3.0	0.0						1870.1343815000143	1875.4960186000096	1875.4960186000096	0.0	['0', 'return']	[3.542729299981147, 4.286998099996708]	5.35	5.73	3.0	40hz	low_pain	45.5			sub-039	250	39	45.5	47.2	COM11	COM15	COM3	2024-06-05_10h53.03.735	001-EEG_SVR_Officel	2022.2.5	142.70383816748523		9.481999999999971	2_sub-pilot039_SVR_EEG_block5-6.protocol.csv	step9	1369	136.114	STIMULATE	45.5	45.4	45.4	45.4	45.5	9	1856.155
1843.852	0	921926	40hz	9	4	0	4	0	3.0	0.0	3.0	0.0						1870.1343815000143	1875.4960186000096	1875.4960186000096	0.0	['0', 'return']	[3.542729299981147, 4.286998099996708]	5.35	5.73	3.0	40hz	low_pain	45.5			sub-039	250	39	45.5	47.2	COM11	COM15	COM3	2024-06-05_10h53.03.735	001-EEG_SVR_Officel	2022.2.5	142.70383816748523		5.348000000000184	2_sub-pilot039_SVR_EEG_block5-6.protocol.csv	step9	1369	136.114	STIMULATE	45.5	45.4	45.4	45.4	45.5	9	1856.155
1850.338	0	925169	40/Lo	8	4	0	4	0	3.0	0.0	3.0	0.0						1870.1343815000143	1875.4960186000096	1875.4960186000096	0.0	['0', 'return']	[3.542729299981147, 4.286998099996708]	5.35	5.73	3.0	40hz	low_pain	45.5			sub-039	250	39	45.5	47.2	COM11	COM15	COM3	2024-06-05_10h53.03.735	001-EEG_SVR_Officel	2022.2.5	142.70383816748523		5.735999999999876	2_sub-pilot039_SVR_EEG_block5-6.protocol.csv	step9	1369	136.114	STIMULATE	45.5	45.4	45.4	45.4	45.5	9	1856.155
1861.172	0	930586	wait	20	4	0	4	0	4.0	0.0	4.0	0.0						1892.8032256000151	1898.0191690000065	1898.0191690000065	8.0	['8', 'return']	[2.420032399997581, 2.8275867000047583]	5.21	5.31	0.0	40hz	high_pain	47.2			sub-039	250	39	45.5	47.2	COM11	COM15	COM3	2024-06-05_10h53.03.735	001-EEG_SVR_Officel	2022.2.5	142.70383816748523		11.58400000000006	2_sub-pilot039_SVR_EEG_block5-6.protocol.csv	step11	1592	158.219	STIMULATE	47.3	47.2	47.2	47.2	47.2	11	1878.26
1866.376	0	933188	40hz	9	4	0	4	0	4.0	0.0	4.0	0.0						1892.8032256000151	1898.0191690000065	1898.0191690000065	8.0	['8', 'return']	[2.420032399997581, 2.8275867000047583]	5.21	5.31	0.0	40hz	high_pain	47.2			sub-039	250	39	45.5	47.2	COM11	COM15	COM3	2024-06-05_10h53.03.735	001-EEG_SVR_Officel	2022.2.5	142.70383816748523		5.203999999999951	2_sub-pilot039_SVR_EEG_block5-6.protocol.csv	step11	1592	158.219	STIMULATE	47.3	47.2	47.2	47.2	47.2	11	1878.26
1872.438	0	936219	40/Hi	7	4	0	4	0	4.0	0.0	4.0	0.0						1892.8032256000151	1898.0191690000065	1898.0191690000065	8.0	['8', 'return']	[2.420032399997581, 2.8275867000047583]	5.21	5.31	0.0	40hz	high_pain	47.2			sub-039	250	39	45.5	47.2	COM11	COM15	COM3	2024-06-05_10h53.03.735	001-EEG_SVR_Officel	2022.2.5	142.70383816748523		5.3120000000001255	2_sub-pilot039_SVR_EEG_block5-6.protocol.csv	step11	1592	158.219	STIMULATE	47.3	47.2	47.2	47.2	47.2	11	1878.26
1882.236	0	941118	wait	20	4	0	4	0	5.0	0.0	5.0	0.0						1913.868210100016	1920.660673800012	1920.660673800012	7.0	['7', 'return']	[2.3145735999860335, 2.819051099999342]	6.78	5.69	1.0	40hz	high_pain	47.2			sub-039	250	39	45.5	47.2	COM11	COM15	COM3	2024-06-05_10h53.03.735	001-EEG_SVR_Officel	2022.2.5	142.70383816748523		10.548000000000002	2_sub-pilot039_SVR_EEG_block5-6.protocol.csv	step13	1825	181.306	STIMULATE	47.2	47.2	47.2	47.2	47.2	13	1901.347
1889.018	0	944509	40hz	9	4	0	4	0	5.0	0.0	5.0	0.0						1913.868210100016	1920.660673800012	1920.660673800012	7.0	['7', 'return']	[2.3145735999860335, 2.819051099999342]	6.78	5.69	1.0	40hz	high_pain	47.2			sub-039	250	39	45.5	47.2	COM11	COM15	COM3	2024-06-05_10h53.03.735	001-EEG_SVR_Officel	2022.2.5	142.70383816748523		6.781999999999925	2_sub-pilot039_SVR_EEG_block5-6.protocol.csv	step13	1825	181.306	STIMULATE	47.2	47.2	47.2	47.2	47.2	13	1901.347
1895.46	0	947730	40/Hi	7	4	0	4	0	5.0	0.0	5.0	0.0						1913.868210100016	1920.660673800012	1920.660673800012	7.0	['7', 'return']	[2.3145735999860335, 2.819051099999342]	6.78	5.69	1.0	40hz	high_pain	47.2			sub-039	250	39	45.5	47.2	COM11	COM15	COM3	2024-06-05_10h53.03.735	001-EEG_SVR_Officel	2022.2.5	142.70383816748523		5.692000000000007	2_sub-pilot039_SVR_EEG_block5-6.protocol.csv	step13	1825	181.306	STIMULATE	47.2	47.2	47.2	47.2	47.2	13	1901.347
1904.858	0	952429	wait	20	4	0	4	0	6.0	0.0	6.0	0.0						1936.489021300018	1941.920312800008	1941.920312800008	0.0	['0', 'return']	[3.327804100001231, 4.23840630002087]	5.42	5.87	2.0	10hz	low_pain	45.5			sub-039	250	39	45.5	47.2	COM11	COM15	COM3	2024-06-05_10h53.03.735	001-EEG_SVR_Officel	2022.2.5	142.70383816748523		10.14799999999991	2_sub-pilot039_SVR_EEG_block5-6.protocol.csv	step15	2041	202.774	STIMULATE	45.6	45.4	45.4	45.5	45.5	15	1922.815
1910.276	0	955138	10hz	3	4	0	4	0	6.0	0.0	6.0	0.0						1936.489021300018	1941.920312800008	1941.920312800008	0.0	['0', 'return']	[3.327804100001231, 4.23840630002087]	5.42	5.87	2.0	10hz	low_pain	45.5			sub-039	250	39	45.5	47.2	COM11	COM15	COM3	2024-06-05_10h53.03.735	001-EEG_SVR_Officel	2022.2.5	142.70383816748523		5.41800000000012	2_sub-pilot039_SVR_EEG_block5-6.protocol.csv	step15	2041	202.774	STIMULATE	45.6	45.4	45.4	45.5	45.5	15	1922.815
1916.9	0	958450	10/Lo	2	4	0	4	0	6.0	0.0	6.0	0.0						1936.489021300018	1941.920312800008	1941.920312800008	0.0	['0', 'return']	[3.327804100001231, 4.23840630002087]	5.42	5.87	2.0	10hz	low_pain	45.5			sub-039	250	39	45.5	47.2	COM11	COM15	COM3	2024-06-05_10h53.03.735	001-EEG_SVR_Officel	2022.2.5	142.70383816748523		5.874000000000024	2_sub-pilot039_SVR_EEG_block5-6.protocol.csv	step15	2041	202.774	STIMULATE	45.6	45.4	45.4	45.5	45.5	15	1922.815
1927.548	0	963774	wait	20	4	0	4	0	7.0	0.0	7.0	0.0						1959.1792057999992	1965.3607156999933	1965.3607156999933	5.0	['5', 'return']	[2.7658654999977443, 3.3255500000086613]	6.17	6.46	3.0	40hz	high_pain	47.2			sub-039	250	39	45.5	47.2	COM11	COM15	COM3	2024-06-05_10h53.03.735	001-EEG_SVR_Officel	2022.2.5	142.70383816748523		11.39799999999991	2_sub-pilot039_SVR_EEG_block5-6.protocol.csv	step17	2283	226.777	STIMULATE	47.2	47.2	47.2	47.2	47.2	17	1946.818
1933.716	0	966858	40hz	9	4	0	4	0	7.0	0.0	7.0	0.0						1959.1792057999992	1965.3607156999933	1965.3607156999933	5.0	['5', 'return']	[2.7658654999977443, 3.3255500000086613]	6.17	6.46	3.0	40hz	high_pain	47.2			sub-039	250	39	45.5	47.2	COM11	COM15	COM3	2024-06-05_10h53.03.735	001-EEG_SVR_Officel	2022.2.5	142.70383816748523		6.167999999999893	2_sub-pilot039_SVR_EEG_block5-6.protocol.csv	step17	2283	226.777	STIMULATE	47.2	47.2	47.2	47.2	47.2	17	1946.818
1940.93	0	970465	40/Hi	7	4	0	4	0	7.0	0.0	7.0	0.0						1959.1792057999992	1965.3607156999933	1965.3607156999933	5.0	['5', 'return']	[2.7658654999977443, 3.3255500000086613]	6.17	6.46	3.0	40hz	high_pain	47.2			sub-039	250	39	45.5	47.2	COM11	COM15	COM3	2024-06-05_10h53.03.735	001-EEG_SVR_Officel	2022.2.5	142.70383816748523		6.464000000000169	2_sub-pilot039_SVR_EEG_block5-6.protocol.csv	step17	2283	226.777	STIMULATE	47.2	47.2	47.2	47.2	47.2	17	1946.818
1950.072	0	975036	wait	20	4	0	4	0	8.0	0.0	8.0	0.0						1981.703153300012	1987.7596053000016	1987.7596053000016	3.0	['3', 'return']	[2.2395221999904606, 3.2474587000033353]	6.05	6.04	0.0	controle	low_pain	45.5			sub-039	250	39	45.5	47.2	COM11	COM15	COM3	2024-06-05_10h53.03.735	001-EEG_SVR_Officel	2022.2.5	142.70383816748523		9.891999999999825	2_sub-pilot039_SVR_EEG_block5-6.protocol.csv	step19	2505	248.731	STIMULATE	45.5	45.4	45.4	45.4	45.5	19	1968.772
1956.116	0	978058	CNhz	12	4	0	4	0	8.0	0.0	8.0	0.0						1981.703153300012	1987.7596053000016	1987.7596053000016	3.0	['3', 'return']	[2.2395221999904606, 3.2474587000033353]	6.05	6.04	0.0	controle	low_pain	45.5			sub-039	250	39	45.5	47.2	COM11	COM15	COM3	2024-06-05_10h53.03.735	001-EEG_SVR_Officel	2022.2.5	142.70383816748523		6.044000000000096	2_sub-pilot039_SVR_EEG_block5-6.protocol.csv	step19	2505	248.731	STIMULATE	45.5	45.4	45.4	45.4	45.5	19	1968.772
