onset	duration	sample	trial_type	value	block.thisRepN	block.thisTrialN	block.thisN	block.thisIndex	reps.thisRepN	reps.thisTrialN	reps.thisN	reps.thisIndex	afrec_start	rec_start	rec_start_egi	key_resp.keys	key_resp.rt	wait_time_text.started	wait_time_text.stopped	therm_loca_text.started	subResponse	keyResp.keys	keyResp.rt	ITI_wait	wait_trigger	loca_thermode	Hz_condition	temp_condition	temp_valeur	text.started	text.stopped	participant	brightness	num_part	low	high	com_svr	com_thermode	com_eeg	date	expName	psychopyVersion	frameRate	Unnamed: 39	distance_from_previous	file	step	index	time	type	temp1	temp2	temp3	temp4	temp5	step_num	time_sync
82.87	0	41435	wait	20	0	0	0	0	0.0	0.0	0.0	0.0	60.58846030000132	60.37922400003299	1716316589.0551066	p	82.62666210002499	143.24161189998267	150.5897915000096	150.5897915000096	5.0	['5', 'return']	[3.2340807000291534, 4.009478899999522]	7.34	5.16	0.0	10hz	high_pain	48.9			sub-035	250	35	47.9	48.9	COM11	COM15	COM3	2024-05-21_14h35.47.557	001-EEG_SVR_Officel	2022.2.5	144.4149677035405		82.87	0_sub-pilot035_SVR_EEG_block1-2.protocol.csv	step3	1053	105.121	STIMULATE	48.9	48.9	48.9	48.9	49.0	3	101.983
90.206	0	45103	10hz	3	0	0	0	0	0.0	0.0	0.0	0.0	60.58846030000132	60.37922400003299	1716316589.0551066	p	82.62666210002499	143.24161189998267	150.5897915000096	150.5897915000096	5.0	['5', 'return']	[3.2340807000291534, 4.009478899999522]	7.34	5.16	0.0	10hz	high_pain	48.9			sub-035	250	35	47.9	48.9	COM11	COM15	COM3	2024-05-21_14h35.47.557	001-EEG_SVR_Officel	2022.2.5	144.4149677035405		7.3359999999999985	0_sub-pilot035_SVR_EEG_block1-2.protocol.csv	step3	1053	105.121	STIMULATE	48.9	48.9	48.9	48.9	49.0	3	101.983
96.114	0	48057	10/Hi	1	0	0	0	0	0.0	0.0	0.0	0.0	60.58846030000132	60.37922400003299	1716316589.0551066	p	82.62666210002499	143.24161189998267	150.5897915000096	150.5897915000096	5.0	['5', 'return']	[3.2340807000291534, 4.009478899999522]	7.34	5.16	0.0	10hz	high_pain	48.9			sub-035	250	35	47.9	48.9	COM11	COM15	COM3	2024-05-21_14h35.47.557	001-EEG_SVR_Officel	2022.2.5	144.4149677035405		5.158000000000001	0_sub-pilot035_SVR_EEG_block1-2.protocol.csv	step3	1053	105.121	STIMULATE	48.9	48.9	48.9	48.9	49.0	3	101.983
107.248	0	53624	wait	20	0	0	0	0	1.0	0.0	1.0	0.0						167.6202448999975	175.57228860002942	175.57228860002942	3.0	['3', 'return']	[2.3781778999837115, 3.0661791999591514]	7.94	6.17	1.0	10hz	low_pain	47.9			sub-035	250	35	47.9	48.9	COM11	COM15	COM3	2024-05-21_14h35.47.557	001-EEG_SVR_Officel	2022.2.5	144.4149677035405		11.884	0_sub-pilot035_SVR_EEG_block1-2.protocol.csv	step5	1314	131.005	STIMULATE	47.9	47.9	47.9	47.9	48.0	5	127.867
115.188	0	57594	10hz	3	0	0	0	0	1.0	0.0	1.0	0.0						167.6202448999975	175.57228860002942	175.57228860002942	3.0	['3', 'return']	[2.3781778999837115, 3.0661791999591514]	7.94	6.17	1.0	10hz	low_pain	47.9			sub-035	250	35	47.9	48.9	COM11	COM15	COM3	2024-05-21_14h35.47.557	001-EEG_SVR_Officel	2022.2.5	144.4149677035405		7.939999999999998	0_sub-pilot035_SVR_EEG_block1-2.protocol.csv	step5	1314	131.005	STIMULATE	47.9	47.9	47.9	47.9	48.0	5	127.867
122.11	0	61055	10/Lo	2	0	0	0	0	1.0	0.0	1.0	0.0						167.6202448999975	175.57228860002942	175.57228860002942	3.0	['3', 'return']	[2.3781778999837115, 3.0661791999591514]	7.94	6.17	1.0	10hz	low_pain	47.9			sub-035	250	35	47.9	48.9	COM11	COM15	COM3	2024-05-21_14h35.47.557	001-EEG_SVR_Officel	2022.2.5	144.4149677035405		6.171999999999997	0_sub-pilot035_SVR_EEG_block1-2.protocol.csv	step5	1314	131.005	STIMULATE	47.9	47.9	47.9	47.9	48.0	5	127.867
131.286	0	65643	wait	20	0	0	0	0	2.0	0.0	2.0	0.0						191.65792919998057	198.1372877000249	198.1372877000249	3.5	['3', 'a', '5', 'return']	[2.486088400008157, 2.7823100000387058, 3.0378786000073887, 4.22304820001591]	6.47	5.61	2.0	controle	high_pain	48.9			sub-035	250	35	47.9	48.9	COM11	COM15	COM3	2024-05-21_14h35.47.557	001-EEG_SVR_Officel	2022.2.5	144.4149677035405		9.926000000000002	0_sub-pilot035_SVR_EEG_block1-2.protocol.csv	step7	1537	153.151	STIMULATE	49.0	48.9	48.9	48.9	49.0	7	150.01300000000003
137.754	0	68877	CNhz	12	0	0	0	0	2.0	0.0	2.0	0.0						191.65792919998057	198.1372877000249	198.1372877000249	3.5	['3', 'a', '5', 'return']	[2.486088400008157, 2.7823100000387058, 3.0378786000073887, 4.22304820001591]	6.47	5.61	2.0	controle	high_pain	48.9			sub-035	250	35	47.9	48.9	COM11	COM15	COM3	2024-05-21_14h35.47.557	001-EEG_SVR_Officel	2022.2.5	144.4149677035405		6.467999999999989	0_sub-pilot035_SVR_EEG_block1-2.protocol.csv	step7	1537	153.151	STIMULATE	49.0	48.9	48.9	48.9	49.0	7	150.01300000000003
144.112	0	72056	CN/Hi	10	0	0	0	0	2.0	0.0	2.0	0.0						191.65792919998057	198.1372877000249	198.1372877000249	3.5	['3', 'a', '5', 'return']	[2.486088400008157, 2.7823100000387058, 3.0378786000073887, 4.22304820001591]	6.47	5.61	2.0	controle	high_pain	48.9			sub-035	250	35	47.9	48.9	COM11	COM15	COM3	2024-05-21_14h35.47.557	001-EEG_SVR_Officel	2022.2.5	144.4149677035405		5.608000000000004	0_sub-pilot035_SVR_EEG_block1-2.protocol.csv	step7	1537	153.151	STIMULATE	49.0	48.9	48.9	48.9	49.0	7	150.01300000000003
155.01	0	77505	wait	20	0	0	0	0	3.0	0.0	3.0	0.0						215.38222279999167	222.9317638000357	222.9317638000357	2.0	['2', 'return']	[2.7952828999841586, 3.4598606000072323]	7.54	5.18	3.0	20hz	low_pain	47.9			sub-035	250	35	47.9	48.9	COM11	COM15	COM3	2024-05-21_14h35.47.557	001-EEG_SVR_Officel	2022.2.5	144.4149677035405		11.647999999999996	0_sub-pilot035_SVR_EEG_block1-2.protocol.csv	step9	1782	177.464	STIMULATE	47.9	47.9	47.9	47.9	47.9	9	174.32600000000002
162.548	0	81274	20hz	6	0	0	0	0	3.0	0.0	3.0	0.0						215.38222279999167	222.9317638000357	222.9317638000357	2.0	['2', 'return']	[2.7952828999841586, 3.4598606000072323]	7.54	5.18	3.0	20hz	low_pain	47.9			sub-035	250	35	47.9	48.9	COM11	COM15	COM3	2024-05-21_14h35.47.557	001-EEG_SVR_Officel	2022.2.5	144.4149677035405		7.538000000000011	0_sub-pilot035_SVR_EEG_block1-2.protocol.csv	step9	1782	177.464	STIMULATE	47.9	47.9	47.9	47.9	47.9	9	174.32600000000002
168.476	0	84238	20/Lo	5	0	0	0	0	3.0	0.0	3.0	0.0						215.38222279999167	222.9317638000357	222.9317638000357	2.0	['2', 'return']	[2.7952828999841586, 3.4598606000072323]	7.54	5.18	3.0	20hz	low_pain	47.9			sub-035	250	35	47.9	48.9	COM11	COM15	COM3	2024-05-21_14h35.47.557	001-EEG_SVR_Officel	2022.2.5	144.4149677035405		5.177999999999997	0_sub-pilot035_SVR_EEG_block1-2.protocol.csv	step9	1782	177.464	STIMULATE	47.9	47.9	47.9	47.9	47.9	9	174.32600000000002
179.034	0	89517	wait	20	0	0	0	0	4.0	0.0	4.0	0.0						239.405499799992	245.47623299999395	245.47623299999395	6.0	['6', 'return']	[2.6179434999939986, 3.465214299969375]	6.06	5.15	0.0	40hz	high_pain	48.9			sub-035	250	35	47.9	48.9	COM11	COM15	COM3	2024-05-21_14h35.47.557	001-EEG_SVR_Officel	2022.2.5	144.4149677035405		11.307999999999993	0_sub-pilot035_SVR_EEG_block1-2.protocol.csv	step11	2009	199.957	STIMULATE	48.9	48.9	48.9	48.9	48.9	11	196.81900000000002
185.092	0	92546	40hz	9	0	0	0	0	4.0	0.0	4.0	0.0						239.405499799992	245.47623299999395	245.47623299999395	6.0	['6', 'return']	[2.6179434999939986, 3.465214299969375]	6.06	5.15	0.0	40hz	high_pain	48.9			sub-035	250	35	47.9	48.9	COM11	COM15	COM3	2024-05-21_14h35.47.557	001-EEG_SVR_Officel	2022.2.5	144.4149677035405		6.058000000000021	0_sub-pilot035_SVR_EEG_block1-2.protocol.csv	step11	2009	199.957	STIMULATE	48.9	48.9	48.9	48.9	48.9	11	196.81900000000002
190.994	0	95497	40/Hi	7	0	0	0	0	4.0	0.0	4.0	0.0						239.405499799992	245.47623299999395	245.47623299999395	6.0	['6', 'return']	[2.6179434999939986, 3.465214299969375]	6.06	5.15	0.0	40hz	high_pain	48.9			sub-035	250	35	47.9	48.9	COM11	COM15	COM3	2024-05-21_14h35.47.557	001-EEG_SVR_Officel	2022.2.5	144.4149677035405		5.151999999999987	0_sub-pilot035_SVR_EEG_block1-2.protocol.csv	step11	2009	199.957	STIMULATE	48.9	48.9	48.9	48.9	48.9	11	196.81900000000002
201.586	0	100793	wait	20	0	0	0	0	5.0	0.0	5.0	0.0						261.957859200018	269.638769000012	269.638769000012	2.5	['2', 'a', '5', 'return']	[4.681081600021571, 5.104578100028448, 5.5847833000007086, 6.385363799985498]	7.67	6.44	1.0	controle	high_pain	48.9			sub-035	250	35	47.9	48.9	COM11	COM15	COM3	2024-05-21_14h35.47.557	001-EEG_SVR_Officel	2022.2.5	144.4149677035405		11.342000000000013	0_sub-pilot035_SVR_EEG_block1-2.protocol.csv	step13	2266	225.42	STIMULATE	48.9	48.9	48.9	48.9	49.2	13	222.28199999999998
209.254	0	104627	CNhz	12	0	0	0	0	5.0	0.0	5.0	0.0						261.957859200018	269.638769000012	269.638769000012	2.5	['2', 'a', '5', 'return']	[4.681081600021571, 5.104578100028448, 5.5847833000007086, 6.385363799985498]	7.67	6.44	1.0	controle	high_pain	48.9			sub-035	250	35	47.9	48.9	COM11	COM15	COM3	2024-05-21_14h35.47.557	001-EEG_SVR_Officel	2022.2.5	144.4149677035405		7.667999999999978	0_sub-pilot035_SVR_EEG_block1-2.protocol.csv	step13	2266	225.42	STIMULATE	48.9	48.9	48.9	48.9	49.2	13	222.28199999999998
216.448	0	108224	CN/Hi	10	0	0	0	0	5.0	0.0	5.0	0.0						261.957859200018	269.638769000012	269.638769000012	2.5	['2', 'a', '5', 'return']	[4.681081600021571, 5.104578100028448, 5.5847833000007086, 6.385363799985498]	7.67	6.44	1.0	controle	high_pain	48.9			sub-035	250	35	47.9	48.9	COM11	COM15	COM3	2024-05-21_14h35.47.557	001-EEG_SVR_Officel	2022.2.5	144.4149677035405		6.444000000000017	0_sub-pilot035_SVR_EEG_block1-2.protocol.csv	step13	2266	225.42	STIMULATE	48.9	48.9	48.9	48.9	49.2	13	222.28199999999998
228.672	0	114336	wait	20	0	0	0	0	6.0	0.0	6.0	0.0						289.044321399997	296.7119759999914	296.7119759999914	1.8	['1', 'a', '8', 'return']	[2.558537899982184, 2.911270299984608, 3.4071861999691464, 3.99102319998201]	7.66	5.25	2.0	10hz	low_pain	47.9			sub-035	250	35	47.9	48.9	COM11	COM15	COM3	2024-05-21_14h35.47.557	001-EEG_SVR_Officel	2022.2.5	144.4149677035405		12.97399999999999	0_sub-pilot035_SVR_EEG_block1-2.protocol.csv	step15	2527	251.326	STIMULATE	47.9	47.9	47.9	47.9	47.9	15	248.18800000000002
236.328	0	118164	10hz	3	0	0	0	0	6.0	0.0	6.0	0.0						289.044321399997	296.7119759999914	296.7119759999914	1.8	['1', 'a', '8', 'return']	[2.558537899982184, 2.911270299984608, 3.4071861999691464, 3.99102319998201]	7.66	5.25	2.0	10hz	low_pain	47.9			sub-035	250	35	47.9	48.9	COM11	COM15	COM3	2024-05-21_14h35.47.557	001-EEG_SVR_Officel	2022.2.5	144.4149677035405		7.656000000000006	0_sub-pilot035_SVR_EEG_block1-2.protocol.csv	step15	2527	251.326	STIMULATE	47.9	47.9	47.9	47.9	47.9	15	248.18800000000002
242.326	0	121163	10/Lo	2	0	0	0	0	6.0	0.0	6.0	0.0						289.044321399997	296.7119759999914	296.7119759999914	1.8	['1', 'a', '8', 'return']	[2.558537899982184, 2.911270299984608, 3.4071861999691464, 3.99102319998201]	7.66	5.25	2.0	10hz	low_pain	47.9			sub-035	250	35	47.9	48.9	COM11	COM15	COM3	2024-05-21_14h35.47.557	001-EEG_SVR_Officel	2022.2.5	144.4149677035405		5.2479999999999905	0_sub-pilot035_SVR_EEG_block1-2.protocol.csv	step15	2527	251.326	STIMULATE	47.9	47.9	47.9	47.9	47.9	15	248.18800000000002
253.348	0	126674	wait	20	0	0	0	0	7.0	0.0	7.0	0.0						313.7209008000209	319.867023000028	319.867023000028	3.0	['3', 'return']	[2.404379500017967, 4.028647900035139]	6.14	6.48	3.0	10hz	high_pain	48.9			sub-035	250	35	47.9	48.9	COM11	COM15	COM3	2024-05-21_14h35.47.557	001-EEG_SVR_Officel	2022.2.5	144.4149677035405		11.77200000000002	0_sub-pilot035_SVR_EEG_block1-2.protocol.csv	step17	2772	275.678	STIMULATE	48.9	48.9	48.9	48.9	48.9	17	272.53999999999996
259.482	0	129741	10hz	3	0	0	0	0	7.0	0.0	7.0	0.0						313.7209008000209	319.867023000028	319.867023000028	3.0	['3', 'return']	[2.404379500017967, 4.028647900035139]	6.14	6.48	3.0	10hz	high_pain	48.9			sub-035	250	35	47.9	48.9	COM11	COM15	COM3	2024-05-21_14h35.47.557	001-EEG_SVR_Officel	2022.2.5	144.4149677035405		6.1340000000000146	0_sub-pilot035_SVR_EEG_block1-2.protocol.csv	step17	2772	275.678	STIMULATE	48.9	48.9	48.9	48.9	48.9	17	272.53999999999996
266.718	0	133359	10/Hi	1	0	0	0	0	7.0	0.0	7.0	0.0						313.7209008000209	319.867023000028	319.867023000028	3.0	['3', 'return']	[2.404379500017967, 4.028647900035139]	6.14	6.48	3.0	10hz	high_pain	48.9			sub-035	250	35	47.9	48.9	COM11	COM15	COM3	2024-05-21_14h35.47.557	001-EEG_SVR_Officel	2022.2.5	144.4149677035405		6.48599999999999	0_sub-pilot035_SVR_EEG_block1-2.protocol.csv	step17	2772	275.678	STIMULATE	48.9	48.9	48.9	48.9	48.9	17	272.53999999999996
276.544	0	138272	wait	20	0	0	0	0	8.0	0.0	8.0	0.0						336.9176195000182	344.5784053999814	344.5784053999814	3.5	['3', 'a', '5', 'return']	[2.6538815000094473, 2.8533116999897175, 3.166316699993331, 3.6533433999866247]	7.65	6.19	0.0	40hz	low_pain	47.9			sub-035	250	35	47.9	48.9	COM11	COM15	COM3	2024-05-21_14h35.47.557	001-EEG_SVR_Officel	2022.2.5	144.4149677035405		10.575999999999965	0_sub-pilot035_SVR_EEG_block1-2.protocol.csv	step19	3019	300.131	STIMULATE	47.9	47.9	47.9	47.9	47.9	19	296.99299999999994
284.192	0	142096	40hz	9	0	0	0	0	8.0	0.0	8.0	0.0						336.9176195000182	344.5784053999814	344.5784053999814	3.5	['3', 'a', '5', 'return']	[2.6538815000094473, 2.8533116999897175, 3.166316699993331, 3.6533433999866247]	7.65	6.19	0.0	40hz	low_pain	47.9			sub-035	250	35	47.9	48.9	COM11	COM15	COM3	2024-05-21_14h35.47.557	001-EEG_SVR_Officel	2022.2.5	144.4149677035405		7.648000000000025	0_sub-pilot035_SVR_EEG_block1-2.protocol.csv	step19	3019	300.131	STIMULATE	47.9	47.9	47.9	47.9	47.9	19	296.99299999999994
291.136	0	145568	40/Lo	8	0	0	0	0	8.0	0.0	8.0	0.0						336.9176195000182	344.5784053999814	344.5784053999814	3.5	['3', 'a', '5', 'return']	[2.6538815000094473, 2.8533116999897175, 3.166316699993331, 3.6533433999866247]	7.65	6.19	0.0	40hz	low_pain	47.9			sub-035	250	35	47.9	48.9	COM11	COM15	COM3	2024-05-21_14h35.47.557	001-EEG_SVR_Officel	2022.2.5	144.4149677035405		6.194000000000017	0_sub-pilot035_SVR_EEG_block1-2.protocol.csv	step19	3019	300.131	STIMULATE	47.9	47.9	47.9	47.9	47.9	19	296.99299999999994
300.874	0	150437	wait	20	0	0	0	0	9.0	0.0	9.0	0.0						361.246392400004	367.712984999991	367.712984999991	4.0	['4', 'return']	[2.822414700000081, 3.479274899989832]	6.46	5.07	1.0	10hz	high_pain	48.9			sub-035	250	35	47.9	48.9	COM11	COM15	COM3	2024-05-21_14h35.47.557	001-EEG_SVR_Officel	2022.2.5	144.4149677035405		10.488	0_sub-pilot035_SVR_EEG_block1-2.protocol.csv	step21	3240	322.095	STIMULATE	48.9	48.9	48.9	48.9	49.0	21	318.957
307.328	0	153664	10hz	3	0	0	0	0	9.0	0.0	9.0	0.0						361.246392400004	367.712984999991	367.712984999991	4.0	['4', 'return']	[2.822414700000081, 3.479274899989832]	6.46	5.07	1.0	10hz	high_pain	48.9			sub-035	250	35	47.9	48.9	COM11	COM15	COM3	2024-05-21_14h35.47.557	001-EEG_SVR_Officel	2022.2.5	144.4149677035405		6.453999999999951	0_sub-pilot035_SVR_EEG_block1-2.protocol.csv	step21	3240	322.095	STIMULATE	48.9	48.9	48.9	48.9	49.0	21	318.957
313.146	0	156573	10/Hi	1	0	0	0	0	9.0	0.0	9.0	0.0						361.246392400004	367.712984999991	367.712984999991	4.0	['4', 'return']	[2.822414700000081, 3.479274899989832]	6.46	5.07	1.0	10hz	high_pain	48.9			sub-035	250	35	47.9	48.9	COM11	COM15	COM3	2024-05-21_14h35.47.557	001-EEG_SVR_Officel	2022.2.5	144.4149677035405		5.0680000000000405	0_sub-pilot035_SVR_EEG_block1-2.protocol.csv	step21	3240	322.095	STIMULATE	48.9	48.9	48.9	48.9	49.0	21	318.957
323.834	0	161917	wait	20	0	0	0	0	10.0	0.0	10.0	0.0						384.2080324999988	391.82712879998144	391.82712879998144	5.0	['5', 'return']	[2.261119399976451, 2.821143999986816]	7.61	5.24	2.0	20hz	high_pain	48.9			sub-035	250	35	47.9	48.9	COM11	COM15	COM3	2024-05-21_14h35.47.557	001-EEG_SVR_Officel	2022.2.5	144.4149677035405		11.437999999999988	0_sub-pilot035_SVR_EEG_block1-2.protocol.csv	step23	3486	346.456	STIMULATE	48.9	48.9	48.9	48.9	48.9	23	343.318
331.442	0	165721	20hz	6	0	0	0	0	10.0	0.0	10.0	0.0						384.2080324999988	391.82712879998144	391.82712879998144	5.0	['5', 'return']	[2.261119399976451, 2.821143999986816]	7.61	5.24	2.0	20hz	high_pain	48.9			sub-035	250	35	47.9	48.9	COM11	COM15	COM3	2024-05-21_14h35.47.557	001-EEG_SVR_Officel	2022.2.5	144.4149677035405		7.608000000000004	0_sub-pilot035_SVR_EEG_block1-2.protocol.csv	step23	3486	346.456	STIMULATE	48.9	48.9	48.9	48.9	48.9	23	343.318
337.434	0	168717	20/Hi	4	0	0	0	0	10.0	0.0	10.0	0.0						384.2080324999988	391.82712879998144	391.82712879998144	5.0	['5', 'return']	[2.261119399976451, 2.821143999986816]	7.61	5.24	2.0	20hz	high_pain	48.9			sub-035	250	35	47.9	48.9	COM11	COM15	COM3	2024-05-21_14h35.47.557	001-EEG_SVR_Officel	2022.2.5	144.4149677035405		5.242000000000019	0_sub-pilot035_SVR_EEG_block1-2.protocol.csv	step23	3486	346.456	STIMULATE	48.9	48.9	48.9	48.9	48.9	23	343.318
347.288	0	173644	wait	20	0	0	0	0	11.0	0.0	11.0	0.0						407.6611947999918	413.0587913999916	413.0587913999916	2.0	['2', 'return']	[2.452663699979894, 3.492802699969616]	5.39	6.16	3.0	40hz	low_pain	47.9			sub-035	250	35	47.9	48.9	COM11	COM15	COM3	2024-05-21_14h35.47.557	001-EEG_SVR_Officel	2022.2.5	144.4149677035405		10.603999999999985	0_sub-pilot035_SVR_EEG_block1-2.protocol.csv	step25	3710	368.617	STIMULATE	47.9	47.9	47.9	47.9	47.9	25	365.47900000000004
352.674	0	176337	40hz	9	0	0	0	0	11.0	0.0	11.0	0.0						407.6611947999918	413.0587913999916	413.0587913999916	2.0	['2', 'return']	[2.452663699979894, 3.492802699969616]	5.39	6.16	3.0	40hz	low_pain	47.9			sub-035	250	35	47.9	48.9	COM11	COM15	COM3	2024-05-21_14h35.47.557	001-EEG_SVR_Officel	2022.2.5	144.4149677035405		5.385999999999967	0_sub-pilot035_SVR_EEG_block1-2.protocol.csv	step25	3710	368.617	STIMULATE	47.9	47.9	47.9	47.9	47.9	25	365.47900000000004
359.582	0	179791	40/Lo	8	0	0	0	0	11.0	0.0	11.0	0.0						407.6611947999918	413.0587913999916	413.0587913999916	2.0	['2', 'return']	[2.452663699979894, 3.492802699969616]	5.39	6.16	3.0	40hz	low_pain	47.9			sub-035	250	35	47.9	48.9	COM11	COM15	COM3	2024-05-21_14h35.47.557	001-EEG_SVR_Officel	2022.2.5	144.4149677035405		6.1580000000000155	0_sub-pilot035_SVR_EEG_block1-2.protocol.csv	step25	3710	368.617	STIMULATE	47.9	47.9	47.9	47.9	47.9	25	365.47900000000004
369.194	0	184597	wait	20	0	0	0	0	12.0	0.0	12.0	0.0						429.56762889999663	435.61694700003136	435.61694700003136	3.5	['3', 'a', '5', 'return']	[2.622624800016638, 2.8303751000203192, 3.1337488999706693, 3.7186743000056595]	6.04	6.19	0.0	20hz	low_pain	47.9			sub-035	250	35	47.9	48.9	COM11	COM15	COM3	2024-05-21_14h35.47.557	001-EEG_SVR_Officel	2022.2.5	144.4149677035405		10.362000000000023	0_sub-pilot035_SVR_EEG_block1-2.protocol.csv	step27	3937	391.178	STIMULATE	47.9	47.9	47.9	47.9	47.9	27	388.03999999999996
375.232	0	187616	20hz	6	0	0	0	0	12.0	0.0	12.0	0.0						429.56762889999663	435.61694700003136	435.61694700003136	3.5	['3', 'a', '5', 'return']	[2.622624800016638, 2.8303751000203192, 3.1337488999706693, 3.7186743000056595]	6.04	6.19	0.0	20hz	low_pain	47.9			sub-035	250	35	47.9	48.9	COM11	COM15	COM3	2024-05-21_14h35.47.557	001-EEG_SVR_Officel	2022.2.5	144.4149677035405		6.038000000000011	0_sub-pilot035_SVR_EEG_block1-2.protocol.csv	step27	3937	391.178	STIMULATE	47.9	47.9	47.9	47.9	47.9	27	388.03999999999996
382.174	0	191087	20/Lo	5	0	0	0	0	12.0	0.0	12.0	0.0						429.56762889999663	435.61694700003136	435.61694700003136	3.5	['3', 'a', '5', 'return']	[2.622624800016638, 2.8303751000203192, 3.1337488999706693, 3.7186743000056595]	6.04	6.19	0.0	20hz	low_pain	47.9			sub-035	250	35	47.9	48.9	COM11	COM15	COM3	2024-05-21_14h35.47.557	001-EEG_SVR_Officel	2022.2.5	144.4149677035405		6.19199999999995	0_sub-pilot035_SVR_EEG_block1-2.protocol.csv	step27	3937	391.178	STIMULATE	47.9	47.9	47.9	47.9	47.9	27	388.03999999999996
391.974	0	195987	wait	20	0	0	0	0	13.0	0.0	13.0	0.0						452.3477026000037	458.10573770001065	458.10573770001065	2.5	['2', 'a', '5', 'return']	[3.7167275000247173, 3.998464700009208, 4.276840700011235, 4.910311600018758]	5.75	5.95	1.0	20hz	high_pain	48.9			sub-035	250	35	47.9	48.9	COM11	COM15	COM3	2024-05-21_14h35.47.557	001-EEG_SVR_Officel	2022.2.5	144.4149677035405		10.550000000000011	0_sub-pilot035_SVR_EEG_block1-2.protocol.csv	step29	4162	413.45	STIMULATE	48.9	48.9	48.9	48.9	49.0	29	410.312
397.72	0	198860	20hz	6	0	0	0	0	13.0	0.0	13.0	0.0						452.3477026000037	458.10573770001065	458.10573770001065	2.5	['2', 'a', '5', 'return']	[3.7167275000247173, 3.998464700009208, 4.276840700011235, 4.910311600018758]	5.75	5.95	1.0	20hz	high_pain	48.9			sub-035	250	35	47.9	48.9	COM11	COM15	COM3	2024-05-21_14h35.47.557	001-EEG_SVR_Officel	2022.2.5	144.4149677035405		5.746000000000038	0_sub-pilot035_SVR_EEG_block1-2.protocol.csv	step29	4162	413.45	STIMULATE	48.9	48.9	48.9	48.9	49.0	29	410.312
404.42	0	202210	20/Hi	4	0	0	0	0	13.0	0.0	13.0	0.0						452.3477026000037	458.10573770001065	458.10573770001065	2.5	['2', 'a', '5', 'return']	[3.7167275000247173, 3.998464700009208, 4.276840700011235, 4.910311600018758]	5.75	5.95	1.0	20hz	high_pain	48.9			sub-035	250	35	47.9	48.9	COM11	COM15	COM3	2024-05-21_14h35.47.557	001-EEG_SVR_Officel	2022.2.5	144.4149677035405		5.949999999999989	0_sub-pilot035_SVR_EEG_block1-2.protocol.csv	step29	4162	413.45	STIMULATE	48.9	48.9	48.9	48.9	49.0	29	410.312
415.65	0	207825	wait	20	0	0	0	0	14.0	0.0	14.0	0.0						476.02408210001886	482.7753623999888	482.7753623999888	4.5	['4', 'a', '5', 'return']	[2.5280869000125676, 2.7681778999976814, 3.1193118999945, 3.9040832999744453]	6.74	6.23	2.0	40hz	high_pain	48.9			sub-035	250	35	47.9	48.9	COM11	COM15	COM3	2024-05-21_14h35.47.557	001-EEG_SVR_Officel	2022.2.5	144.4149677035405		11.979999999999961	0_sub-pilot035_SVR_EEG_block1-2.protocol.csv	step31	4414	438.443	STIMULATE	49.0	48.9	48.9	48.9	48.9	31	435.30499999999995
422.39	0	211195	40hz	9	0	0	0	0	14.0	0.0	14.0	0.0						476.02408210001886	482.7753623999888	482.7753623999888	4.5	['4', 'a', '5', 'return']	[2.5280869000125676, 2.7681778999976814, 3.1193118999945, 3.9040832999744453]	6.74	6.23	2.0	40hz	high_pain	48.9			sub-035	250	35	47.9	48.9	COM11	COM15	COM3	2024-05-21_14h35.47.557	001-EEG_SVR_Officel	2022.2.5	144.4149677035405		6.740000000000009	0_sub-pilot035_SVR_EEG_block1-2.protocol.csv	step31	4414	438.443	STIMULATE	49.0	48.9	48.9	48.9	48.9	31	435.30499999999995
429.368	0	214684	40/Hi	7	0	0	0	0	14.0	0.0	14.0	0.0						476.02408210001886	482.7753623999888	482.7753623999888	4.5	['4', 'a', '5', 'return']	[2.5280869000125676, 2.7681778999976814, 3.1193118999945, 3.9040832999744453]	6.74	6.23	2.0	40hz	high_pain	48.9			sub-035	250	35	47.9	48.9	COM11	COM15	COM3	2024-05-21_14h35.47.557	001-EEG_SVR_Officel	2022.2.5	144.4149677035405		6.228000000000009	0_sub-pilot035_SVR_EEG_block1-2.protocol.csv	step31	4414	438.443	STIMULATE	49.0	48.9	48.9	48.9	48.9	31	435.30499999999995
439.328	0	219664	wait	20	0	0	0	0	15.0	0.0	15.0	0.0						499.7010705000139	507.45198880002135	507.45198880002135	2.0	['2', 'return']	[3.6683252999791875, 4.356689299980644]	7.74	6.12	3.0	controle	low_pain	47.9			sub-035	250	35	47.9	48.9	COM11	COM15	COM3	2024-05-21_14h35.47.557	001-EEG_SVR_Officel	2022.2.5	144.4149677035405		10.70999999999998	0_sub-pilot035_SVR_EEG_block1-2.protocol.csv	step33	4660	462.91	STIMULATE	47.9	47.9	47.9	47.9	47.9	33	459.77200000000005
447.066	0	223533	CNhz	12	0	0	0	0	15.0	0.0	15.0	0.0						499.7010705000139	507.45198880002135	507.45198880002135	2.0	['2', 'return']	[3.6683252999791875, 4.356689299980644]	7.74	6.12	3.0	controle	low_pain	47.9			sub-035	250	35	47.9	48.9	COM11	COM15	COM3	2024-05-21_14h35.47.557	001-EEG_SVR_Officel	2022.2.5	144.4149677035405		7.7379999999999995	0_sub-pilot035_SVR_EEG_block1-2.protocol.csv	step33	4660	462.91	STIMULATE	47.9	47.9	47.9	47.9	47.9	33	459.77200000000005
453.94	0	226970	CN/Lo	11	0	0	0	0	15.0	0.0	15.0	0.0						499.7010705000139	507.45198880002135	507.45198880002135	2.0	['2', 'return']	[3.6683252999791875, 4.356689299980644]	7.74	6.12	3.0	controle	low_pain	47.9			sub-035	250	35	47.9	48.9	COM11	COM15	COM3	2024-05-21_14h35.47.557	001-EEG_SVR_Officel	2022.2.5	144.4149677035405		6.124000000000024	0_sub-pilot035_SVR_EEG_block1-2.protocol.csv	step33	4660	462.91	STIMULATE	47.9	47.9	47.9	47.9	47.9	33	459.77200000000005
534.728	0	267364	wait	20	1	0	1	0	0.0	0.0	0.0	0.0				p	0.9532172000035644	595.1013734000153	600.6713791000075	600.6713791000075	2.5	['2', 'a', '5', 'return']	[3.2557740000193007, 3.5919357999810018, 3.960907300002873, 4.920237399986945]	5.56	5.21	0.0	controle	low_pain	47.9			sub-035	250	35	47.9	48.9	COM11	COM15	COM3	2024-05-21_14h35.47.557	001-EEG_SVR_Officel	2022.2.5	144.4149677035405		81.53799999999995	0_sub-pilot035_SVR_EEG_block1-2.protocol.csv	step35	5585	555.114	STIMULATE	48.1	47.9	47.9	47.9	47.9	35	551.999
540.284	0	270142	CNhz	12	1	0	1	0	0.0	0.0	0.0	0.0				p	0.9532172000035644	595.1013734000153	600.6713791000075	600.6713791000075	2.5	['2', 'a', '5', 'return']	[3.2557740000193007, 3.5919357999810018, 3.960907300002873, 4.920237399986945]	5.56	5.21	0.0	controle	low_pain	47.9			sub-035	250	35	47.9	48.9	COM11	COM15	COM3	2024-05-21_14h35.47.557	001-EEG_SVR_Officel	2022.2.5	144.4149677035405		5.55600000000004	0_sub-pilot035_SVR_EEG_block1-2.protocol.csv	step35	5585	555.114	STIMULATE	48.1	47.9	47.9	47.9	47.9	35	551.999
546.25	0	273125	CN/Lo	11	1	0	1	0	0.0	0.0	0.0	0.0				p	0.9532172000035644	595.1013734000153	600.6713791000075	600.6713791000075	2.5	['2', 'a', '5', 'return']	[3.2557740000193007, 3.5919357999810018, 3.960907300002873, 4.920237399986945]	5.56	5.21	0.0	controle	low_pain	47.9			sub-035	250	35	47.9	48.9	COM11	COM15	COM3	2024-05-21_14h35.47.557	001-EEG_SVR_Officel	2022.2.5	144.4149677035405		5.216000000000008	0_sub-pilot035_SVR_EEG_block1-2.protocol.csv	step35	5585	555.114	STIMULATE	48.1	47.9	47.9	47.9	47.9	35	551.999
558.236	0	279118	wait	20	1	0	1	0	1.0	0.0	1.0	0.0						618.6109865999897	623.8409330000286	623.8409330000286	3.5	['3', 'a', '5', 'return']	[2.2940233999979682, 2.5506165999686345, 2.8223728999728337, 3.375195699976757]	5.22	6.08	1.0	controle	low_pain	47.9			sub-035	250	35	47.9	48.9	COM11	COM15	COM3	2024-05-21_14h35.47.557	001-EEG_SVR_Officel	2022.2.5	144.4149677035405		12.73599999999999	0_sub-pilot035_SVR_EEG_block1-2.protocol.csv	step37	5828	579.273	STIMULATE	47.9	47.9	47.9	47.8	48.0	37	576.158
563.454	0	281727	CNhz	12	1	0	1	0	1.0	0.0	1.0	0.0						618.6109865999897	623.8409330000286	623.8409330000286	3.5	['3', 'a', '5', 'return']	[2.2940233999979682, 2.5506165999686345, 2.8223728999728337, 3.375195699976757]	5.22	6.08	1.0	controle	low_pain	47.9			sub-035	250	35	47.9	48.9	COM11	COM15	COM3	2024-05-21_14h35.47.557	001-EEG_SVR_Officel	2022.2.5	144.4149677035405		5.217999999999961	0_sub-pilot035_SVR_EEG_block1-2.protocol.csv	step37	5828	579.273	STIMULATE	47.9	47.9	47.9	47.8	48.0	37	576.158
570.286	0	285143	CN/Lo	11	1	0	1	0	1.0	0.0	1.0	0.0						618.6109865999897	623.8409330000286	623.8409330000286	3.5	['3', 'a', '5', 'return']	[2.2940233999979682, 2.5506165999686345, 2.8223728999728337, 3.375195699976757]	5.22	6.08	1.0	controle	low_pain	47.9			sub-035	250	35	47.9	48.9	COM11	COM15	COM3	2024-05-21_14h35.47.557	001-EEG_SVR_Officel	2022.2.5	144.4149677035405		6.081999999999994	0_sub-pilot035_SVR_EEG_block1-2.protocol.csv	step37	5828	579.273	STIMULATE	47.9	47.9	47.9	47.8	48.0	37	576.158
579.856	0	289928	wait	20	1	0	1	0	2.0	0.0	2.0	0.0						640.2310744000133	646.3006272999919	646.3006272999919	4.0	['4', 'return']	[2.449965899984818, 3.1618045999784954]	6.07	5.66	2.0	10hz	high_pain	48.9			sub-035	250	35	47.9	48.9	COM11	COM15	COM3	2024-05-21_14h35.47.557	001-EEG_SVR_Officel	2022.2.5	144.4149677035405		10.32000000000005	0_sub-pilot035_SVR_EEG_block1-2.protocol.csv	step39	6051	601.372	STIMULATE	48.9	48.9	48.9	48.9	48.9	39	598.257
585.92	0	292960	10hz	3	1	0	1	0	2.0	0.0	2.0	0.0						640.2310744000133	646.3006272999919	646.3006272999919	4.0	['4', 'return']	[2.449965899984818, 3.1618045999784954]	6.07	5.66	2.0	10hz	high_pain	48.9			sub-035	250	35	47.9	48.9	COM11	COM15	COM3	2024-05-21_14h35.47.557	001-EEG_SVR_Officel	2022.2.5	144.4149677035405		6.0639999999999645	0_sub-pilot035_SVR_EEG_block1-2.protocol.csv	step39	6051	601.372	STIMULATE	48.9	48.9	48.9	48.9	48.9	39	598.257
592.33	0	296165	10/Hi	1	1	0	1	0	2.0	0.0	2.0	0.0						640.2310744000133	646.3006272999919	646.3006272999919	4.0	['4', 'return']	[2.449965899984818, 3.1618045999784954]	6.07	5.66	2.0	10hz	high_pain	48.9			sub-035	250	35	47.9	48.9	COM11	COM15	COM3	2024-05-21_14h35.47.557	001-EEG_SVR_Officel	2022.2.5	144.4149677035405		5.660000000000082	0_sub-pilot035_SVR_EEG_block1-2.protocol.csv	step39	6051	601.372	STIMULATE	48.9	48.9	48.9	48.9	48.9	39	598.257
602.116	0	301058	wait	20	1	0	1	0	3.0	0.0	3.0	0.0						662.4917238000198	667.6523489999818	667.6523489999818	4.0	['4', 'return']	[1.555001300002914, 2.203657599980943]	5.15	5.28	3.0	40hz	high_pain	48.9			sub-035	250	35	47.9	48.9	COM11	COM15	COM3	2024-05-21_14h35.47.557	001-EEG_SVR_Officel	2022.2.5	144.4149677035405		10.535999999999945	0_sub-pilot035_SVR_EEG_block1-2.protocol.csv	step41	6262	622.293	STIMULATE	48.9	48.9	48.9	48.9	48.9	41	619.178
607.264	0	303632	40hz	9	1	0	1	0	3.0	0.0	3.0	0.0						662.4917238000198	667.6523489999818	667.6523489999818	4.0	['4', 'return']	[1.555001300002914, 2.203657599980943]	5.15	5.28	3.0	40hz	high_pain	48.9			sub-035	250	35	47.9	48.9	COM11	COM15	COM3	2024-05-21_14h35.47.557	001-EEG_SVR_Officel	2022.2.5	144.4149677035405		5.148000000000025	0_sub-pilot035_SVR_EEG_block1-2.protocol.csv	step41	6262	622.293	STIMULATE	48.9	48.9	48.9	48.9	48.9	41	619.178
613.3	0	306650	40/Hi	7	1	0	1	0	3.0	0.0	3.0	0.0						662.4917238000198	667.6523489999818	667.6523489999818	4.0	['4', 'return']	[1.555001300002914, 2.203657599980943]	5.15	5.28	3.0	40hz	high_pain	48.9			sub-035	250	35	47.9	48.9	COM11	COM15	COM3	2024-05-21_14h35.47.557	001-EEG_SVR_Officel	2022.2.5	144.4149677035405		5.2859999999999445	0_sub-pilot035_SVR_EEG_block1-2.protocol.csv	step41	6262	622.293	STIMULATE	48.9	48.9	48.9	48.9	48.9	41	619.178
622.494	0	311247	wait	20	1	0	1	0	4.0	0.0	4.0	0.0						682.868094000034	688.3554368999903	688.3554368999903	3.5	['3', 'a', '5', 'return']	[2.3716597000020556, 2.6123665000195615, 2.9479671000153758, 3.7798210000037216]	5.48	5.68	0.0	10hz	low_pain	47.9			sub-035	250	35	47.9	48.9	COM11	COM15	COM3	2024-05-21_14h35.47.557	001-EEG_SVR_Officel	2022.2.5	144.4149677035405		9.944000000000074	0_sub-pilot035_SVR_EEG_block1-2.protocol.csv	step43	6476	643.453	STIMULATE	47.9	47.9	47.8	47.9	47.9	43	640.338
627.968	0	313984	10hz	3	1	0	1	0	4.0	0.0	4.0	0.0						682.868094000034	688.3554368999903	688.3554368999903	3.5	['3', 'a', '5', 'return']	[2.3716597000020556, 2.6123665000195615, 2.9479671000153758, 3.7798210000037216]	5.48	5.68	0.0	10hz	low_pain	47.9			sub-035	250	35	47.9	48.9	COM11	COM15	COM3	2024-05-21_14h35.47.557	001-EEG_SVR_Officel	2022.2.5	144.4149677035405		5.473999999999933	0_sub-pilot035_SVR_EEG_block1-2.protocol.csv	step43	6476	643.453	STIMULATE	47.9	47.9	47.8	47.9	47.9	43	640.338
634.398	0	317199	10/Lo	2	1	0	1	0	4.0	0.0	4.0	0.0						682.868094000034	688.3554368999903	688.3554368999903	3.5	['3', 'a', '5', 'return']	[2.3716597000020556, 2.6123665000195615, 2.9479671000153758, 3.7798210000037216]	5.48	5.68	0.0	10hz	low_pain	47.9			sub-035	250	35	47.9	48.9	COM11	COM15	COM3	2024-05-21_14h35.47.557	001-EEG_SVR_Officel	2022.2.5	144.4149677035405		5.680000000000064	0_sub-pilot035_SVR_EEG_block1-2.protocol.csv	step43	6476	643.453	STIMULATE	47.9	47.9	47.8	47.9	47.9	43	640.338
644.774	0	322387	wait	20	1	0	1	0	5.0	0.0	5.0	0.0						705.1490946999984	710.9484043000266	710.9484043000266	3.8	['3', 'a', '8', 'return']	[4.171858300047461, 4.579221300024074, 5.187372900021728, 6.122348500008229]	5.79	5.06	1.0	40hz	high_pain	48.9			sub-035	250	35	47.9	48.9	COM11	COM15	COM3	2024-05-21_14h35.47.557	001-EEG_SVR_Officel	2022.2.5	144.4149677035405		11.125999999999976	0_sub-pilot035_SVR_EEG_block1-2.protocol.csv	step45	6698	665.408	STIMULATE	48.9	48.9	48.9	48.9	48.9	45	662.293
650.56	0	325280	40hz	9	1	0	1	0	5.0	0.0	5.0	0.0						705.1490946999984	710.9484043000266	710.9484043000266	3.8	['3', 'a', '8', 'return']	[4.171858300047461, 4.579221300024074, 5.187372900021728, 6.122348500008229]	5.79	5.06	1.0	40hz	high_pain	48.9			sub-035	250	35	47.9	48.9	COM11	COM15	COM3	2024-05-21_14h35.47.557	001-EEG_SVR_Officel	2022.2.5	144.4149677035405		5.7859999999999445	0_sub-pilot035_SVR_EEG_block1-2.protocol.csv	step45	6698	665.408	STIMULATE	48.9	48.9	48.9	48.9	48.9	45	662.293
656.372	0	328186	40/Hi	7	1	0	1	0	5.0	0.0	5.0	0.0						705.1490946999984	710.9484043000266	710.9484043000266	3.8	['3', 'a', '8', 'return']	[4.171858300047461, 4.579221300024074, 5.187372900021728, 6.122348500008229]	5.79	5.06	1.0	40hz	high_pain	48.9			sub-035	250	35	47.9	48.9	COM11	COM15	COM3	2024-05-21_14h35.47.557	001-EEG_SVR_Officel	2022.2.5	144.4149677035405		5.062000000000012	0_sub-pilot035_SVR_EEG_block1-2.protocol.csv	step45	6698	665.408	STIMULATE	48.9	48.9	48.9	48.9	48.9	45	662.293
669.714	0	334857	wait	20	1	0	1	0	6.0	0.0	6.0	0.0						730.0896075000055	735.8611379000358	735.8611379000358	2.5	['2', 'a', '5', 'return']	[5.201411499991082, 5.769981099991128, 6.146656500000972, 7.081881499965675]	5.76	5.88	2.0	40hz	low_pain	47.9			sub-035	250	35	47.9	48.9	COM11	COM15	COM3	2024-05-21_14h35.47.557	001-EEG_SVR_Officel	2022.2.5	144.4149677035405		14.092000000000098	0_sub-pilot035_SVR_EEG_block1-2.protocol.csv	step47	6957	691.15	STIMULATE	47.9	47.9	47.9	47.9	47.9	47	688.035
675.474	0	337737	40hz	9	1	0	1	0	6.0	0.0	6.0	0.0						730.0896075000055	735.8611379000358	735.8611379000358	2.5	['2', 'a', '5', 'return']	[5.201411499991082, 5.769981099991128, 6.146656500000972, 7.081881499965675]	5.76	5.88	2.0	40hz	low_pain	47.9			sub-035	250	35	47.9	48.9	COM11	COM15	COM3	2024-05-21_14h35.47.557	001-EEG_SVR_Officel	2022.2.5	144.4149677035405		5.759999999999991	0_sub-pilot035_SVR_EEG_block1-2.protocol.csv	step47	6957	691.15	STIMULATE	47.9	47.9	47.9	47.9	47.9	47	688.035
682.108	0	341054	40/Lo	8	1	0	1	0	6.0	0.0	6.0	0.0						730.0896075000055	735.8611379000358	735.8611379000358	2.5	['2', 'a', '5', 'return']	[5.201411499991082, 5.769981099991128, 6.146656500000972, 7.081881499965675]	5.76	5.88	2.0	40hz	low_pain	47.9			sub-035	250	35	47.9	48.9	COM11	COM15	COM3	2024-05-21_14h35.47.557	001-EEG_SVR_Officel	2022.2.5	144.4149677035405		5.883999999999901	0_sub-pilot035_SVR_EEG_block1-2.protocol.csv	step47	6957	691.15	STIMULATE	47.9	47.9	47.9	47.9	47.9	47	688.035
695.586	0	347793	wait	20	1	0	1	0	7.0	0.0	7.0	0.0						755.9610173000256	761.0435029999935	761.0435029999935	4.5	['4', 'a', '5', 'return']	[3.4042105000116862, 3.709197200019844, 4.115268300054595, 5.13146390003385]	5.08	6.5	3.0	controle	high_pain	48.9			sub-035	250	35	47.9	48.9	COM11	COM15	COM3	2024-05-21_14h35.47.557	001-EEG_SVR_Officel	2022.2.5	144.4149677035405		14.228000000000065	0_sub-pilot035_SVR_EEG_block1-2.protocol.csv	step49	7217	716.929	STIMULATE	48.9	48.9	48.9	48.9	48.9	49	713.814
700.664	0	350332	CNhz	12	1	0	1	0	7.0	0.0	7.0	0.0						755.9610173000256	761.0435029999935	761.0435029999935	4.5	['4', 'a', '5', 'return']	[3.4042105000116862, 3.709197200019844, 4.115268300054595, 5.13146390003385]	5.08	6.5	3.0	controle	high_pain	48.9			sub-035	250	35	47.9	48.9	COM11	COM15	COM3	2024-05-21_14h35.47.557	001-EEG_SVR_Officel	2022.2.5	144.4149677035405		5.0779999999999745	0_sub-pilot035_SVR_EEG_block1-2.protocol.csv	step49	7217	716.929	STIMULATE	48.9	48.9	48.9	48.9	48.9	49	713.814
707.914	0	353957	CN/Hi	10	1	0	1	0	7.0	0.0	7.0	0.0						755.9610173000256	761.0435029999935	761.0435029999935	4.5	['4', 'a', '5', 'return']	[3.4042105000116862, 3.709197200019844, 4.115268300054595, 5.13146390003385]	5.08	6.5	3.0	controle	high_pain	48.9			sub-035	250	35	47.9	48.9	COM11	COM15	COM3	2024-05-21_14h35.47.557	001-EEG_SVR_Officel	2022.2.5	144.4149677035405		6.5	0_sub-pilot035_SVR_EEG_block1-2.protocol.csv	step49	7217	716.929	STIMULATE	48.9	48.9	48.9	48.9	48.9	49	713.814
718.832	0	359416	wait	20	1	0	1	0	8.0	0.0	8.0	0.0						779.2070234999992	786.1456524999812	786.1456524999812	6.0	['6', 'return']	[3.966214200016111, 4.614534099993762]	6.93	6.28	0.0	controle	high_pain	48.9			sub-035	250	35	47.9	48.9	COM11	COM15	COM3	2024-05-21_14h35.47.557	001-EEG_SVR_Officel	2022.2.5	144.4149677035405		11.668000000000006	0_sub-pilot035_SVR_EEG_block1-2.protocol.csv	step51	7468	741.876	STIMULATE	48.9	48.9	48.9	48.9	48.9	51	738.761
725.758	0	362879	CNhz	12	1	0	1	0	8.0	0.0	8.0	0.0						779.2070234999992	786.1456524999812	786.1456524999812	6.0	['6', 'return']	[3.966214200016111, 4.614534099993762]	6.93	6.28	0.0	controle	high_pain	48.9			sub-035	250	35	47.9	48.9	COM11	COM15	COM3	2024-05-21_14h35.47.557	001-EEG_SVR_Officel	2022.2.5	144.4149677035405		6.926000000000045	0_sub-pilot035_SVR_EEG_block1-2.protocol.csv	step51	7468	741.876	STIMULATE	48.9	48.9	48.9	48.9	48.9	51	738.761
732.79	0	366395	CN/Hi	10	1	0	1	0	8.0	0.0	8.0	0.0						779.2070234999992	786.1456524999812	786.1456524999812	6.0	['6', 'return']	[3.966214200016111, 4.614534099993762]	6.93	6.28	0.0	controle	high_pain	48.9			sub-035	250	35	47.9	48.9	COM11	COM15	COM3	2024-05-21_14h35.47.557	001-EEG_SVR_Officel	2022.2.5	144.4149677035405		6.281999999999925	0_sub-pilot035_SVR_EEG_block1-2.protocol.csv	step51	7468	741.876	STIMULATE	48.9	48.9	48.9	48.9	48.9	51	738.761
743.396	0	371698	wait	20	1	0	1	0	9.0	0.0	9.0	0.0						803.7715350000071	808.8212339000311	808.8212339000311	4.5	['4', 'a', '5', 'return']	[2.4501226999564096, 2.7706400999450125, 3.042161799967289, 3.954723299946636]	5.04	5.0	1.0	20hz	low_pain	47.9			sub-035	250	35	47.9	48.9	COM11	COM15	COM3	2024-05-21_14h35.47.557	001-EEG_SVR_Officel	2022.2.5	144.4149677035405		11.355999999999995	0_sub-pilot035_SVR_EEG_block1-2.protocol.csv	step53	7684	763.309	STIMULATE	47.9	47.9	47.9	47.9	47.9	53	760.194
748.434	0	374217	20hz	6	1	0	1	0	9.0	0.0	9.0	0.0						803.7715350000071	808.8212339000311	808.8212339000311	4.5	['4', 'a', '5', 'return']	[2.4501226999564096, 2.7706400999450125, 3.042161799967289, 3.954723299946636]	5.04	5.0	1.0	20hz	low_pain	47.9			sub-035	250	35	47.9	48.9	COM11	COM15	COM3	2024-05-21_14h35.47.557	001-EEG_SVR_Officel	2022.2.5	144.4149677035405		5.038000000000011	0_sub-pilot035_SVR_EEG_block1-2.protocol.csv	step53	7684	763.309	STIMULATE	47.9	47.9	47.9	47.9	47.9	53	760.194
754.182	0	377091	20/Lo	5	1	0	1	0	9.0	0.0	9.0	0.0						803.7715350000071	808.8212339000311	808.8212339000311	4.5	['4', 'a', '5', 'return']	[2.4501226999564096, 2.7706400999450125, 3.042161799967289, 3.954723299946636]	5.04	5.0	1.0	20hz	low_pain	47.9			sub-035	250	35	47.9	48.9	COM11	COM15	COM3	2024-05-21_14h35.47.557	001-EEG_SVR_Officel	2022.2.5	144.4149677035405		4.998000000000047	0_sub-pilot035_SVR_EEG_block1-2.protocol.csv	step53	7684	763.309	STIMULATE	47.9	47.9	47.9	47.9	47.9	53	760.194
765.412	0	382706	wait	20	1	0	1	0	10.0	0.0	10.0	0.0						825.7885508000036	832.7963015999994	832.7963015999994	3.5	['3', 'a', '5', 'return']	[3.587122199998703, 3.923229700012598, 4.282430100021884, 5.531775199982803]	7.0	6.23	2.0	controle	low_pain	47.9			sub-035	250	35	47.9	48.9	COM11	COM15	COM3	2024-05-21_14h35.47.557	001-EEG_SVR_Officel	2022.2.5	144.4149677035405		11.980000000000018	0_sub-pilot035_SVR_EEG_block1-2.protocol.csv	step55	7936	788.41	STIMULATE	47.9	47.9	47.9	47.9	47.9	55	785.295
772.408	0	386204	CNhz	12	1	0	1	0	10.0	0.0	10.0	0.0						825.7885508000036	832.7963015999994	832.7963015999994	3.5	['3', 'a', '5', 'return']	[3.587122199998703, 3.923229700012598, 4.282430100021884, 5.531775199982803]	7.0	6.23	2.0	controle	low_pain	47.9			sub-035	250	35	47.9	48.9	COM11	COM15	COM3	2024-05-21_14h35.47.557	001-EEG_SVR_Officel	2022.2.5	144.4149677035405		6.995999999999981	0_sub-pilot035_SVR_EEG_block1-2.protocol.csv	step55	7936	788.41	STIMULATE	47.9	47.9	47.9	47.9	47.9	55	785.295
779.394	0	389697	CN/Lo	11	1	0	1	0	10.0	0.0	10.0	0.0						825.7885508000036	832.7963015999994	832.7963015999994	3.5	['3', 'a', '5', 'return']	[3.587122199998703, 3.923229700012598, 4.282430100021884, 5.531775199982803]	7.0	6.23	2.0	controle	low_pain	47.9			sub-035	250	35	47.9	48.9	COM11	COM15	COM3	2024-05-21_14h35.47.557	001-EEG_SVR_Officel	2022.2.5	144.4149677035405		6.23599999999999	0_sub-pilot035_SVR_EEG_block1-2.protocol.csv	step55	7936	788.41	STIMULATE	47.9	47.9	47.9	47.9	47.9	55	785.295
790.972	0	395486	wait	20	1	0	1	0	11.0	0.0	11.0	0.0						851.3471004000166	858.1675140000298	858.1675140000298	3.5	['3', 'a', '5', 'return']	[2.4077860999968834, 2.6649228000314906, 3.0957998000085354, 4.207661600026768]	6.81	5.94	3.0	10hz	low_pain	47.9			sub-035	250	35	47.9	48.9	COM11	COM15	COM3	2024-05-21_14h35.47.557	001-EEG_SVR_Officel	2022.2.5	144.4149677035405		12.327999999999975	0_sub-pilot035_SVR_EEG_block1-2.protocol.csv	step57	8182	813.517	STIMULATE	47.9	47.9	47.9	47.9	47.9	57	810.402
797.78	0	398890	10hz	3	1	0	1	0	11.0	0.0	11.0	0.0						851.3471004000166	858.1675140000298	858.1675140000298	3.5	['3', 'a', '5', 'return']	[2.4077860999968834, 2.6649228000314906, 3.0957998000085354, 4.207661600026768]	6.81	5.94	3.0	10hz	low_pain	47.9			sub-035	250	35	47.9	48.9	COM11	COM15	COM3	2024-05-21_14h35.47.557	001-EEG_SVR_Officel	2022.2.5	144.4149677035405		6.807999999999993	0_sub-pilot035_SVR_EEG_block1-2.protocol.csv	step57	8182	813.517	STIMULATE	47.9	47.9	47.9	47.9	47.9	57	810.402
804.472	0	402236	10/Lo	2	1	0	1	0	11.0	0.0	11.0	0.0						851.3471004000166	858.1675140000298	858.1675140000298	3.5	['3', 'a', '5', 'return']	[2.4077860999968834, 2.6649228000314906, 3.0957998000085354, 4.207661600026768]	6.81	5.94	3.0	10hz	low_pain	47.9			sub-035	250	35	47.9	48.9	COM11	COM15	COM3	2024-05-21_14h35.47.557	001-EEG_SVR_Officel	2022.2.5	144.4149677035405		5.942000000000007	0_sub-pilot035_SVR_EEG_block1-2.protocol.csv	step57	8182	813.517	STIMULATE	47.9	47.9	47.9	47.9	47.9	57	810.402
815.016	0	407508	wait	20	1	0	1	0	12.0	0.0	12.0	0.0						875.3917643000023	883.3302094999817	883.3302094999817	5.5	['5', 'a', '5', 'return']	[3.3002568999654613, 3.5568218999542296, 3.7478051999933086, 4.797687699960079]	7.93	5.63	0.0	20hz	high_pain	48.9			sub-035	250	35	47.9	48.9	COM11	COM15	COM3	2024-05-21_14h35.47.557	001-EEG_SVR_Officel	2022.2.5	144.4149677035405		11.293999999999983	0_sub-pilot035_SVR_EEG_block1-2.protocol.csv	step59	8422	838.382	STIMULATE	48.9	48.9	48.9	48.9	48.9	59	835.2669999999999
822.942	0	411471	20hz	6	1	0	1	0	12.0	0.0	12.0	0.0						875.3917643000023	883.3302094999817	883.3302094999817	5.5	['5', 'a', '5', 'return']	[3.3002568999654613, 3.5568218999542296, 3.7478051999933086, 4.797687699960079]	7.93	5.63	0.0	20hz	high_pain	48.9			sub-035	250	35	47.9	48.9	COM11	COM15	COM3	2024-05-21_14h35.47.557	001-EEG_SVR_Officel	2022.2.5	144.4149677035405		7.926000000000045	0_sub-pilot035_SVR_EEG_block1-2.protocol.csv	step59	8422	838.382	STIMULATE	48.9	48.9	48.9	48.9	48.9	59	835.2669999999999
829.324	0	414662	20/Hi	4	1	0	1	0	12.0	0.0	12.0	0.0						875.3917643000023	883.3302094999817	883.3302094999817	5.5	['5', 'a', '5', 'return']	[3.3002568999654613, 3.5568218999542296, 3.7478051999933086, 4.797687699960079]	7.93	5.63	0.0	20hz	high_pain	48.9			sub-035	250	35	47.9	48.9	COM11	COM15	COM3	2024-05-21_14h35.47.557	001-EEG_SVR_Officel	2022.2.5	144.4149677035405		5.631999999999948	0_sub-pilot035_SVR_EEG_block1-2.protocol.csv	step59	8422	838.382	STIMULATE	48.9	48.9	48.9	48.9	48.9	59	835.2669999999999
840.77	0	420385	wait	20	1	0	1	0	13.0	0.0	13.0	0.0						901.145494700002	907.465411000012	907.465411000012	3.0	['3', 'return']	[2.823150100011844, 3.5820455999928527]	6.31	6.17	1.0	40hz	low_pain	47.9			sub-035	250	35	47.9	48.9	COM11	COM15	COM3	2024-05-21_14h35.47.557	001-EEG_SVR_Officel	2022.2.5	144.4149677035405		12.196000000000026	0_sub-pilot035_SVR_EEG_block1-2.protocol.csv	step61	8658	863.047	STIMULATE	47.9	47.9	47.8	47.8	47.9	61	859.932
847.078	0	423539	40hz	9	1	0	1	0	13.0	0.0	13.0	0.0						901.145494700002	907.465411000012	907.465411000012	3.0	['3', 'return']	[2.823150100011844, 3.5820455999928527]	6.31	6.17	1.0	40hz	low_pain	47.9			sub-035	250	35	47.9	48.9	COM11	COM15	COM3	2024-05-21_14h35.47.557	001-EEG_SVR_Officel	2022.2.5	144.4149677035405		6.307999999999993	0_sub-pilot035_SVR_EEG_block1-2.protocol.csv	step61	8658	863.047	STIMULATE	47.9	47.9	47.8	47.8	47.9	61	859.932
854.0	0	427000	40/Lo	8	1	0	1	0	13.0	0.0	13.0	0.0						901.145494700002	907.465411000012	907.465411000012	3.0	['3', 'return']	[2.823150100011844, 3.5820455999928527]	6.31	6.17	1.0	40hz	low_pain	47.9			sub-035	250	35	47.9	48.9	COM11	COM15	COM3	2024-05-21_14h35.47.557	001-EEG_SVR_Officel	2022.2.5	144.4149677035405		6.1720000000000255	0_sub-pilot035_SVR_EEG_block1-2.protocol.csv	step61	8658	863.047	STIMULATE	47.9	47.9	47.8	47.8	47.9	61	859.932
863.688	0	431844	wait	20	1	0	1	0	14.0	0.0	14.0	0.0						924.064297600009	931.1553234999884	931.1553234999884	2.0	['2', 'return']	[2.9095172999659553, 3.7090841999743134]	7.08	5.97	2.0	20hz	low_pain	47.9			sub-035	250	35	47.9	48.9	COM11	COM15	COM3	2024-05-21_14h35.47.557	001-EEG_SVR_Officel	2022.2.5	144.4149677035405		10.437999999999988	0_sub-pilot035_SVR_EEG_block1-2.protocol.csv	step63	8880	886.488	STIMULATE	47.8	47.9	47.9	47.9	47.9	63	883.373
870.768	0	435384	20hz	6	1	0	1	0	14.0	0.0	14.0	0.0						924.064297600009	931.1553234999884	931.1553234999884	2.0	['2', 'return']	[2.9095172999659553, 3.7090841999743134]	7.08	5.97	2.0	20hz	low_pain	47.9			sub-035	250	35	47.9	48.9	COM11	COM15	COM3	2024-05-21_14h35.47.557	001-EEG_SVR_Officel	2022.2.5	144.4149677035405		7.080000000000041	0_sub-pilot035_SVR_EEG_block1-2.protocol.csv	step63	8880	886.488	STIMULATE	47.8	47.9	47.9	47.9	47.9	63	883.373
877.488	0	438744	20/Lo	5	1	0	1	0	14.0	0.0	14.0	0.0						924.064297600009	931.1553234999884	931.1553234999884	2.0	['2', 'return']	[2.9095172999659553, 3.7090841999743134]	7.08	5.97	2.0	20hz	low_pain	47.9			sub-035	250	35	47.9	48.9	COM11	COM15	COM3	2024-05-21_14h35.47.557	001-EEG_SVR_Officel	2022.2.5	144.4149677035405		5.970000000000027	0_sub-pilot035_SVR_EEG_block1-2.protocol.csv	step63	8880	886.488	STIMULATE	47.8	47.9	47.9	47.9	47.9	63	883.373
887.518	0	443759	wait	20	1	0	1	0	15.0	0.0	15.0	0.0						947.8933989999932	955.262663600035	955.262663600035	5.0	['5', 'return']	[2.520723399997223, 2.96073280001292]	7.36	5.99	3.0	20hz	high_pain	48.9			sub-035	250	35	47.9	48.9	COM11	COM15	COM3	2024-05-21_14h35.47.557	001-EEG_SVR_Officel	2022.2.5	144.4149677035405		10.779999999999973	0_sub-pilot035_SVR_EEG_block1-2.protocol.csv	step65	9107	910.74	STIMULATE	48.9	48.9	48.9	48.9	48.9	65	907.625
894.874	0	447437	20hz	6	1	0	1	0	15.0	0.0	15.0	0.0						947.8933989999932	955.262663600035	955.262663600035	5.0	['5', 'return']	[2.520723399997223, 2.96073280001292]	7.36	5.99	3.0	20hz	high_pain	48.9			sub-035	250	35	47.9	48.9	COM11	COM15	COM3	2024-05-21_14h35.47.557	001-EEG_SVR_Officel	2022.2.5	144.4149677035405		7.3559999999999945	0_sub-pilot035_SVR_EEG_block1-2.protocol.csv	step65	9107	910.74	STIMULATE	48.9	48.9	48.9	48.9	48.9	65	907.625
901.616	0	450808	20/Hi	4	1	0	1	0	15.0	0.0	15.0	0.0						947.8933989999932	955.262663600035	955.262663600035	5.0	['5', 'return']	[2.520723399997223, 2.96073280001292]	7.36	5.99	3.0	20hz	high_pain	48.9			sub-035	250	35	47.9	48.9	COM11	COM15	COM3	2024-05-21_14h35.47.557	001-EEG_SVR_Officel	2022.2.5	144.4149677035405		5.991999999999962	0_sub-pilot035_SVR_EEG_block1-2.protocol.csv	step65	9107	910.74	STIMULATE	48.9	48.9	48.9	48.9	48.9	65	907.625
1001.676	0	500838	wait	20	2	0	2	0	0.0	0.0	0.0	0.0				p	0.7314845999935642	1062.0530035999836	1067.213176099991	1067.213176099991	5.0	['5', 'return']	[2.4340361999929883, 2.9942797999829054]	5.15	6.31	0.0	10hz	high_pain	48.9			sub-035	250	35	47.9	48.9	COM11	COM15	COM3	2024-05-21_14h35.47.557	001-EEG_SVR_Officel	2022.2.5	144.4149677035405		100.81000000000006	1_sub-pilot035_SVR_EEG_block3-4.protocol.csv	step3	1008	100.617	STIMULATE	48.9	48.9	48.9	48.9	48.8	3	1019.7429999999999
1006.824	0	503412	10hz	3	2	0	2	0	0.0	0.0	0.0	0.0				p	0.7314845999935642	1062.0530035999836	1067.213176099991	1067.213176099991	5.0	['5', 'return']	[2.4340361999929883, 2.9942797999829054]	5.15	6.31	0.0	10hz	high_pain	48.9			sub-035	250	35	47.9	48.9	COM11	COM15	COM3	2024-05-21_14h35.47.557	001-EEG_SVR_Officel	2022.2.5	144.4149677035405		5.147999999999911	1_sub-pilot035_SVR_EEG_block3-4.protocol.csv	step3	1008	100.617	STIMULATE	48.9	48.9	48.9	48.9	48.8	3	1019.7429999999999
1013.886	0	506943	10/Hi	1	2	0	2	0	0.0	0.0	0.0	0.0				p	0.7314845999935642	1062.0530035999836	1067.213176099991	1067.213176099991	5.0	['5', 'return']	[2.4340361999929883, 2.9942797999829054]	5.15	6.31	0.0	10hz	high_pain	48.9			sub-035	250	35	47.9	48.9	COM11	COM15	COM3	2024-05-21_14h35.47.557	001-EEG_SVR_Officel	2022.2.5	144.4149677035405		6.312000000000012	1_sub-pilot035_SVR_EEG_block3-4.protocol.csv	step3	1008	100.617	STIMULATE	48.9	48.9	48.9	48.9	48.8	3	1019.7429999999999
1022.844	0	511422	wait	20	2	0	2	0	1.0	0.0	1.0	0.0						1083.2220297000022	1088.4795870999806	1088.4795870999806	4.5	['4', 'a', '5', 'return']	[2.967051200044807, 3.2080051000230014, 3.455977100005839, 4.063146700034849]	5.25	5.56	1.0	20hz	high_pain	48.9			sub-035	250	35	47.9	48.9	COM11	COM15	COM3	2024-05-21_14h35.47.557	001-EEG_SVR_Officel	2022.2.5	144.4149677035405		9.708000000000084	1_sub-pilot035_SVR_EEG_block3-4.protocol.csv	step5	1215	121.111	STIMULATE	48.9	48.9	48.9	48.9	49.0	5	1040.237
1028.09	0	514044	20hz	6	2	0	2	0	1.0	0.0	1.0	0.0						1083.2220297000022	1088.4795870999806	1088.4795870999806	4.5	['4', 'a', '5', 'return']	[2.967051200044807, 3.2080051000230014, 3.455977100005839, 4.063146700034849]	5.25	5.56	1.0	20hz	high_pain	48.9			sub-035	250	35	47.9	48.9	COM11	COM15	COM3	2024-05-21_14h35.47.557	001-EEG_SVR_Officel	2022.2.5	144.4149677035405		5.245999999999867	1_sub-pilot035_SVR_EEG_block3-4.protocol.csv	step5	1215	121.111	STIMULATE	48.9	48.9	48.9	48.9	49.0	5	1040.237
1034.402	0	517201	20/Hi	4	2	0	2	0	1.0	0.0	1.0	0.0						1083.2220297000022	1088.4795870999806	1088.4795870999806	4.5	['4', 'a', '5', 'return']	[2.967051200044807, 3.2080051000230014, 3.455977100005839, 4.063146700034849]	5.25	5.56	1.0	20hz	high_pain	48.9			sub-035	250	35	47.9	48.9	COM11	COM15	COM3	2024-05-21_14h35.47.557	001-EEG_SVR_Officel	2022.2.5	144.4149677035405		5.5620000000001255	1_sub-pilot035_SVR_EEG_block3-4.protocol.csv	step5	1215	121.111	STIMULATE	48.9	48.9	48.9	48.9	49.0	5	1040.237
1045.188	0	522594	wait	20	2	0	2	0	2.0	0.0	2.0	0.0						1105.564941300021	1112.142292500008	1112.142292500008	4.0	['4', 'return']	[2.1851358999847434, 2.8011855999939144]	6.57	5.49	2.0	10hz	low_pain	47.9			sub-035	250	35	47.9	48.9	COM11	COM15	COM3	2024-05-21_14h35.47.557	001-EEG_SVR_Officel	2022.2.5	144.4149677035405		11.536000000000058	1_sub-pilot035_SVR_EEG_block3-4.protocol.csv	step7	1452	144.662	STIMULATE	47.9	47.9	47.9	47.9	47.9	7	1063.788
1051.752	0	525876	10hz	3	2	0	2	0	2.0	0.0	2.0	0.0						1105.564941300021	1112.142292500008	1112.142292500008	4.0	['4', 'return']	[2.1851358999847434, 2.8011855999939144]	6.57	5.49	2.0	10hz	low_pain	47.9			sub-035	250	35	47.9	48.9	COM11	COM15	COM3	2024-05-21_14h35.47.557	001-EEG_SVR_Officel	2022.2.5	144.4149677035405		6.563999999999851	1_sub-pilot035_SVR_EEG_block3-4.protocol.csv	step7	1452	144.662	STIMULATE	47.9	47.9	47.9	47.9	47.9	7	1063.788
1057.994	0	528997	10/Lo	2	2	0	2	0	2.0	0.0	2.0	0.0						1105.564941300021	1112.142292500008	1112.142292500008	4.0	['4', 'return']	[2.1851358999847434, 2.8011855999939144]	6.57	5.49	2.0	10hz	low_pain	47.9			sub-035	250	35	47.9	48.9	COM11	COM15	COM3	2024-05-21_14h35.47.557	001-EEG_SVR_Officel	2022.2.5	144.4149677035405		5.491999999999962	1_sub-pilot035_SVR_EEG_block3-4.protocol.csv	step7	1452	144.662	STIMULATE	47.9	47.9	47.9	47.9	47.9	7	1063.788
1067.58	0	533790	wait	20	2	0	2	0	3.0	0.0	3.0	0.0						1127.956506700022	1134.777152499999	1134.777152499999	5.0	['5', 'return']	[2.0626192000345327, 2.631678300036583]	6.81	6.37	3.0	20hz	high_pain	48.9			sub-035	250	35	47.9	48.9	COM11	COM15	COM3	2024-05-21_14h35.47.557	001-EEG_SVR_Officel	2022.2.5	144.4149677035405		10.336000000000013	1_sub-pilot035_SVR_EEG_block3-4.protocol.csv	step9	1690	168.218	STIMULATE	48.9	48.9	48.9	48.9	48.9	9	1087.344
1074.388	0	537194	20hz	6	2	0	2	0	3.0	0.0	3.0	0.0						1127.956506700022	1134.777152499999	1134.777152499999	5.0	['5', 'return']	[2.0626192000345327, 2.631678300036583]	6.81	6.37	3.0	20hz	high_pain	48.9			sub-035	250	35	47.9	48.9	COM11	COM15	COM3	2024-05-21_14h35.47.557	001-EEG_SVR_Officel	2022.2.5	144.4149677035405		6.807999999999993	1_sub-pilot035_SVR_EEG_block3-4.protocol.csv	step9	1690	168.218	STIMULATE	48.9	48.9	48.9	48.9	48.9	9	1087.344
1081.514	0	540757	20/Hi	4	2	0	2	0	3.0	0.0	3.0	0.0						1127.956506700022	1134.777152499999	1134.777152499999	5.0	['5', 'return']	[2.0626192000345327, 2.631678300036583]	6.81	6.37	3.0	20hz	high_pain	48.9			sub-035	250	35	47.9	48.9	COM11	COM15	COM3	2024-05-21_14h35.47.557	001-EEG_SVR_Officel	2022.2.5	144.4149677035405		6.375999999999976	1_sub-pilot035_SVR_EEG_block3-4.protocol.csv	step9	1690	168.218	STIMULATE	48.9	48.9	48.9	48.9	48.9	9	1087.344
1090.048	0	545024	wait	20	2	0	2	0	4.0	0.0	4.0	0.0						1150.425246500003	1157.6059619000298	1157.6059619000298	5.0	['5', 'return']	[3.2495787999941967, 3.9928445999976248]	7.17	5.8	0.0	20hz	high_pain	48.9			sub-035	250	35	47.9	48.9	COM11	COM15	COM3	2024-05-21_14h35.47.557	001-EEG_SVR_Officel	2022.2.5	144.4149677035405		9.284000000000106	1_sub-pilot035_SVR_EEG_block3-4.protocol.csv	step11	1915	190.514	STIMULATE	48.9	48.9	48.9	48.9	48.9	11	1109.6399999999999
1097.216	0	548608	20hz	6	2	0	2	0	4.0	0.0	4.0	0.0						1150.425246500003	1157.6059619000298	1157.6059619000298	5.0	['5', 'return']	[3.2495787999941967, 3.9928445999976248]	7.17	5.8	0.0	20hz	high_pain	48.9			sub-035	250	35	47.9	48.9	COM11	COM15	COM3	2024-05-21_14h35.47.557	001-EEG_SVR_Officel	2022.2.5	144.4149677035405		7.167999999999893	1_sub-pilot035_SVR_EEG_block3-4.protocol.csv	step11	1915	190.514	STIMULATE	48.9	48.9	48.9	48.9	48.9	11	1109.6399999999999
1103.772	0	551886	20/Hi	4	2	0	2	0	4.0	0.0	4.0	0.0						1150.425246500003	1157.6059619000298	1157.6059619000298	5.0	['5', 'return']	[3.2495787999941967, 3.9928445999976248]	7.17	5.8	0.0	20hz	high_pain	48.9			sub-035	250	35	47.9	48.9	COM11	COM15	COM3	2024-05-21_14h35.47.557	001-EEG_SVR_Officel	2022.2.5	144.4149677035405		5.80600000000004	1_sub-pilot035_SVR_EEG_block3-4.protocol.csv	step11	1915	190.514	STIMULATE	48.9	48.9	48.9	48.9	48.9	11	1109.6399999999999
1114.238	0	557119	wait	20	2	0	2	0	5.0	0.0	5.0	0.0						1174.614880500012	1181.0119497000123	1181.0119497000123	4.8	['4', 'a', '8', 'return']	[2.4110079999663867, 2.675337499997113, 3.171142700011842, 3.6830755000119098]	6.39	6.08	1.0	40hz	low_pain	47.9			sub-035	250	35	47.9	48.9	COM11	COM15	COM3	2024-05-21_14h35.47.557	001-EEG_SVR_Officel	2022.2.5	144.4149677035405		11.216000000000122	1_sub-pilot035_SVR_EEG_block3-4.protocol.csv	step13	2154	214.208	STIMULATE	47.9	47.9	47.9	47.9	47.9	13	1133.334
1120.622	0	560311	40hz	9	2	0	2	0	5.0	0.0	5.0	0.0						1174.614880500012	1181.0119497000123	1181.0119497000123	4.8	['4', 'a', '8', 'return']	[2.4110079999663867, 2.675337499997113, 3.171142700011842, 3.6830755000119098]	6.39	6.08	1.0	40hz	low_pain	47.9			sub-035	250	35	47.9	48.9	COM11	COM15	COM3	2024-05-21_14h35.47.557	001-EEG_SVR_Officel	2022.2.5	144.4149677035405		6.3840000000000146	1_sub-pilot035_SVR_EEG_block3-4.protocol.csv	step13	2154	214.208	STIMULATE	47.9	47.9	47.9	47.9	47.9	13	1133.334
1127.454	0	563727	40/Lo	8	2	0	2	0	5.0	0.0	5.0	0.0						1174.614880500012	1181.0119497000123	1181.0119497000123	4.8	['4', 'a', '8', 'return']	[2.4110079999663867, 2.675337499997113, 3.171142700011842, 3.6830755000119098]	6.39	6.08	1.0	40hz	low_pain	47.9			sub-035	250	35	47.9	48.9	COM11	COM15	COM3	2024-05-21_14h35.47.557	001-EEG_SVR_Officel	2022.2.5	144.4149677035405		6.08199999999988	1_sub-pilot035_SVR_EEG_block3-4.protocol.csv	step13	2154	214.208	STIMULATE	47.9	47.9	47.9	47.9	47.9	13	1133.334
1137.33	0	568665	wait	20	2	0	2	0	6.0	0.0	6.0	0.0						1197.7078833000269	1203.549005799985	1203.549005799985	4.0	['4', 'return']	[2.5388458999805152, 3.163465499994345]	5.83	5.49	2.0	20hz	low_pain	47.9			sub-035	250	35	47.9	48.9	COM11	COM15	COM3	2024-05-21_14h35.47.557	001-EEG_SVR_Officel	2022.2.5	144.4149677035405		10.625999999999976	1_sub-pilot035_SVR_EEG_block3-4.protocol.csv	step15	2374	236.014	STIMULATE	48.0	47.9	47.9	47.9	47.9	15	1155.1399999999999
1143.16	0	571580	20hz	6	2	0	2	0	6.0	0.0	6.0	0.0						1197.7078833000269	1203.549005799985	1203.549005799985	4.0	['4', 'return']	[2.5388458999805152, 3.163465499994345]	5.83	5.49	2.0	20hz	low_pain	47.9			sub-035	250	35	47.9	48.9	COM11	COM15	COM3	2024-05-21_14h35.47.557	001-EEG_SVR_Officel	2022.2.5	144.4149677035405		5.830000000000155	1_sub-pilot035_SVR_EEG_block3-4.protocol.csv	step15	2374	236.014	STIMULATE	48.0	47.9	47.9	47.9	47.9	15	1155.1399999999999
1149.4	0	574700	20/Lo	5	2	0	2	0	6.0	0.0	6.0	0.0						1197.7078833000269	1203.549005799985	1203.549005799985	4.0	['4', 'return']	[2.5388458999805152, 3.163465499994345]	5.83	5.49	2.0	20hz	low_pain	47.9			sub-035	250	35	47.9	48.9	COM11	COM15	COM3	2024-05-21_14h35.47.557	001-EEG_SVR_Officel	2022.2.5	144.4149677035405		5.490000000000009	1_sub-pilot035_SVR_EEG_block3-4.protocol.csv	step15	2374	236.014	STIMULATE	48.0	47.9	47.9	47.9	47.9	15	1155.1399999999999
1159.346	0	579673	wait	20	2	0	2	0	7.0	0.0	7.0	0.0						1219.723614800023	1227.398993299983	1227.398993299983	5.0	['5', 'return']	[2.2249587000114843, 2.7756046000286005]	7.66	6.31	3.0	10hz	high_pain	48.9			sub-035	250	35	47.9	48.9	COM11	COM15	COM3	2024-05-21_14h35.47.557	001-EEG_SVR_Officel	2022.2.5	144.4149677035405		10.695999999999913	1_sub-pilot035_SVR_EEG_block3-4.protocol.csv	step17	2623	260.72	STIMULATE	48.9	48.9	48.9	48.9	48.9	17	1179.846
1167.01	0	583505	10hz	3	2	0	2	0	7.0	0.0	7.0	0.0						1219.723614800023	1227.398993299983	1227.398993299983	5.0	['5', 'return']	[2.2249587000114843, 2.7756046000286005]	7.66	6.31	3.0	10hz	high_pain	48.9			sub-035	250	35	47.9	48.9	COM11	COM15	COM3	2024-05-21_14h35.47.557	001-EEG_SVR_Officel	2022.2.5	144.4149677035405		7.663999999999987	1_sub-pilot035_SVR_EEG_block3-4.protocol.csv	step17	2623	260.72	STIMULATE	48.9	48.9	48.9	48.9	48.9	17	1179.846
1174.072	0	587036	10/Hi	1	2	0	2	0	7.0	0.0	7.0	0.0						1219.723614800023	1227.398993299983	1227.398993299983	5.0	['5', 'return']	[2.2249587000114843, 2.7756046000286005]	7.66	6.31	3.0	10hz	high_pain	48.9			sub-035	250	35	47.9	48.9	COM11	COM15	COM3	2024-05-21_14h35.47.557	001-EEG_SVR_Officel	2022.2.5	144.4149677035405		6.311999999999898	1_sub-pilot035_SVR_EEG_block3-4.protocol.csv	step17	2623	260.72	STIMULATE	48.9	48.9	48.9	48.9	48.9	17	1179.846
1182.816	0	591408	wait	20	2	0	2	0	8.0	0.0	8.0	0.0						1243.192690099997	1249.1451838000212	1249.1451838000212	5.5	['5', 'a', '5', 'return']	[2.5246761000016704, 2.867324099992402, 3.019846700015478, 4.60374370001955]	5.94	5.28	0.0	controle	low_pain	47.9			sub-035	250	35	47.9	48.9	COM11	COM15	COM3	2024-05-21_14h35.47.557	001-EEG_SVR_Officel	2022.2.5	144.4149677035405		9.494000000000142	1_sub-pilot035_SVR_EEG_block3-4.protocol.csv	step19	2833	281.553	STIMULATE	47.9	47.9	47.9	47.9	47.9	19	1200.679
1188.754	0	594377	CNhz	12	2	0	2	0	8.0	0.0	8.0	0.0						1243.192690099997	1249.1451838000212	1249.1451838000212	5.5	['5', 'a', '5', 'return']	[2.5246761000016704, 2.867324099992402, 3.019846700015478, 4.60374370001955]	5.94	5.28	0.0	controle	low_pain	47.9			sub-035	250	35	47.9	48.9	COM11	COM15	COM3	2024-05-21_14h35.47.557	001-EEG_SVR_Officel	2022.2.5	144.4149677035405		5.9379999999998745	1_sub-pilot035_SVR_EEG_block3-4.protocol.csv	step19	2833	281.553	STIMULATE	47.9	47.9	47.9	47.9	47.9	19	1200.679
1194.788	0	597394	CN/Lo	11	2	0	2	0	8.0	0.0	8.0	0.0						1243.192690099997	1249.1451838000212	1249.1451838000212	5.5	['5', 'a', '5', 'return']	[2.5246761000016704, 2.867324099992402, 3.019846700015478, 4.60374370001955]	5.94	5.28	0.0	controle	low_pain	47.9			sub-035	250	35	47.9	48.9	COM11	COM15	COM3	2024-05-21_14h35.47.557	001-EEG_SVR_Officel	2022.2.5	144.4149677035405		5.2840000000001055	1_sub-pilot035_SVR_EEG_block3-4.protocol.csv	step19	2833	281.553	STIMULATE	47.9	47.9	47.9	47.9	47.9	19	1200.679
1206.394	0	603197	wait	20	2	0	2	0	9.0	0.0	9.0	0.0						1266.7724500999902	1272.1619371999986	1272.1619371999986	3.0	['3', 'return']	[2.909619099984411, 4.694355099985842]	5.38	5.27	1.0	10hz	low_pain	47.9			sub-035	250	35	47.9	48.9	COM11	COM15	COM3	2024-05-21_14h35.47.557	001-EEG_SVR_Officel	2022.2.5	144.4149677035405		12.355999999999995	1_sub-pilot035_SVR_EEG_block3-4.protocol.csv	step21	3065	304.573	STIMULATE	48.0	47.9	47.9	47.9	47.9	21	1223.699
1211.772	0	605886	10hz	3	2	0	2	0	9.0	0.0	9.0	0.0						1266.7724500999902	1272.1619371999986	1272.1619371999986	3.0	['3', 'return']	[2.909619099984411, 4.694355099985842]	5.38	5.27	1.0	10hz	low_pain	47.9			sub-035	250	35	47.9	48.9	COM11	COM15	COM3	2024-05-21_14h35.47.557	001-EEG_SVR_Officel	2022.2.5	144.4149677035405		5.377999999999929	1_sub-pilot035_SVR_EEG_block3-4.protocol.csv	step21	3065	304.573	STIMULATE	48.0	47.9	47.9	47.9	47.9	21	1223.699
1217.792	0	608896	10/Lo	2	2	0	2	0	9.0	0.0	9.0	0.0						1266.7724500999902	1272.1619371999986	1272.1619371999986	3.0	['3', 'return']	[2.909619099984411, 4.694355099985842]	5.38	5.27	1.0	10hz	low_pain	47.9			sub-035	250	35	47.9	48.9	COM11	COM15	COM3	2024-05-21_14h35.47.557	001-EEG_SVR_Officel	2022.2.5	144.4149677035405		5.269999999999982	1_sub-pilot035_SVR_EEG_block3-4.protocol.csv	step21	3065	304.573	STIMULATE	48.0	47.9	47.9	47.9	47.9	21	1223.699
1229.486	0	614743	wait	20	2	0	2	0	10.0	0.0	10.0	0.0						1289.86430820002	1297.212960600038	1297.212960600038	5.5	['5', 'a', '5', 'return']	[2.6017468000063673, 2.873818400024902, 3.0262569000478834, 3.7231795000261627]	7.34	5.27	2.0	controle	high_pain	48.9			sub-035	250	35	47.9	48.9	COM11	COM15	COM3	2024-05-21_14h35.47.557	001-EEG_SVR_Officel	2022.2.5	144.4149677035405		12.444000000000187	1_sub-pilot035_SVR_EEG_block3-4.protocol.csv	step23	3317	329.591	STIMULATE	48.9	48.9	48.9	48.9	48.9	23	1248.717
1236.824	0	618412	CNhz	12	2	0	2	0	10.0	0.0	10.0	0.0						1289.86430820002	1297.212960600038	1297.212960600038	5.5	['5', 'a', '5', 'return']	[2.6017468000063673, 2.873818400024902, 3.0262569000478834, 3.7231795000261627]	7.34	5.27	2.0	controle	high_pain	48.9			sub-035	250	35	47.9	48.9	COM11	COM15	COM3	2024-05-21_14h35.47.557	001-EEG_SVR_Officel	2022.2.5	144.4149677035405		7.337999999999965	1_sub-pilot035_SVR_EEG_block3-4.protocol.csv	step23	3317	329.591	STIMULATE	48.9	48.9	48.9	48.9	48.9	23	1248.717
1242.842	0	621421	CN/Hi	10	2	0	2	0	10.0	0.0	10.0	0.0						1289.86430820002	1297.212960600038	1297.212960600038	5.5	['5', 'a', '5', 'return']	[2.6017468000063673, 2.873818400024902, 3.0262569000478834, 3.7231795000261627]	7.34	5.27	2.0	controle	high_pain	48.9			sub-035	250	35	47.9	48.9	COM11	COM15	COM3	2024-05-21_14h35.47.557	001-EEG_SVR_Officel	2022.2.5	144.4149677035405		5.268000000000029	1_sub-pilot035_SVR_EEG_block3-4.protocol.csv	step23	3317	329.591	STIMULATE	48.9	48.9	48.9	48.9	48.9	23	1248.717
1253.58	0	626790	wait	20	2	0	2	0	11.0	0.0	11.0	0.0						1313.9578972000163	1320.3545466000214	1320.3545466000214	3.5	['3', 'a', '5', 'return']	[3.758172200003173, 4.196252699999604, 4.58836870000232, 5.453123699990101]	6.39	5.11	3.0	controle	high_pain	48.9			sub-035	250	35	47.9	48.9	COM11	COM15	COM3	2024-05-21_14h35.47.557	001-EEG_SVR_Officel	2022.2.5	144.4149677035405		11.487999999999829	1_sub-pilot035_SVR_EEG_block3-4.protocol.csv	step25	3549	352.574	STIMULATE	48.9	48.9	48.9	48.9	48.9	25	1271.7
1259.964	0	629982	CNhz	12	2	0	2	0	11.0	0.0	11.0	0.0						1313.9578972000163	1320.3545466000214	1320.3545466000214	3.5	['3', 'a', '5', 'return']	[3.758172200003173, 4.196252699999604, 4.58836870000232, 5.453123699990101]	6.39	5.11	3.0	controle	high_pain	48.9			sub-035	250	35	47.9	48.9	COM11	COM15	COM3	2024-05-21_14h35.47.557	001-EEG_SVR_Officel	2022.2.5	144.4149677035405		6.3840000000000146	1_sub-pilot035_SVR_EEG_block3-4.protocol.csv	step25	3549	352.574	STIMULATE	48.9	48.9	48.9	48.9	48.9	25	1271.7
1265.826	0	632913	CN/Hi	10	2	0	2	0	11.0	0.0	11.0	0.0						1313.9578972000163	1320.3545466000214	1320.3545466000214	3.5	['3', 'a', '5', 'return']	[3.758172200003173, 4.196252699999604, 4.58836870000232, 5.453123699990101]	6.39	5.11	3.0	controle	high_pain	48.9			sub-035	250	35	47.9	48.9	COM11	COM15	COM3	2024-05-21_14h35.47.557	001-EEG_SVR_Officel	2022.2.5	144.4149677035405		5.11200000000008	1_sub-pilot035_SVR_EEG_block3-4.protocol.csv	step25	3549	352.574	STIMULATE	48.9	48.9	48.9	48.9	48.9	25	1271.7
1278.45	0	639225	wait	20	2	0	2	0	12.0	0.0	12.0	0.0						1338.8289209000068	1345.7464424000354	1345.7464424000354	3.0	['3', 'return']	[4.2368407000321895, 4.885157200042158]	6.91	5.73	0.0	10hz	low_pain	47.9			sub-035	250	35	47.9	48.9	COM11	COM15	COM3	2024-05-21_14h35.47.557	001-EEG_SVR_Officel	2022.2.5	144.4149677035405		13.374000000000024	1_sub-pilot035_SVR_EEG_block3-4.protocol.csv	step27	3812	378.616	STIMULATE	47.9	47.9	47.9	47.9	47.9	27	1297.742
1285.356	0	642678	10hz	3	2	0	2	0	12.0	0.0	12.0	0.0						1338.8289209000068	1345.7464424000354	1345.7464424000354	3.0	['3', 'return']	[4.2368407000321895, 4.885157200042158]	6.91	5.73	0.0	10hz	low_pain	47.9			sub-035	250	35	47.9	48.9	COM11	COM15	COM3	2024-05-21_14h35.47.557	001-EEG_SVR_Officel	2022.2.5	144.4149677035405		6.905999999999949	1_sub-pilot035_SVR_EEG_block3-4.protocol.csv	step27	3812	378.616	STIMULATE	47.9	47.9	47.9	47.9	47.9	27	1297.742
1291.836	0	645918	10/Lo	2	2	0	2	0	12.0	0.0	12.0	0.0						1338.8289209000068	1345.7464424000354	1345.7464424000354	3.0	['3', 'return']	[4.2368407000321895, 4.885157200042158]	6.91	5.73	0.0	10hz	low_pain	47.9			sub-035	250	35	47.9	48.9	COM11	COM15	COM3	2024-05-21_14h35.47.557	001-EEG_SVR_Officel	2022.2.5	144.4149677035405		5.730000000000018	1_sub-pilot035_SVR_EEG_block3-4.protocol.csv	step27	3812	378.616	STIMULATE	47.9	47.9	47.9	47.9	47.9	27	1297.742
1303.266	0	651633	wait	20	2	0	2	0	13.0	0.0	13.0	0.0						1363.643998600019	1371.00022300001	1371.00022300001	3.5	['3', 'a', '5', 'return']	[3.8074199000257067, 4.039351799990982, 4.303260200016666, 5.0555128999985754]	7.35	6.15	1.0	controle	low_pain	47.9			sub-035	250	35	47.9	48.9	COM11	COM15	COM3	2024-05-21_14h35.47.557	001-EEG_SVR_Officel	2022.2.5	144.4149677035405		12.180000000000064	1_sub-pilot035_SVR_EEG_block3-4.protocol.csv	step29	4070	404.272	STIMULATE	47.9	47.9	47.9	47.9	47.9	29	1323.398
1310.61	0	655305	CNhz	12	2	0	2	0	13.0	0.0	13.0	0.0						1363.643998600019	1371.00022300001	1371.00022300001	3.5	['3', 'a', '5', 'return']	[3.8074199000257067, 4.039351799990982, 4.303260200016666, 5.0555128999985754]	7.35	6.15	1.0	controle	low_pain	47.9			sub-035	250	35	47.9	48.9	COM11	COM15	COM3	2024-05-21_14h35.47.557	001-EEG_SVR_Officel	2022.2.5	144.4149677035405		7.343999999999824	1_sub-pilot035_SVR_EEG_block3-4.protocol.csv	step29	4070	404.272	STIMULATE	47.9	47.9	47.9	47.9	47.9	29	1323.398
1317.512	0	658756	CN/Lo	11	2	0	2	0	13.0	0.0	13.0	0.0						1363.643998600019	1371.00022300001	1371.00022300001	3.5	['3', 'a', '5', 'return']	[3.8074199000257067, 4.039351799990982, 4.303260200016666, 5.0555128999985754]	7.35	6.15	1.0	controle	low_pain	47.9			sub-035	250	35	47.9	48.9	COM11	COM15	COM3	2024-05-21_14h35.47.557	001-EEG_SVR_Officel	2022.2.5	144.4149677035405		6.152000000000044	1_sub-pilot035_SVR_EEG_block3-4.protocol.csv	step29	4070	404.272	STIMULATE	47.9	47.9	47.9	47.9	47.9	29	1323.398
1328.692	0	664346	wait	20	2	0	2	0	14.0	0.0	14.0	0.0						1389.0717895000123	1395.1416786999907	1395.1416786999907	5.5	['5', 'a', '5', 'return']	[2.497508200001903, 2.746142100018915, 2.9380539000267163, 3.697220699978061]	6.06	5.72	2.0	10hz	high_pain	48.9			sub-035	250	35	47.9	48.9	COM11	COM15	COM3	2024-05-21_14h35.47.557	001-EEG_SVR_Officel	2022.2.5	144.4149677035405		11.930000000000064	1_sub-pilot035_SVR_EEG_block3-4.protocol.csv	step31	4309	427.98	STIMULATE	48.9	48.9	48.9	48.9	48.9	31	1347.106
1334.752	0	667376	10hz	3	2	0	2	0	14.0	0.0	14.0	0.0						1389.0717895000123	1395.1416786999907	1395.1416786999907	5.5	['5', 'a', '5', 'return']	[2.497508200001903, 2.746142100018915, 2.9380539000267163, 3.697220699978061]	6.06	5.72	2.0	10hz	high_pain	48.9			sub-035	250	35	47.9	48.9	COM11	COM15	COM3	2024-05-21_14h35.47.557	001-EEG_SVR_Officel	2022.2.5	144.4149677035405		6.059999999999945	1_sub-pilot035_SVR_EEG_block3-4.protocol.csv	step31	4309	427.98	STIMULATE	48.9	48.9	48.9	48.9	48.9	31	1347.106
1341.222	0	670611	10/Hi	1	2	0	2	0	14.0	0.0	14.0	0.0						1389.0717895000123	1395.1416786999907	1395.1416786999907	5.5	['5', 'a', '5', 'return']	[2.497508200001903, 2.746142100018915, 2.9380539000267163, 3.697220699978061]	6.06	5.72	2.0	10hz	high_pain	48.9			sub-035	250	35	47.9	48.9	COM11	COM15	COM3	2024-05-21_14h35.47.557	001-EEG_SVR_Officel	2022.2.5	144.4149677035405		5.720000000000027	1_sub-pilot035_SVR_EEG_block3-4.protocol.csv	step31	4309	427.98	STIMULATE	48.9	48.9	48.9	48.9	48.9	31	1347.106
1351.48	0	675740	wait	20	2	0	2	0	15.0	0.0	15.0	0.0						1411.858626100002	1418.6996209000354	1418.6996209000354	3.5	['3', 'a', '5', 'return']	[2.891096399980597, 3.107052300008945, 3.5635932000004686, 4.571019499970134]	6.83	6.42	3.0	40hz	low_pain	47.9			sub-035	250	35	47.9	48.9	COM11	COM15	COM3	2024-05-21_14h35.47.557	001-EEG_SVR_Officel	2022.2.5	144.4149677035405		11.008000000000038	1_sub-pilot035_SVR_EEG_block3-4.protocol.csv	step33	4553	452.174	STIMULATE	47.9	47.9	47.8	47.9	47.8	33	1371.3
1358.308	0	679154	40hz	9	2	0	2	0	15.0	0.0	15.0	0.0						1411.858626100002	1418.6996209000354	1418.6996209000354	3.5	['3', 'a', '5', 'return']	[2.891096399980597, 3.107052300008945, 3.5635932000004686, 4.571019499970134]	6.83	6.42	3.0	40hz	low_pain	47.9			sub-035	250	35	47.9	48.9	COM11	COM15	COM3	2024-05-21_14h35.47.557	001-EEG_SVR_Officel	2022.2.5	144.4149677035405		6.8279999999999745	1_sub-pilot035_SVR_EEG_block3-4.protocol.csv	step33	4553	452.174	STIMULATE	47.9	47.9	47.8	47.9	47.8	33	1371.3
1365.48	0	682740	40/Lo	8	2	0	2	0	15.0	0.0	15.0	0.0						1411.858626100002	1418.6996209000354	1418.6996209000354	3.5	['3', 'a', '5', 'return']	[2.891096399980597, 3.107052300008945, 3.5635932000004686, 4.571019499970134]	6.83	6.42	3.0	40hz	low_pain	47.9			sub-035	250	35	47.9	48.9	COM11	COM15	COM3	2024-05-21_14h35.47.557	001-EEG_SVR_Officel	2022.2.5	144.4149677035405		6.4220000000000255	1_sub-pilot035_SVR_EEG_block3-4.protocol.csv	step33	4553	452.174	STIMULATE	47.9	47.9	47.8	47.9	47.8	33	1371.3
1440.684	0	720342	wait	20	3	0	3	0	0.0	0.0	0.0	0.0				p	1.2140175999957137	1501.0641539000208	1506.5227999000344	1506.5227999000344	4.0	['4', 'return']	[2.259938199946191, 2.8206096999929287]	5.45	5.72	0.0	20hz	low_pain	47.9			sub-035	250	35	47.9	48.9	COM11	COM15	COM3	2024-05-21_14h35.47.557	001-EEG_SVR_Officel	2022.2.5	144.4149677035405		75.95399999999995	1_sub-pilot035_SVR_EEG_block3-4.protocol.csv	step35	5428	539.441	STIMULATE	47.9	47.8	47.9	47.9	47.9	35	1458.527
1446.132	0	723066	20hz	6	3	0	3	0	0.0	0.0	0.0	0.0				p	1.2140175999957137	1501.0641539000208	1506.5227999000344	1506.5227999000344	4.0	['4', 'return']	[2.259938199946191, 2.8206096999929287]	5.45	5.72	0.0	20hz	low_pain	47.9			sub-035	250	35	47.9	48.9	COM11	COM15	COM3	2024-05-21_14h35.47.557	001-EEG_SVR_Officel	2022.2.5	144.4149677035405		5.448000000000093	1_sub-pilot035_SVR_EEG_block3-4.protocol.csv	step35	5428	539.441	STIMULATE	47.9	47.8	47.9	47.9	47.9	35	1458.527
1452.604	0	726302	20/Lo	5	3	0	3	0	0.0	0.0	0.0	0.0				p	1.2140175999957137	1501.0641539000208	1506.5227999000344	1506.5227999000344	4.0	['4', 'return']	[2.259938199946191, 2.8206096999929287]	5.45	5.72	0.0	20hz	low_pain	47.9			sub-035	250	35	47.9	48.9	COM11	COM15	COM3	2024-05-21_14h35.47.557	001-EEG_SVR_Officel	2022.2.5	144.4149677035405		5.72199999999998	1_sub-pilot035_SVR_EEG_block3-4.protocol.csv	step35	5428	539.441	STIMULATE	47.9	47.8	47.9	47.9	47.9	35	1458.527
1461.986	0	730993	wait	20	3	0	3	0	1.0	0.0	1.0	0.0						1522.364795000001	1529.997846400016	1529.997846400016	4.5	['4', 'a', '5', 'return']	[2.7064673000131734, 2.9148670000140555, 3.226606000040192, 4.019868600007612]	7.62	5.99	1.0	40hz	high_pain	48.9			sub-035	250	35	47.9	48.9	COM11	COM15	COM3	2024-05-21_14h35.47.557	001-EEG_SVR_Officel	2022.2.5	144.4149677035405		10.132000000000062	1_sub-pilot035_SVR_EEG_block3-4.protocol.csv	step37	5667	563.121	STIMULATE	49.0	48.9	48.9	48.9	48.9	37	1482.2069999999999
1469.606	0	734803	40hz	9	3	0	3	0	1.0	0.0	1.0	0.0						1522.364795000001	1529.997846400016	1529.997846400016	4.5	['4', 'a', '5', 'return']	[2.7064673000131734, 2.9148670000140555, 3.226606000040192, 4.019868600007612]	7.62	5.99	1.0	40hz	high_pain	48.9			sub-035	250	35	47.9	48.9	COM11	COM15	COM3	2024-05-21_14h35.47.557	001-EEG_SVR_Officel	2022.2.5	144.4149677035405		7.619999999999891	1_sub-pilot035_SVR_EEG_block3-4.protocol.csv	step37	5667	563.121	STIMULATE	49.0	48.9	48.9	48.9	48.9	37	1482.2069999999999
1476.348	0	738174	40/Hi	7	3	0	3	0	1.0	0.0	1.0	0.0						1522.364795000001	1529.997846400016	1529.997846400016	4.5	['4', 'a', '5', 'return']	[2.7064673000131734, 2.9148670000140555, 3.226606000040192, 4.019868600007612]	7.62	5.99	1.0	40hz	high_pain	48.9			sub-035	250	35	47.9	48.9	COM11	COM15	COM3	2024-05-21_14h35.47.557	001-EEG_SVR_Officel	2022.2.5	144.4149677035405		5.991999999999962	1_sub-pilot035_SVR_EEG_block3-4.protocol.csv	step37	5667	563.121	STIMULATE	49.0	48.9	48.9	48.9	48.9	37	1482.2069999999999
1486.654	0	743327	wait	20	3	0	3	0	2.0	0.0	2.0	0.0						1547.0343199000345	1553.465690699988	1553.465690699988	6.0	['6', 'return']	[2.309788100013975, 2.789652000006754]	6.42	6.37	2.0	40hz	high_pain	48.9			sub-035	250	35	47.9	48.9	COM11	COM15	COM3	2024-05-21_14h35.47.557	001-EEG_SVR_Officel	2022.2.5	144.4149677035405		11.05600000000004	1_sub-pilot035_SVR_EEG_block3-4.protocol.csv	step39	5907	586.96	STIMULATE	48.9	48.9	48.9	48.9	48.9	39	1506.046
1493.074	0	746537	40hz	9	3	0	3	0	2.0	0.0	2.0	0.0						1547.0343199000345	1553.465690699988	1553.465690699988	6.0	['6', 'return']	[2.309788100013975, 2.789652000006754]	6.42	6.37	2.0	40hz	high_pain	48.9			sub-035	250	35	47.9	48.9	COM11	COM15	COM3	2024-05-21_14h35.47.557	001-EEG_SVR_Officel	2022.2.5	144.4149677035405		6.420000000000073	1_sub-pilot035_SVR_EEG_block3-4.protocol.csv	step39	5907	586.96	STIMULATE	48.9	48.9	48.9	48.9	48.9	39	1506.046
1500.198	0	750099	40/Hi	7	3	0	3	0	2.0	0.0	2.0	0.0						1547.0343199000345	1553.465690699988	1553.465690699988	6.0	['6', 'return']	[2.309788100013975, 2.789652000006754]	6.42	6.37	2.0	40hz	high_pain	48.9			sub-035	250	35	47.9	48.9	COM11	COM15	COM3	2024-05-21_14h35.47.557	001-EEG_SVR_Officel	2022.2.5	144.4149677035405		6.374000000000024	1_sub-pilot035_SVR_EEG_block3-4.protocol.csv	step39	5907	586.96	STIMULATE	48.9	48.9	48.9	48.9	48.9	39	1506.046
1508.888	0	754444	wait	20	3	0	3	0	3.0	0.0	3.0	0.0						1569.2657503000228	1575.357239200035	1575.357239200035	4.0	['4', 'return']	[2.670656699978281, 3.2557172999950126]	6.08	5.53	3.0	10hz	low_pain	47.9			sub-035	250	35	47.9	48.9	COM11	COM15	COM3	2024-05-21_14h35.47.557	001-EEG_SVR_Officel	2022.2.5	144.4149677035405		9.439999999999827	1_sub-pilot035_SVR_EEG_block3-4.protocol.csv	step41	6120	608.015	STIMULATE	47.9	47.9	47.9	47.9	47.9	41	1527.101
1514.964	0	757482	10hz	3	3	0	3	0	3.0	0.0	3.0	0.0						1569.2657503000228	1575.357239200035	1575.357239200035	4.0	['4', 'return']	[2.670656699978281, 3.2557172999950126]	6.08	5.53	3.0	10hz	low_pain	47.9			sub-035	250	35	47.9	48.9	COM11	COM15	COM3	2024-05-21_14h35.47.557	001-EEG_SVR_Officel	2022.2.5	144.4149677035405		6.076000000000022	1_sub-pilot035_SVR_EEG_block3-4.protocol.csv	step41	6120	608.015	STIMULATE	47.9	47.9	47.9	47.9	47.9	41	1527.101
1521.248	0	760624	10/Lo	2	3	0	3	0	3.0	0.0	3.0	0.0						1569.2657503000228	1575.357239200035	1575.357239200035	4.0	['4', 'return']	[2.670656699978281, 3.2557172999950126]	6.08	5.53	3.0	10hz	low_pain	47.9			sub-035	250	35	47.9	48.9	COM11	COM15	COM3	2024-05-21_14h35.47.557	001-EEG_SVR_Officel	2022.2.5	144.4149677035405		5.5340000000001055	1_sub-pilot035_SVR_EEG_block3-4.protocol.csv	step41	6120	608.015	STIMULATE	47.9	47.9	47.9	47.9	47.9	41	1527.101
1531.264	0	765632	wait	20	3	0	3	0	4.0	0.0	4.0	0.0						1591.6445455999929	1598.797621500038	1598.797621500038	6.0	['6', 'return']	[2.496914699964691, 2.9687061000149697]	7.14	6.06	0.0	40hz	high_pain	48.9			sub-035	250	35	47.9	48.9	COM11	COM15	COM3	2024-05-21_14h35.47.557	001-EEG_SVR_Officel	2022.2.5	144.4149677035405		10.765999999999849	1_sub-pilot035_SVR_EEG_block3-4.protocol.csv	step43	6361	631.98	STIMULATE	48.9	48.9	48.9	48.9	48.9	43	1551.066
1538.406	0	769203	40hz	9	3	0	3	0	4.0	0.0	4.0	0.0						1591.6445455999929	1598.797621500038	1598.797621500038	6.0	['6', 'return']	[2.496914699964691, 2.9687061000149697]	7.14	6.06	0.0	40hz	high_pain	48.9			sub-035	250	35	47.9	48.9	COM11	COM15	COM3	2024-05-21_14h35.47.557	001-EEG_SVR_Officel	2022.2.5	144.4149677035405		7.142000000000053	1_sub-pilot035_SVR_EEG_block3-4.protocol.csv	step43	6361	631.98	STIMULATE	48.9	48.9	48.9	48.9	48.9	43	1551.066
1545.218	0	772609	40/Hi	7	3	0	3	0	4.0	0.0	4.0	0.0						1591.6445455999929	1598.797621500038	1598.797621500038	6.0	['6', 'return']	[2.496914699964691, 2.9687061000149697]	7.14	6.06	0.0	40hz	high_pain	48.9			sub-035	250	35	47.9	48.9	COM11	COM15	COM3	2024-05-21_14h35.47.557	001-EEG_SVR_Officel	2022.2.5	144.4149677035405		6.0620000000001255	1_sub-pilot035_SVR_EEG_block3-4.protocol.csv	step43	6361	631.98	STIMULATE	48.9	48.9	48.9	48.9	48.9	43	1551.066
1554.406	0	777203	wait	20	3	0	3	0	5.0	0.0	5.0	0.0						1614.7859025000362	1619.9534725000267	1619.9534725000267	4.0	['4', 'return']	[4.157003000029363, 4.82179310003994]	5.16	5.94	1.0	10hz	high_pain	48.9			sub-035	250	35	47.9	48.9	COM11	COM15	COM3	2024-05-21_14h35.47.557	001-EEG_SVR_Officel	2022.2.5	144.4149677035405		9.937999999999874	1_sub-pilot035_SVR_EEG_block3-4.protocol.csv	step45	6574	653.038	STIMULATE	49.1	48.9	48.9	48.9	48.9	45	1572.124
1559.562	0	779781	10hz	3	3	0	3	0	5.0	0.0	5.0	0.0						1614.7859025000362	1619.9534725000267	1619.9534725000267	4.0	['4', 'return']	[4.157003000029363, 4.82179310003994]	5.16	5.94	1.0	10hz	high_pain	48.9			sub-035	250	35	47.9	48.9	COM11	COM15	COM3	2024-05-21_14h35.47.557	001-EEG_SVR_Officel	2022.2.5	144.4149677035405		5.155999999999949	1_sub-pilot035_SVR_EEG_block3-4.protocol.csv	step45	6574	653.038	STIMULATE	49.1	48.9	48.9	48.9	48.9	45	1572.124
1566.256	0	783128	10/Hi	1	3	0	3	0	5.0	0.0	5.0	0.0						1614.7859025000362	1619.9534725000267	1619.9534725000267	4.0	['4', 'return']	[4.157003000029363, 4.82179310003994]	5.16	5.94	1.0	10hz	high_pain	48.9			sub-035	250	35	47.9	48.9	COM11	COM15	COM3	2024-05-21_14h35.47.557	001-EEG_SVR_Officel	2022.2.5	144.4149677035405		5.944000000000187	1_sub-pilot035_SVR_EEG_block3-4.protocol.csv	step45	6574	653.038	STIMULATE	49.1	48.9	48.9	48.9	48.9	45	1572.124
1577.408	0	788704	wait	20	3	0	3	0	6.0	0.0	6.0	0.0						1637.7877662000246	1643.809908700001	1643.809908700001	2.5	['2', 'a', '5', 'return']	[2.7411475999979302, 3.029432600014843, 3.2774698000284843, 3.8609039000002667]	6.01	6.3	2.0	controle	low_pain	47.9			sub-035	250	35	47.9	48.9	COM11	COM15	COM3	2024-05-21_14h35.47.557	001-EEG_SVR_Officel	2022.2.5	144.4149677035405		11.901999999999816	1_sub-pilot035_SVR_EEG_block3-4.protocol.csv	step47	6818	677.285	STIMULATE	47.9	47.9	47.9	47.9	47.9	47	1596.371
1583.418	0	791709	CNhz	12	3	0	3	0	6.0	0.0	6.0	0.0						1637.7877662000246	1643.809908700001	1643.809908700001	2.5	['2', 'a', '5', 'return']	[2.7411475999979302, 3.029432600014843, 3.2774698000284843, 3.8609039000002667]	6.01	6.3	2.0	controle	low_pain	47.9			sub-035	250	35	47.9	48.9	COM11	COM15	COM3	2024-05-21_14h35.47.557	001-EEG_SVR_Officel	2022.2.5	144.4149677035405		6.009999999999991	1_sub-pilot035_SVR_EEG_block3-4.protocol.csv	step47	6818	677.285	STIMULATE	47.9	47.9	47.9	47.9	47.9	47	1596.371
1590.472	0	795236	CN/Lo	11	3	0	3	0	6.0	0.0	6.0	0.0						1637.7877662000246	1643.809908700001	1643.809908700001	2.5	['2', 'a', '5', 'return']	[2.7411475999979302, 3.029432600014843, 3.2774698000284843, 3.8609039000002667]	6.01	6.3	2.0	controle	low_pain	47.9			sub-035	250	35	47.9	48.9	COM11	COM15	COM3	2024-05-21_14h35.47.557	001-EEG_SVR_Officel	2022.2.5	144.4149677035405		6.304000000000087	1_sub-pilot035_SVR_EEG_block3-4.protocol.csv	step47	6818	677.285	STIMULATE	47.9	47.9	47.9	47.9	47.9	47	1596.371
1600.3	0	800150	wait	20	3	0	3	0	7.0	0.0	7.0	0.0						1660.6790975999902	1666.3611368000277	1666.3611368000277	4.5	['4', 'a', '5', 'return']	[2.8458424000418745, 3.046013400016818, 3.301946700026747, 3.8773749000392854]	5.67	5.46	3.0	40hz	high_pain	48.9			sub-035	250	35	47.9	48.9	COM11	COM15	COM3	2024-05-21_14h35.47.557	001-EEG_SVR_Officel	2022.2.5	144.4149677035405		10.577999999999975	1_sub-pilot035_SVR_EEG_block3-4.protocol.csv	step49	7037	698.951	STIMULATE	48.9	48.9	48.9	48.9	48.9	49	1618.037
1605.97	0	802985	40hz	9	3	0	3	0	7.0	0.0	7.0	0.0						1660.6790975999902	1666.3611368000277	1666.3611368000277	4.5	['4', 'a', '5', 'return']	[2.8458424000418745, 3.046013400016818, 3.301946700026747, 3.8773749000392854]	5.67	5.46	3.0	40hz	high_pain	48.9			sub-035	250	35	47.9	48.9	COM11	COM15	COM3	2024-05-21_14h35.47.557	001-EEG_SVR_Officel	2022.2.5	144.4149677035405		5.670000000000073	1_sub-pilot035_SVR_EEG_block3-4.protocol.csv	step49	7037	698.951	STIMULATE	48.9	48.9	48.9	48.9	48.9	49	1618.037
1612.182	0	806091	40/Hi	7	3	0	3	0	7.0	0.0	7.0	0.0						1660.6790975999902	1666.3611368000277	1666.3611368000277	4.5	['4', 'a', '5', 'return']	[2.8458424000418745, 3.046013400016818, 3.301946700026747, 3.8773749000392854]	5.67	5.46	3.0	40hz	high_pain	48.9			sub-035	250	35	47.9	48.9	COM11	COM15	COM3	2024-05-21_14h35.47.557	001-EEG_SVR_Officel	2022.2.5	144.4149677035405		5.461999999999989	1_sub-pilot035_SVR_EEG_block3-4.protocol.csv	step49	7037	698.951	STIMULATE	48.9	48.9	48.9	48.9	48.9	49	1618.037
1622.87	0	811435	wait	20	3	0	3	0	8.0	0.0	8.0	0.0						1683.251427999989	1690.6905815000064	1690.6905815000064	3.5	['3', 'a', '5', 'return']	[4.0927181000006385, 4.308224399981555, 4.588726699992549, 5.197085099993274]	7.43	6.41	0.0	controle	high_pain	48.9			sub-035	250	35	47.9	48.9	COM11	COM15	COM3	2024-05-21_14h35.47.557	001-EEG_SVR_Officel	2022.2.5	144.4149677035405		11.437999999999874	1_sub-pilot035_SVR_EEG_block3-4.protocol.csv	step51	7292	724.283	STIMULATE	49.0	48.9	48.9	48.9	48.9	51	1643.3690000000001
1630.3	0	815150	CNhz	12	3	0	3	0	8.0	0.0	8.0	0.0						1683.251427999989	1690.6905815000064	1690.6905815000064	3.5	['3', 'a', '5', 'return']	[4.0927181000006385, 4.308224399981555, 4.588726699992549, 5.197085099993274]	7.43	6.41	0.0	controle	high_pain	48.9			sub-035	250	35	47.9	48.9	COM11	COM15	COM3	2024-05-21_14h35.47.557	001-EEG_SVR_Officel	2022.2.5	144.4149677035405		7.430000000000064	1_sub-pilot035_SVR_EEG_block3-4.protocol.csv	step51	7292	724.283	STIMULATE	49.0	48.9	48.9	48.9	48.9	51	1643.3690000000001
1637.458	0	818729	CN/Hi	10	3	0	3	0	8.0	0.0	8.0	0.0						1683.251427999989	1690.6905815000064	1690.6905815000064	3.5	['3', 'a', '5', 'return']	[4.0927181000006385, 4.308224399981555, 4.588726699992549, 5.197085099993274]	7.43	6.41	0.0	controle	high_pain	48.9			sub-035	250	35	47.9	48.9	COM11	COM15	COM3	2024-05-21_14h35.47.557	001-EEG_SVR_Officel	2022.2.5	144.4149677035405		6.408000000000129	1_sub-pilot035_SVR_EEG_block3-4.protocol.csv	step51	7292	724.283	STIMULATE	49.0	48.9	48.9	48.9	48.9	51	1643.3690000000001
1648.528	0	824264	wait	20	3	0	3	0	9.0	0.0	9.0	0.0						1708.9080455999938	1714.235037000035	1714.235037000035	4.0	['4', 'return']	[2.6685052000102587, 3.276668199978303]	5.32	6.15	1.0	20hz	low_pain	47.9			sub-035	250	35	47.9	48.9	COM11	COM15	COM3	2024-05-21_14h35.47.557	001-EEG_SVR_Officel	2022.2.5	144.4149677035405		11.819999999999936	1_sub-pilot035_SVR_EEG_block3-4.protocol.csv	step53	7527	747.618	STIMULATE	47.9	47.9	47.9	47.9	47.9	53	1666.7040000000002
1653.842	0	826921	20hz	6	3	0	3	0	9.0	0.0	9.0	0.0						1708.9080455999938	1714.235037000035	1714.235037000035	4.0	['4', 'return']	[2.6685052000102587, 3.276668199978303]	5.32	6.15	1.0	20hz	low_pain	47.9			sub-035	250	35	47.9	48.9	COM11	COM15	COM3	2024-05-21_14h35.47.557	001-EEG_SVR_Officel	2022.2.5	144.4149677035405		5.314000000000078	1_sub-pilot035_SVR_EEG_block3-4.protocol.csv	step53	7527	747.618	STIMULATE	47.9	47.9	47.9	47.9	47.9	53	1666.7040000000002
1660.744	0	830372	20/Lo	5	3	0	3	0	9.0	0.0	9.0	0.0						1708.9080455999938	1714.235037000035	1714.235037000035	4.0	['4', 'return']	[2.6685052000102587, 3.276668199978303]	5.32	6.15	1.0	20hz	low_pain	47.9			sub-035	250	35	47.9	48.9	COM11	COM15	COM3	2024-05-21_14h35.47.557	001-EEG_SVR_Officel	2022.2.5	144.4149677035405		6.151999999999816	1_sub-pilot035_SVR_EEG_block3-4.protocol.csv	step53	7527	747.618	STIMULATE	47.9	47.9	47.9	47.9	47.9	53	1666.7040000000002
1670.148	0	835074	wait	20	3	0	3	0	10.0	0.0	10.0	0.0						1730.5290306999814	1737.8152073000092	1737.8152073000092	4.0	['4', 'return']	[2.39172780001536, 3.0568156000226736]	7.28	5.49	2.0	20hz	high_pain	48.9			sub-035	250	35	47.9	48.9	COM11	COM15	COM3	2024-05-21_14h35.47.557	001-EEG_SVR_Officel	2022.2.5	144.4149677035405		10.153999999999996	1_sub-pilot035_SVR_EEG_block3-4.protocol.csv	step55	7753	770.438	STIMULATE	48.9	48.9	48.9	48.9	48.9	55	1689.524
1677.422	0	838711	20hz	6	3	0	3	0	10.0	0.0	10.0	0.0						1730.5290306999814	1737.8152073000092	1737.8152073000092	4.0	['4', 'return']	[2.39172780001536, 3.0568156000226736]	7.28	5.49	2.0	20hz	high_pain	48.9			sub-035	250	35	47.9	48.9	COM11	COM15	COM3	2024-05-21_14h35.47.557	001-EEG_SVR_Officel	2022.2.5	144.4149677035405		7.274000000000115	1_sub-pilot035_SVR_EEG_block3-4.protocol.csv	step55	7753	770.438	STIMULATE	48.9	48.9	48.9	48.9	48.9	55	1689.524
1683.664	0	841832	20/Hi	4	3	0	3	0	10.0	0.0	10.0	0.0						1730.5290306999814	1737.8152073000092	1737.8152073000092	4.0	['4', 'return']	[2.39172780001536, 3.0568156000226736]	7.28	5.49	2.0	20hz	high_pain	48.9			sub-035	250	35	47.9	48.9	COM11	COM15	COM3	2024-05-21_14h35.47.557	001-EEG_SVR_Officel	2022.2.5	144.4149677035405		5.491999999999962	1_sub-pilot035_SVR_EEG_block3-4.protocol.csv	step55	7753	770.438	STIMULATE	48.9	48.9	48.9	48.9	48.9	55	1689.524
1693.512	0	846756	wait	20	3	0	3	0	11.0	0.0	11.0	0.0						1753.8931128000258	1759.5529644000344	1759.5529644000344	3.0	['3', 'return']	[3.1342482999898493, 3.89381159999175]	5.65	6.1	3.0	20hz	low_pain	47.9			sub-035	250	35	47.9	48.9	COM11	COM15	COM3	2024-05-21_14h35.47.557	001-EEG_SVR_Officel	2022.2.5	144.4149677035405		10.597999999999956	1_sub-pilot035_SVR_EEG_block3-4.protocol.csv	step57	7971	792.798	STIMULATE	47.9	47.9	47.9	47.9	47.9	57	1711.884
1699.16	0	849580	20hz	6	3	0	3	0	11.0	0.0	11.0	0.0						1753.8931128000258	1759.5529644000344	1759.5529644000344	3.0	['3', 'return']	[3.1342482999898493, 3.89381159999175]	5.65	6.1	3.0	20hz	low_pain	47.9			sub-035	250	35	47.9	48.9	COM11	COM15	COM3	2024-05-21_14h35.47.557	001-EEG_SVR_Officel	2022.2.5	144.4149677035405		5.648000000000138	1_sub-pilot035_SVR_EEG_block3-4.protocol.csv	step57	7971	792.798	STIMULATE	47.9	47.9	47.9	47.9	47.9	57	1711.884
1706.014	0	853007	20/Lo	5	3	0	3	0	11.0	0.0	11.0	0.0						1753.8931128000258	1759.5529644000344	1759.5529644000344	3.0	['3', 'return']	[3.1342482999898493, 3.89381159999175]	5.65	6.1	3.0	20hz	low_pain	47.9			sub-035	250	35	47.9	48.9	COM11	COM15	COM3	2024-05-21_14h35.47.557	001-EEG_SVR_Officel	2022.2.5	144.4149677035405		6.1039999999998145	1_sub-pilot035_SVR_EEG_block3-4.protocol.csv	step57	7971	792.798	STIMULATE	47.9	47.9	47.9	47.9	47.9	57	1711.884
1716.076	0	858038	wait	20	3	0	3	0	12.0	0.0	12.0	0.0						1776.4571705000126	1783.8467953000218	1783.8467953000218	5.0	['5', 'return']	[2.55931270000292, 3.0240016999887303]	7.38	6.14	0.0	40hz	low_pain	47.9			sub-035	250	35	47.9	48.9	COM11	COM15	COM3	2024-05-21_14h35.47.557	001-EEG_SVR_Officel	2022.2.5	144.4149677035405		10.812000000000126	1_sub-pilot035_SVR_EEG_block3-4.protocol.csv	step59	8208	817.124	STIMULATE	47.9	47.9	47.8	47.9	47.9	59	1736.21
1723.454	0	861727	40hz	9	3	0	3	0	12.0	0.0	12.0	0.0						1776.4571705000126	1783.8467953000218	1783.8467953000218	5.0	['5', 'return']	[2.55931270000292, 3.0240016999887303]	7.38	6.14	0.0	40hz	low_pain	47.9			sub-035	250	35	47.9	48.9	COM11	COM15	COM3	2024-05-21_14h35.47.557	001-EEG_SVR_Officel	2022.2.5	144.4149677035405		7.377999999999929	1_sub-pilot035_SVR_EEG_block3-4.protocol.csv	step59	8208	817.124	STIMULATE	47.9	47.9	47.8	47.9	47.9	59	1736.21
1730.342	0	865171	40/Lo	8	3	0	3	0	12.0	0.0	12.0	0.0						1776.4571705000126	1783.8467953000218	1783.8467953000218	5.0	['5', 'return']	[2.55931270000292, 3.0240016999887303]	7.38	6.14	0.0	40hz	low_pain	47.9			sub-035	250	35	47.9	48.9	COM11	COM15	COM3	2024-05-21_14h35.47.557	001-EEG_SVR_Officel	2022.2.5	144.4149677035405		6.138000000000147	1_sub-pilot035_SVR_EEG_block3-4.protocol.csv	step59	8208	817.124	STIMULATE	47.9	47.9	47.8	47.9	47.9	59	1736.21
1739.502	0	869751	wait	20	3	0	3	0	13.0	0.0	13.0	0.0						1799.883693700016	1806.2459181000013	1806.2459181000013	4.0	['4', 'return']	[3.1298436999786645, 4.1850873999646865]	6.35	6.24	1.0	controle	high_pain	48.9			sub-035	250	35	47.9	48.9	COM11	COM15	COM3	2024-05-21_14h35.47.557	001-EEG_SVR_Officel	2022.2.5	144.4149677035405		9.909999999999854	1_sub-pilot035_SVR_EEG_block3-4.protocol.csv	step61	8428	839.671	STIMULATE	48.9	48.9	48.9	48.9	48.9	61	1758.757
1745.852	0	872926	CNhz	12	3	0	3	0	13.0	0.0	13.0	0.0						1799.883693700016	1806.2459181000013	1806.2459181000013	4.0	['4', 'return']	[3.1298436999786645, 4.1850873999646865]	6.35	6.24	1.0	controle	high_pain	48.9			sub-035	250	35	47.9	48.9	COM11	COM15	COM3	2024-05-21_14h35.47.557	001-EEG_SVR_Officel	2022.2.5	144.4149677035405		6.350000000000136	1_sub-pilot035_SVR_EEG_block3-4.protocol.csv	step61	8428	839.671	STIMULATE	48.9	48.9	48.9	48.9	48.9	61	1758.757
1752.844	0	876422	CN/Hi	10	3	0	3	0	13.0	0.0	13.0	0.0						1799.883693700016	1806.2459181000013	1806.2459181000013	4.0	['4', 'return']	[3.1298436999786645, 4.1850873999646865]	6.35	6.24	1.0	controle	high_pain	48.9			sub-035	250	35	47.9	48.9	COM11	COM15	COM3	2024-05-21_14h35.47.557	001-EEG_SVR_Officel	2022.2.5	144.4149677035405		6.241999999999962	1_sub-pilot035_SVR_EEG_block3-4.protocol.csv	step61	8428	839.671	STIMULATE	48.9	48.9	48.9	48.9	48.9	61	1758.757
1763.06	0	881530	wait	20	3	0	3	0	14.0	0.0	14.0	0.0						1823.4424010000075	1830.0543158000216	1830.0543158000216	5.0	['5', 'return']	[2.616188300016802, 3.170066600025166]	6.6	6.38	2.0	40hz	low_pain	47.9			sub-035	250	35	47.9	48.9	COM11	COM15	COM3	2024-05-21_14h35.47.557	001-EEG_SVR_Officel	2022.2.5	144.4149677035405		10.965999999999894	1_sub-pilot035_SVR_EEG_block3-4.protocol.csv	step63	8660	863.559	STIMULATE	47.9	47.9	47.9	47.9	47.9	63	1782.645
1769.662	0	884831	40hz	9	3	0	3	0	14.0	0.0	14.0	0.0						1823.4424010000075	1830.0543158000216	1830.0543158000216	5.0	['5', 'return']	[2.616188300016802, 3.170066600025166]	6.6	6.38	2.0	40hz	low_pain	47.9			sub-035	250	35	47.9	48.9	COM11	COM15	COM3	2024-05-21_14h35.47.557	001-EEG_SVR_Officel	2022.2.5	144.4149677035405		6.602000000000089	1_sub-pilot035_SVR_EEG_block3-4.protocol.csv	step63	8660	863.559	STIMULATE	47.9	47.9	47.9	47.9	47.9	63	1782.645
1776.792	0	888396	40/Lo	8	3	0	3	0	14.0	0.0	14.0	0.0						1823.4424010000075	1830.0543158000216	1830.0543158000216	5.0	['5', 'return']	[2.616188300016802, 3.170066600025166]	6.6	6.38	2.0	40hz	low_pain	47.9			sub-035	250	35	47.9	48.9	COM11	COM15	COM3	2024-05-21_14h35.47.557	001-EEG_SVR_Officel	2022.2.5	144.4149677035405		6.379999999999882	1_sub-pilot035_SVR_EEG_block3-4.protocol.csv	step63	8660	863.559	STIMULATE	47.9	47.9	47.9	47.9	47.9	63	1782.645
1785.862	0	892931	wait	20	3	0	3	0	15.0	0.0	15.0	0.0						1846.2437557000085	1852.6612053000133	1852.6612053000133	3.5	['3', 'a', '5', 'return']	[3.0902928999857977, 3.321856700000353, 3.6339780999696814, 5.042836799984798]	6.41	6.2	3.0	controle	low_pain	47.9			sub-035	250	35	47.9	48.9	COM11	COM15	COM3	2024-05-21_14h35.47.557	001-EEG_SVR_Officel	2022.2.5	144.4149677035405		9.820000000000164	1_sub-pilot035_SVR_EEG_block3-4.protocol.csv	step65	8875	885.959	STIMULATE	47.9	47.9	47.9	47.9	47.9	65	1805.045
1792.268	0	896134	CNhz	12	3	0	3	0	15.0	0.0	15.0	0.0						1846.2437557000085	1852.6612053000133	1852.6612053000133	3.5	['3', 'a', '5', 'return']	[3.0902928999857977, 3.321856700000353, 3.6339780999696814, 5.042836799984798]	6.41	6.2	3.0	controle	low_pain	47.9			sub-035	250	35	47.9	48.9	COM11	COM15	COM3	2024-05-21_14h35.47.557	001-EEG_SVR_Officel	2022.2.5	144.4149677035405		6.405999999999949	1_sub-pilot035_SVR_EEG_block3-4.protocol.csv	step65	8875	885.959	STIMULATE	47.9	47.9	47.9	47.9	47.9	65	1805.045
1799.218	0	899609	CN/Lo	11	3	0	3	0	15.0	0.0	15.0	0.0						1846.2437557000085	1852.6612053000133	1852.6612053000133	3.5	['3', 'a', '5', 'return']	[3.0902928999857977, 3.321856700000353, 3.6339780999696814, 5.042836799984798]	6.41	6.2	3.0	controle	low_pain	47.9			sub-035	250	35	47.9	48.9	COM11	COM15	COM3	2024-05-21_14h35.47.557	001-EEG_SVR_Officel	2022.2.5	144.4149677035405		6.2000000000000455	1_sub-pilot035_SVR_EEG_block3-4.protocol.csv	step65	8875	885.959	STIMULATE	47.9	47.9	47.9	47.9	47.9	65	1805.045
1875.54	0	937770	wait	20	4	0	4	0	0.0	0.0	0.0	0.0				p	1.4636907000094652	1935.9211503000115	1943.804057700036	1943.804057700036	4.0	['4', 'return']	[2.282862499996554, 2.7399885000195354]	7.87	6.16	0.0	10hz	low_pain	47.9			sub-035	250	35	47.9	48.9	COM11	COM15	COM3	2024-05-21_14h35.47.557	001-EEG_SVR_Officel	2022.2.5	144.4149677035405		77.07199999999989	2_sub-pilot035_SVR_EEG_block5-6.protocol.csv	step3	780	77.828	STIMULATE	47.9	47.9	47.9	47.9	47.9	3	1896.137
1883.41	0	941705	10hz	3	4	0	4	0	0.0	0.0	0.0	0.0				p	1.4636907000094652	1935.9211503000115	1943.804057700036	1943.804057700036	4.0	['4', 'return']	[2.282862499996554, 2.7399885000195354]	7.87	6.16	0.0	10hz	low_pain	47.9			sub-035	250	35	47.9	48.9	COM11	COM15	COM3	2024-05-21_14h35.47.557	001-EEG_SVR_Officel	2022.2.5	144.4149677035405		7.870000000000118	2_sub-pilot035_SVR_EEG_block5-6.protocol.csv	step3	780	77.828	STIMULATE	47.9	47.9	47.9	47.9	47.9	3	1896.137
1890.318	0	945159	10/Lo	2	4	0	4	0	0.0	0.0	0.0	0.0				p	1.4636907000094652	1935.9211503000115	1943.804057700036	1943.804057700036	4.0	['4', 'return']	[2.282862499996554, 2.7399885000195354]	7.87	6.16	0.0	10hz	low_pain	47.9			sub-035	250	35	47.9	48.9	COM11	COM15	COM3	2024-05-21_14h35.47.557	001-EEG_SVR_Officel	2022.2.5	144.4149677035405		6.157999999999902	2_sub-pilot035_SVR_EEG_block5-6.protocol.csv	step3	780	77.828	STIMULATE	47.9	47.9	47.9	47.9	47.9	3	1896.137
1899.182	0	949591	wait	20	4	0	4	0	1.0	0.0	1.0	0.0						1959.562857299985	1967.5638391000105	1967.5638391000105	5.0	['5', 'return']	[2.1778080000076443, 2.826823300041724]	7.99	5.33	1.0	controle	high_pain	48.9			sub-035	250	35	47.9	48.9	COM11	COM15	COM3	2024-05-21_14h35.47.557	001-EEG_SVR_Officel	2022.2.5	144.4149677035405		9.614000000000033	2_sub-pilot035_SVR_EEG_block5-6.protocol.csv	step5	1012	100.814	STIMULATE	49.0	48.9	48.9	48.9	48.9	5	1919.123
1907.17	0	953585	CNhz	12	4	0	4	0	1.0	0.0	1.0	0.0						1959.562857299985	1967.5638391000105	1967.5638391000105	5.0	['5', 'return']	[2.1778080000076443, 2.826823300041724]	7.99	5.33	1.0	controle	high_pain	48.9			sub-035	250	35	47.9	48.9	COM11	COM15	COM3	2024-05-21_14h35.47.557	001-EEG_SVR_Officel	2022.2.5	144.4149677035405		7.988000000000056	2_sub-pilot035_SVR_EEG_block5-6.protocol.csv	step5	1012	100.814	STIMULATE	49.0	48.9	48.9	48.9	48.9	5	1919.123
1913.252	0	956626	CN/Hi	10	4	0	4	0	1.0	0.0	1.0	0.0						1959.562857299985	1967.5638391000105	1967.5638391000105	5.0	['5', 'return']	[2.1778080000076443, 2.826823300041724]	7.99	5.33	1.0	controle	high_pain	48.9			sub-035	250	35	47.9	48.9	COM11	COM15	COM3	2024-05-21_14h35.47.557	001-EEG_SVR_Officel	2022.2.5	144.4149677035405		5.33199999999988	2_sub-pilot035_SVR_EEG_block5-6.protocol.csv	step5	1012	100.814	STIMULATE	49.0	48.9	48.9	48.9	48.9	5	1919.123
1923.032	0	961516	wait	20	4	0	4	0	2.0	0.0	2.0	0.0						1983.4136165000384	1989.3521611000176	1989.3521611000176	4.0	['4', 'return']	[2.247626999975182, 2.952547799970489]	5.93	5.75	2.0	20hz	high_pain	48.9			sub-035	250	35	47.9	48.9	COM11	COM15	COM3	2024-05-21_14h35.47.557	001-EEG_SVR_Officel	2022.2.5	144.4149677035405		10.529999999999973	2_sub-pilot035_SVR_EEG_block5-6.protocol.csv	step7	1236	123.054	STIMULATE	48.9	48.9	48.9	48.9	48.9	7	1941.363
1928.958	0	964479	20hz	6	4	0	4	0	2.0	0.0	2.0	0.0						1983.4136165000384	1989.3521611000176	1989.3521611000176	4.0	['4', 'return']	[2.247626999975182, 2.952547799970489]	5.93	5.75	2.0	20hz	high_pain	48.9			sub-035	250	35	47.9	48.9	COM11	COM15	COM3	2024-05-21_14h35.47.557	001-EEG_SVR_Officel	2022.2.5	144.4149677035405		5.926000000000158	2_sub-pilot035_SVR_EEG_block5-6.protocol.csv	step7	1236	123.054	STIMULATE	48.9	48.9	48.9	48.9	48.9	7	1941.363
1935.456	0	967728	20/Hi	4	4	0	4	0	2.0	0.0	2.0	0.0						1983.4136165000384	1989.3521611000176	1989.3521611000176	4.0	['4', 'return']	[2.247626999975182, 2.952547799970489]	5.93	5.75	2.0	20hz	high_pain	48.9			sub-035	250	35	47.9	48.9	COM11	COM15	COM3	2024-05-21_14h35.47.557	001-EEG_SVR_Officel	2022.2.5	144.4149677035405		5.74799999999982	2_sub-pilot035_SVR_EEG_block5-6.protocol.csv	step7	1236	123.054	STIMULATE	48.9	48.9	48.9	48.9	48.9	7	1941.363
1944.936	0	972468	wait	20	4	0	4	0	3.0	0.0	3.0	0.0						2005.3183778999955	2012.3254935999869	2012.3254935999869	5.5	['5', 'a', '5', 'return']	[2.8890559999854304, 3.1289897999959067, 3.3362922000233084, 4.03244470001664]	7.0	6.43	3.0	10hz	high_pain	48.9			sub-035	250	35	47.9	48.9	COM11	COM15	COM3	2024-05-21_14h35.47.557	001-EEG_SVR_Officel	2022.2.5	144.4149677035405		10.230000000000018	2_sub-pilot035_SVR_EEG_block5-6.protocol.csv	step9	1474	146.619	STIMULATE	48.9	48.9	48.9	48.9	48.9	9	1964.9279999999999
1951.932	0	975966	10hz	3	4	0	4	0	3.0	0.0	3.0	0.0						2005.3183778999955	2012.3254935999869	2012.3254935999869	5.5	['5', 'a', '5', 'return']	[2.8890559999854304, 3.1289897999959067, 3.3362922000233084, 4.03244470001664]	7.0	6.43	3.0	10hz	high_pain	48.9			sub-035	250	35	47.9	48.9	COM11	COM15	COM3	2024-05-21_14h35.47.557	001-EEG_SVR_Officel	2022.2.5	144.4149677035405		6.996000000000095	2_sub-pilot035_SVR_EEG_block5-6.protocol.csv	step9	1474	146.619	STIMULATE	48.9	48.9	48.9	48.9	48.9	9	1964.9279999999999
1959.112	0	979556	10/Hi	1	4	0	4	0	3.0	0.0	3.0	0.0						2005.3183778999955	2012.3254935999869	2012.3254935999869	5.5	['5', 'a', '5', 'return']	[2.8890559999854304, 3.1289897999959067, 3.3362922000233084, 4.03244470001664]	7.0	6.43	3.0	10hz	high_pain	48.9			sub-035	250	35	47.9	48.9	COM11	COM15	COM3	2024-05-21_14h35.47.557	001-EEG_SVR_Officel	2022.2.5	144.4149677035405		6.430000000000064	2_sub-pilot035_SVR_EEG_block5-6.protocol.csv	step9	1474	146.619	STIMULATE	48.9	48.9	48.9	48.9	48.9	9	1964.9279999999999
1968.988	0	984494	wait	20	4	0	4	0	4.0	0.0	4.0	0.0						2029.3693562999836	2034.5163122999948	2034.5163122999948	6.0	['6', 'return']	[2.0344934000167996, 3.572355800017249]	5.14	5.42	0.0	controle	low_pain	47.9			sub-035	250	35	47.9	48.9	COM11	COM15	COM3	2024-05-21_14h35.47.557	001-EEG_SVR_Officel	2022.2.5	144.4149677035405		10.625999999999976	2_sub-pilot035_SVR_EEG_block5-6.protocol.csv	step11	1688	167.874	STIMULATE	47.9	47.9	47.9	47.8	47.9	11	1986.183
1974.122	0	987061	CNhz	12	4	0	4	0	4.0	0.0	4.0	0.0						2029.3693562999836	2034.5163122999948	2034.5163122999948	6.0	['6', 'return']	[2.0344934000167996, 3.572355800017249]	5.14	5.42	0.0	controle	low_pain	47.9			sub-035	250	35	47.9	48.9	COM11	COM15	COM3	2024-05-21_14h35.47.557	001-EEG_SVR_Officel	2022.2.5	144.4149677035405		5.1340000000000146	2_sub-pilot035_SVR_EEG_block5-6.protocol.csv	step11	1688	167.874	STIMULATE	47.9	47.9	47.9	47.8	47.9	11	1986.183
1980.294	0	990147	CN/Lo	11	4	0	4	0	4.0	0.0	4.0	0.0						2029.3693562999836	2034.5163122999948	2034.5163122999948	6.0	['6', 'return']	[2.0344934000167996, 3.572355800017249]	5.14	5.42	0.0	controle	low_pain	47.9			sub-035	250	35	47.9	48.9	COM11	COM15	COM3	2024-05-21_14h35.47.557	001-EEG_SVR_Officel	2022.2.5	144.4149677035405		5.4220000000000255	2_sub-pilot035_SVR_EEG_block5-6.protocol.csv	step11	1688	167.874	STIMULATE	47.9	47.9	47.9	47.8	47.9	11	1986.183
1990.718	0	995359	wait	20	4	0	4	0	5.0	0.0	5.0	0.0						2051.101133399992	2056.2620806000195	2056.2620806000195	3.0	['3', 'return']	[2.0725876000360586, 2.6805667000007816]	5.15	6.03	1.0	40hz	low_pain	47.9			sub-035	250	35	47.9	48.9	COM11	COM15	COM3	2024-05-21_14h35.47.557	001-EEG_SVR_Officel	2022.2.5	144.4149677035405		11.173999999999978	2_sub-pilot035_SVR_EEG_block5-6.protocol.csv	step13	1913	190.172	STIMULATE	48.0	47.9	47.9	47.9	47.9	13	2008.481
