onset	duration	sample	trial_type	value	block.thisRepN	block.thisTrialN	block.thisN	block.thisIndex	reps.thisRepN	reps.thisTrialN	reps.thisN	reps.thisIndex	afrec_start	rec_start	rec_start_egi	key_resp.keys	key_resp.rt	wait_time_text.started	wait_time_text.stopped	therm_loca_text.started	subResponse	keyResp.keys	keyResp.rt	ITI_wait	wait_trigger	loca_thermode	Hz_condition	temp_condition	temp_valeur	text.started	text.stopped	participant	brightness	num_part	low	high	com_svr	com_thermode	com_eeg	date	expName	psychopyVersion	frameRate	Unnamed: 39	distance_from_previous	file	step	index	time	type	temp1	temp2	temp3	temp4	temp5	step_num	time_sync
162.208	0	81104	wait	20	0	0	0	0	0.0	0.0	0.0	0.0	28.101109199924394	27.906935199862343	1715103950.8595252	p	161.97629430005327	190.1064267999027	197.37806029990315	197.37806029990315	999.0	['9', '9', '9', 'return']	[16.032947100000456, 16.168033000081778, 16.54439530009404, 17.90520150004886]	7.26	5.55	0.0	20hz	low_pain	41.8			sub-034	250	34	41.8	44.7	COM11	COM15	COM3	2024-05-07_13h45.41.546	001-EEG_SVR_Officel	2022.2.5	143.44814930472273		162.208	0_sub-pilot034_SVR_EEG_block1-2.protocol.csv	step3	2260	225.821	STIMULATE	41.8	41.8	41.8	41.8	41.8	3	181.611
169.468	0	84734	20hz	6	0	0	0	0	0.0	0.0	0.0	0.0	28.101109199924394	27.906935199862343	1715103950.8595252	p	161.97629430005327	190.1064267999027	197.37806029990315	197.37806029990315	999.0	['9', '9', '9', 'return']	[16.032947100000456, 16.168033000081778, 16.54439530009404, 17.90520150004886]	7.26	5.55	0.0	20hz	low_pain	41.8			sub-034	250	34	41.8	44.7	COM11	COM15	COM3	2024-05-07_13h45.41.546	001-EEG_SVR_Officel	2022.2.5	143.44814930472273		7.259999999999991	0_sub-pilot034_SVR_EEG_block1-2.protocol.csv	step3	2260	225.821	STIMULATE	41.8	41.8	41.8	41.8	41.8	3	181.611
175.772	0	87886	20/Lo	5	0	0	0	0	0.0	0.0	0.0	0.0	28.101109199924394	27.906935199862343	1715103950.8595252	p	161.97629430005327	190.1064267999027	197.37806029990315	197.37806029990315	999.0	['9', '9', '9', 'return']	[16.032947100000456, 16.168033000081778, 16.54439530009404, 17.90520150004886]	7.26	5.55	0.0	20hz	low_pain	41.8			sub-034	250	34	41.8	44.7	COM11	COM15	COM3	2024-05-07_13h45.41.546	001-EEG_SVR_Officel	2022.2.5	143.44814930472273		5.554000000000002	0_sub-pilot034_SVR_EEG_block1-2.protocol.csv	step3	2260	225.821	STIMULATE	41.8	41.8	41.8	41.8	41.8	3	181.611
200.412	0	100206	wait	20	0	0	0	0	1.0	0.0	1.0	0.0						228.31218159990385	235.11170899984427	235.11170899984427	6.0	['6', 'return']	[4.369916799943894, 5.025311099831015]	6.79	5.53	1.0	10hz	high_pain	44.7			sub-034	250	34	41.8	44.7	COM11	COM15	COM3	2024-05-07_13h45.41.546	001-EEG_SVR_Officel	2022.2.5	143.44814930472273		25.390000000000015	0_sub-pilot034_SVR_EEG_block1-2.protocol.csv	step5	2639	263.565	STIMULATE	44.8	44.6	44.6	44.6	44.7	5	219.355
207.2	0	103600	10hz	3	0	0	0	0	1.0	0.0	1.0	0.0						228.31218159990385	235.11170899984427	235.11170899984427	6.0	['6', 'return']	[4.369916799943894, 5.025311099831015]	6.79	5.53	1.0	10hz	high_pain	44.7			sub-034	250	34	41.8	44.7	COM11	COM15	COM3	2024-05-07_13h45.41.546	001-EEG_SVR_Officel	2022.2.5	143.44814930472273		6.7879999999999825	0_sub-pilot034_SVR_EEG_block1-2.protocol.csv	step5	2639	263.565	STIMULATE	44.8	44.6	44.6	44.6	44.7	5	219.355
213.484	0	106742	10/Hi	1	0	0	0	0	1.0	0.0	1.0	0.0						228.31218159990385	235.11170899984427	235.11170899984427	6.0	['6', 'return']	[4.369916799943894, 5.025311099831015]	6.79	5.53	1.0	10hz	high_pain	44.7			sub-034	250	34	41.8	44.7	COM11	COM15	COM3	2024-05-07_13h45.41.546	001-EEG_SVR_Officel	2022.2.5	143.44814930472273		5.53400000000002	0_sub-pilot034_SVR_EEG_block1-2.protocol.csv	step5	2639	263.565	STIMULATE	44.8	44.6	44.6	44.6	44.7	5	219.355
225.258	0	112629	wait	20	0	0	0	0	2.0	0.0	2.0	0.0						253.1558180998545	259.59442669991404	259.59442669991404	3.5	['3', 'a', '5', 'return']	[2.760014700004831, 2.952191699994728, 3.3349627000279725, 4.855257799848914]	6.43	6.48	2.0	20hz	low_pain	41.8			sub-034	250	34	41.8	44.7	COM11	COM15	COM3	2024-05-07_13h45.41.546	001-EEG_SVR_Officel	2022.2.5	143.44814930472273		12.524000000000001	0_sub-pilot034_SVR_EEG_block1-2.protocol.csv	step7	2895	288.922	STIMULATE	41.7	41.6	41.6	41.6	41.7	7	244.71200000000002
231.684	0	115842	20hz	6	0	0	0	0	2.0	0.0	2.0	0.0						253.1558180998545	259.59442669991404	259.59442669991404	3.5	['3', 'a', '5', 'return']	[2.760014700004831, 2.952191699994728, 3.3349627000279725, 4.855257799848914]	6.43	6.48	2.0	20hz	low_pain	41.8			sub-034	250	34	41.8	44.7	COM11	COM15	COM3	2024-05-07_13h45.41.546	001-EEG_SVR_Officel	2022.2.5	143.44814930472273		6.425999999999988	0_sub-pilot034_SVR_EEG_block1-2.protocol.csv	step7	2895	288.922	STIMULATE	41.7	41.6	41.6	41.6	41.7	7	244.71200000000002
238.918	0	119459	20/Lo	5	0	0	0	0	2.0	0.0	2.0	0.0						253.1558180998545	259.59442669991404	259.59442669991404	3.5	['3', 'a', '5', 'return']	[2.760014700004831, 2.952191699994728, 3.3349627000279725, 4.855257799848914]	6.43	6.48	2.0	20hz	low_pain	41.8			sub-034	250	34	41.8	44.7	COM11	COM15	COM3	2024-05-07_13h45.41.546	001-EEG_SVR_Officel	2022.2.5	143.44814930472273		6.484000000000009	0_sub-pilot034_SVR_EEG_block1-2.protocol.csv	step7	2895	288.922	STIMULATE	41.7	41.6	41.6	41.6	41.7	7	244.71200000000002
249.572	0	124786	wait	20	0	0	0	0	3.0	0.0	3.0	0.0						277.4712704999838	284.4302504998632	284.4302504998632	3.5	['3', 'a', '5', 'return']	[3.2427846998907626, 3.4995390998665243, 3.836995800025761, 4.932442500023171]	6.95	6.35	3.0	20hz	low_pain	41.8			sub-034	250	34	41.8	44.7	COM11	COM15	COM3	2024-05-07_13h45.41.546	001-EEG_SVR_Officel	2022.2.5	143.44814930472273		11.403999999999996	0_sub-pilot034_SVR_EEG_block1-2.protocol.csv	step9	3144	313.612	STIMULATE	41.7	41.6	41.6	41.6	41.7	9	269.40200000000004
256.518	0	128258	20hz	6	0	0	0	0	3.0	0.0	3.0	0.0						277.4712704999838	284.4302504998632	284.4302504998632	3.5	['3', 'a', '5', 'return']	[3.2427846998907626, 3.4995390998665243, 3.836995800025761, 4.932442500023171]	6.95	6.35	3.0	20hz	low_pain	41.8			sub-034	250	34	41.8	44.7	COM11	COM15	COM3	2024-05-07_13h45.41.546	001-EEG_SVR_Officel	2022.2.5	143.44814930472273		6.9459999999999695	0_sub-pilot034_SVR_EEG_block1-2.protocol.csv	step9	3144	313.612	STIMULATE	41.7	41.6	41.6	41.6	41.7	9	269.40200000000004
263.622	0	131811	20/Lo	5	0	0	0	0	3.0	0.0	3.0	0.0						277.4712704999838	284.4302504998632	284.4302504998632	3.5	['3', 'a', '5', 'return']	[3.2427846998907626, 3.4995390998665243, 3.836995800025761, 4.932442500023171]	6.95	6.35	3.0	20hz	low_pain	41.8			sub-034	250	34	41.8	44.7	COM11	COM15	COM3	2024-05-07_13h45.41.546	001-EEG_SVR_Officel	2022.2.5	143.44814930472273		6.354000000000042	0_sub-pilot034_SVR_EEG_block1-2.protocol.csv	step9	3144	313.612	STIMULATE	41.7	41.6	41.6	41.6	41.7	9	269.40200000000004
274.476	0	137238	wait	20	0	0	0	0	4.0	0.0	4.0	0.0						302.3755657000001	309.7941413000226	309.7941413000226	6.5	['6', 'a', '5', 'return']	[2.7823479999788105, 3.0861144999507815, 3.2870368000585586, 3.9413622999563813]	7.41	5.98	0.0	10hz	high_pain	44.7			sub-034	250	34	41.8	44.7	COM11	COM15	COM3	2024-05-07_13h45.41.546	001-EEG_SVR_Officel	2022.2.5	143.44814930472273		11.603999999999985	0_sub-pilot034_SVR_EEG_block1-2.protocol.csv	step11	3396	338.654	STIMULATE	44.7	44.6	44.6	44.6	44.7	11	294.44399999999996
281.882	0	140941	10hz	3	0	0	0	0	4.0	0.0	4.0	0.0						302.3755657000001	309.7941413000226	309.7941413000226	6.5	['6', 'a', '5', 'return']	[2.7823479999788105, 3.0861144999507815, 3.2870368000585586, 3.9413622999563813]	7.41	5.98	0.0	10hz	high_pain	44.7			sub-034	250	34	41.8	44.7	COM11	COM15	COM3	2024-05-07_13h45.41.546	001-EEG_SVR_Officel	2022.2.5	143.44814930472273		7.406000000000006	0_sub-pilot034_SVR_EEG_block1-2.protocol.csv	step11	3396	338.654	STIMULATE	44.7	44.6	44.6	44.6	44.7	11	294.44399999999996
288.618	0	144309	10/Hi	1	0	0	0	0	4.0	0.0	4.0	0.0						302.3755657000001	309.7941413000226	309.7941413000226	6.5	['6', 'a', '5', 'return']	[2.7823479999788105, 3.0861144999507815, 3.2870368000585586, 3.9413622999563813]	7.41	5.98	0.0	10hz	high_pain	44.7			sub-034	250	34	41.8	44.7	COM11	COM15	COM3	2024-05-07_13h45.41.546	001-EEG_SVR_Officel	2022.2.5	143.44814930472273		5.98599999999999	0_sub-pilot034_SVR_EEG_block1-2.protocol.csv	step11	3396	338.654	STIMULATE	44.7	44.6	44.6	44.6	44.7	11	294.44399999999996
298.848	0	149424	wait	20	0	0	0	0	5.0	0.0	5.0	0.0						326.7470058000181	334.199842199916	334.199842199916	6.0	['6', 'return']	[2.1702801000792533, 2.610962900100276]	7.44	5.95	1.0	20hz	high_pain	44.7			sub-034	250	34	41.8	44.7	COM11	COM15	COM3	2024-05-07_13h45.41.546	001-EEG_SVR_Officel	2022.2.5	143.44814930472273		10.980000000000018	0_sub-pilot034_SVR_EEG_block1-2.protocol.csv	step13	3641	363.001	STIMULATE	44.6	44.6	44.6	44.6	44.8	13	318.79099999999994
306.29	0	153145	20hz	6	0	0	0	0	5.0	0.0	5.0	0.0						326.7470058000181	334.199842199916	334.199842199916	6.0	['6', 'return']	[2.1702801000792533, 2.610962900100276]	7.44	5.95	1.0	20hz	high_pain	44.7			sub-034	250	34	41.8	44.7	COM11	COM15	COM3	2024-05-07_13h45.41.546	001-EEG_SVR_Officel	2022.2.5	143.44814930472273		7.442000000000007	0_sub-pilot034_SVR_EEG_block1-2.protocol.csv	step13	3641	363.001	STIMULATE	44.6	44.6	44.6	44.6	44.8	13	318.79099999999994
312.996	0	156498	20/Hi	4	0	0	0	0	5.0	0.0	5.0	0.0						326.7470058000181	334.199842199916	334.199842199916	6.0	['6', 'return']	[2.1702801000792533, 2.610962900100276]	7.44	5.95	1.0	20hz	high_pain	44.7			sub-034	250	34	41.8	44.7	COM11	COM15	COM3	2024-05-07_13h45.41.546	001-EEG_SVR_Officel	2022.2.5	143.44814930472273		5.95599999999996	0_sub-pilot034_SVR_EEG_block1-2.protocol.csv	step13	3641	363.001	STIMULATE	44.6	44.6	44.6	44.6	44.8	13	318.79099999999994
321.928	0	160964	wait	20	0	0	0	0	6.0	0.0	6.0	0.0						349.8266943998169	356.6747532999143	356.6747532999143	3.0	['3', 'return']	[3.221899600001052, 22.86160539998673]	6.84	5.19	2.0	40hz	low_pain	41.8			sub-034	250	34	41.8	44.7	COM11	COM15	COM3	2024-05-07_13h45.41.546	001-EEG_SVR_Officel	2022.2.5	143.44814930472273		9.682000000000016	0_sub-pilot034_SVR_EEG_block1-2.protocol.csv	step15	3861	384.716	STIMULATE	41.7	41.6	41.6	41.6	41.6	15	340.506
328.764	0	164382	40hz	9	0	0	0	0	6.0	0.0	6.0	0.0						349.8266943998169	356.6747532999143	356.6747532999143	3.0	['3', 'return']	[3.221899600001052, 22.86160539998673]	6.84	5.19	2.0	40hz	low_pain	41.8			sub-034	250	34	41.8	44.7	COM11	COM15	COM3	2024-05-07_13h45.41.546	001-EEG_SVR_Officel	2022.2.5	143.44814930472273		6.836000000000013	0_sub-pilot034_SVR_EEG_block1-2.protocol.csv	step15	3861	384.716	STIMULATE	41.7	41.6	41.6	41.6	41.6	15	340.506
334.706	0	167353	40/Lo	8	0	0	0	0	6.0	0.0	6.0	0.0						349.8266943998169	356.6747532999143	356.6747532999143	3.0	['3', 'return']	[3.221899600001052, 22.86160539998673]	6.84	5.19	2.0	40hz	low_pain	41.8			sub-034	250	34	41.8	44.7	COM11	COM15	COM3	2024-05-07_13h45.41.546	001-EEG_SVR_Officel	2022.2.5	143.44814930472273		5.192000000000007	0_sub-pilot034_SVR_EEG_block1-2.protocol.csv	step15	3861	384.716	STIMULATE	41.7	41.6	41.6	41.6	41.6	15	340.506
364.656	0	182328	wait	20	0	0	0	0	7.0	0.0	7.0	0.0						392.5547762999777	399.3469040999189	399.3469040999189	5.5	['5', 'a', '5', 'return']	[2.13215780002065, 2.372601799899712, 2.5081093998160213, 3.1159904999658465]	6.78	5.1	3.0	40hz	high_pain	44.7			sub-034	250	34	41.8	44.7	COM11	COM15	COM3	2024-05-07_13h45.41.546	001-EEG_SVR_Officel	2022.2.5	143.44814930472273		30.69999999999999	0_sub-pilot034_SVR_EEG_block1-2.protocol.csv	step17	4289	427.322	STIMULATE	44.7	44.6	44.6	44.6	44.6	17	383.11199999999997
371.436	0	185718	40hz	9	0	0	0	0	7.0	0.0	7.0	0.0						392.5547762999777	399.3469040999189	399.3469040999189	5.5	['5', 'a', '5', 'return']	[2.13215780002065, 2.372601799899712, 2.5081093998160213, 3.1159904999658465]	6.78	5.1	3.0	40hz	high_pain	44.7			sub-034	250	34	41.8	44.7	COM11	COM15	COM3	2024-05-07_13h45.41.546	001-EEG_SVR_Officel	2022.2.5	143.44814930472273		6.779999999999973	0_sub-pilot034_SVR_EEG_block1-2.protocol.csv	step17	4289	427.322	STIMULATE	44.7	44.6	44.6	44.6	44.6	17	383.11199999999997
377.288	0	188644	40/Hi	7	0	0	0	0	7.0	0.0	7.0	0.0						392.5547762999777	399.3469040999189	399.3469040999189	5.5	['5', 'a', '5', 'return']	[2.13215780002065, 2.372601799899712, 2.5081093998160213, 3.1159904999658465]	6.78	5.1	3.0	40hz	high_pain	44.7			sub-034	250	34	41.8	44.7	COM11	COM15	COM3	2024-05-07_13h45.41.546	001-EEG_SVR_Officel	2022.2.5	143.44814930472273		5.102000000000032	0_sub-pilot034_SVR_EEG_block1-2.protocol.csv	step17	4289	427.322	STIMULATE	44.7	44.6	44.6	44.6	44.6	17	383.11199999999997
387.574	0	193787	wait	20	0	0	0	0	8.0	0.0	8.0	0.0						415.47386899986304	420.9811209000181	420.9811209000181	2.5	['2', 'a', '5', 'return']	[2.307108100038022, 2.483068099943921, 2.923287099925801, 3.8605015000794083]	5.5	5.46	0.0	10hz	low_pain	41.8			sub-034	250	34	41.8	44.7	COM11	COM15	COM3	2024-05-07_13h45.41.546	001-EEG_SVR_Officel	2022.2.5	143.44814930472273		11.036000000000001	0_sub-pilot034_SVR_EEG_block1-2.protocol.csv	step19	4512	449.425	STIMULATE	41.6	41.6	41.6	41.6	41.8	19	405.21500000000003
393.07	0	196535	10hz	3	0	0	0	0	8.0	0.0	8.0	0.0						415.47386899986304	420.9811209000181	420.9811209000181	2.5	['2', 'a', '5', 'return']	[2.307108100038022, 2.483068099943921, 2.923287099925801, 3.8605015000794083]	5.5	5.46	0.0	10hz	low_pain	41.8			sub-034	250	34	41.8	44.7	COM11	COM15	COM3	2024-05-07_13h45.41.546	001-EEG_SVR_Officel	2022.2.5	143.44814930472273		5.495999999999981	0_sub-pilot034_SVR_EEG_block1-2.protocol.csv	step19	4512	449.425	STIMULATE	41.6	41.6	41.6	41.6	41.8	19	405.21500000000003
399.282	0	199641	10/Lo	2	0	0	0	0	8.0	0.0	8.0	0.0						415.47386899986304	420.9811209000181	420.9811209000181	2.5	['2', 'a', '5', 'return']	[2.307108100038022, 2.483068099943921, 2.923287099925801, 3.8605015000794083]	5.5	5.46	0.0	10hz	low_pain	41.8			sub-034	250	34	41.8	44.7	COM11	COM15	COM3	2024-05-07_13h45.41.546	001-EEG_SVR_Officel	2022.2.5	143.44814930472273		5.461999999999989	0_sub-pilot034_SVR_EEG_block1-2.protocol.csv	step19	4512	449.425	STIMULATE	41.6	41.6	41.6	41.6	41.8	19	405.21500000000003
409.958	0	204979	wait	20	0	0	0	0	9.0	0.0	9.0	0.0						437.85822309996	443.4698187999893	443.4698187999893	2.0	['2', 'return']	[1.8750267999712378, 2.403766999952495]	5.6	5.58	1.0	10hz	low_pain	41.8			sub-034	250	34	41.8	44.7	COM11	COM15	COM3	2024-05-07_13h45.41.546	001-EEG_SVR_Officel	2022.2.5	143.44814930472273		11.426000000000045	0_sub-pilot034_SVR_EEG_block1-2.protocol.csv	step21	4740	472.021	STIMULATE	41.7	41.6	41.6	41.6	41.8	21	427.81100000000004
415.558	0	207779	10hz	3	0	0	0	0	9.0	0.0	9.0	0.0						437.85822309996	443.4698187999893	443.4698187999893	2.0	['2', 'return']	[1.8750267999712378, 2.403766999952495]	5.6	5.58	1.0	10hz	low_pain	41.8			sub-034	250	34	41.8	44.7	COM11	COM15	COM3	2024-05-07_13h45.41.546	001-EEG_SVR_Officel	2022.2.5	143.44814930472273		5.599999999999966	0_sub-pilot034_SVR_EEG_block1-2.protocol.csv	step21	4740	472.021	STIMULATE	41.7	41.6	41.6	41.6	41.8	21	427.81100000000004
421.89	0	210945	10/Lo	2	0	0	0	0	9.0	0.0	9.0	0.0						437.85822309996	443.4698187999893	443.4698187999893	2.0	['2', 'return']	[1.8750267999712378, 2.403766999952495]	5.6	5.58	1.0	10hz	low_pain	41.8			sub-034	250	34	41.8	44.7	COM11	COM15	COM3	2024-05-07_13h45.41.546	001-EEG_SVR_Officel	2022.2.5	143.44814930472273		5.581999999999994	0_sub-pilot034_SVR_EEG_block1-2.protocol.csv	step21	4740	472.021	STIMULATE	41.7	41.6	41.6	41.6	41.8	21	427.81100000000004
430.996	0	215498	wait	20	0	0	0	0	10.0	0.0	10.0	0.0						458.8952796999365	464.3543972999323	464.3543972999323	6.0	['6', 'return']	[3.0301830999087542, 3.399429199984297]	5.45	5.25	2.0	20hz	high_pain	44.7			sub-034	250	34	41.8	44.7	COM11	COM15	COM3	2024-05-07_13h45.41.546	001-EEG_SVR_Officel	2022.2.5	143.44814930472273		9.855999999999995	0_sub-pilot034_SVR_EEG_block1-2.protocol.csv	step23	4946	492.513	STIMULATE	44.7	44.6	44.6	44.6	44.6	23	448.30299999999994
436.442	0	218221	20hz	6	0	0	0	0	10.0	0.0	10.0	0.0						458.8952796999365	464.3543972999323	464.3543972999323	6.0	['6', 'return']	[3.0301830999087542, 3.399429199984297]	5.45	5.25	2.0	20hz	high_pain	44.7			sub-034	250	34	41.8	44.7	COM11	COM15	COM3	2024-05-07_13h45.41.546	001-EEG_SVR_Officel	2022.2.5	143.44814930472273		5.446000000000026	0_sub-pilot034_SVR_EEG_block1-2.protocol.csv	step23	4946	492.513	STIMULATE	44.7	44.6	44.6	44.6	44.6	23	448.30299999999994
442.44	0	221220	20/Hi	4	0	0	0	0	10.0	0.0	10.0	0.0						458.8952796999365	464.3543972999323	464.3543972999323	6.0	['6', 'return']	[3.0301830999087542, 3.399429199984297]	5.45	5.25	2.0	20hz	high_pain	44.7			sub-034	250	34	41.8	44.7	COM11	COM15	COM3	2024-05-07_13h45.41.546	001-EEG_SVR_Officel	2022.2.5	143.44814930472273		5.2479999999999905	0_sub-pilot034_SVR_EEG_block1-2.protocol.csv	step23	4946	492.513	STIMULATE	44.7	44.6	44.6	44.6	44.6	23	448.30299999999994
452.864	0	226432	wait	20	0	0	0	0	11.0	0.0	11.0	0.0						480.7652673998382	485.8570858000312	485.8570858000312	3.0	['3', 'return']	[1.8156022999901325, 2.5212913998402655]	5.08	5.44	3.0	40hz	low_pain	41.8			sub-034	250	34	41.8	44.7	COM11	COM15	COM3	2024-05-07_13h45.41.546	001-EEG_SVR_Officel	2022.2.5	143.44814930472273		11.173999999999978	0_sub-pilot034_SVR_EEG_block1-2.protocol.csv	step25	5166	514.238	STIMULATE	41.7	41.6	41.6	41.6	41.7	25	470.0280000000001
457.946	0	228973	40hz	9	0	0	0	0	11.0	0.0	11.0	0.0						480.7652673998382	485.8570858000312	485.8570858000312	3.0	['3', 'return']	[1.8156022999901325, 2.5212913998402655]	5.08	5.44	3.0	40hz	low_pain	41.8			sub-034	250	34	41.8	44.7	COM11	COM15	COM3	2024-05-07_13h45.41.546	001-EEG_SVR_Officel	2022.2.5	143.44814930472273		5.0820000000000505	0_sub-pilot034_SVR_EEG_block1-2.protocol.csv	step25	5166	514.238	STIMULATE	41.7	41.6	41.6	41.6	41.7	25	470.0280000000001
464.138	0	232069	40/Lo	8	0	0	0	0	11.0	0.0	11.0	0.0						480.7652673998382	485.8570858000312	485.8570858000312	3.0	['3', 'return']	[1.8156022999901325, 2.5212913998402655]	5.08	5.44	3.0	40hz	low_pain	41.8			sub-034	250	34	41.8	44.7	COM11	COM15	COM3	2024-05-07_13h45.41.546	001-EEG_SVR_Officel	2022.2.5	143.44814930472273		5.44199999999995	0_sub-pilot034_SVR_EEG_block1-2.protocol.csv	step25	5166	514.238	STIMULATE	41.7	41.6	41.6	41.6	41.7	25	470.0280000000001
473.502	0	236751	wait	20	0	0	0	0	12.0	0.0	12.0	0.0						501.40080649987794	508.88116319989786	508.88116319989786	6.5	['6', 'a', '5', 'return']	[1.9211233998648822, 2.368267700076103, 2.528712499886751, 3.170077099930495]	7.47	5.54	0.0	controle	high_pain	44.7			sub-034	250	34	41.8	44.7	COM11	COM15	COM3	2024-05-07_13h45.41.546	001-EEG_SVR_Officel	2022.2.5	143.44814930472273		10.114000000000033	0_sub-pilot034_SVR_EEG_block1-2.protocol.csv	step27	5399	537.337	STIMULATE	44.7	44.6	44.6	44.6	44.6	27	493.127
480.968	0	240484	CNhz	12	0	0	0	0	12.0	0.0	12.0	0.0						501.40080649987794	508.88116319989786	508.88116319989786	6.5	['6', 'a', '5', 'return']	[1.9211233998648822, 2.368267700076103, 2.528712499886751, 3.170077099930495]	7.47	5.54	0.0	controle	high_pain	44.7			sub-034	250	34	41.8	44.7	COM11	COM15	COM3	2024-05-07_13h45.41.546	001-EEG_SVR_Officel	2022.2.5	143.44814930472273		7.466000000000008	0_sub-pilot034_SVR_EEG_block1-2.protocol.csv	step27	5399	537.337	STIMULATE	44.7	44.6	44.6	44.6	44.6	27	493.127
487.258	0	243629	CN/Hi	10	0	0	0	0	12.0	0.0	12.0	0.0						501.40080649987794	508.88116319989786	508.88116319989786	6.5	['6', 'a', '5', 'return']	[1.9211233998648822, 2.368267700076103, 2.528712499886751, 3.170077099930495]	7.47	5.54	0.0	controle	high_pain	44.7			sub-034	250	34	41.8	44.7	COM11	COM15	COM3	2024-05-07_13h45.41.546	001-EEG_SVR_Officel	2022.2.5	143.44814930472273		5.539999999999964	0_sub-pilot034_SVR_EEG_block1-2.protocol.csv	step27	5399	537.337	STIMULATE	44.7	44.6	44.6	44.6	44.6	27	493.127
497.17	0	248585	wait	20	0	0	0	0	13.0	0.0	13.0	0.0						525.0699978999328	532.0012614999432	532.0012614999432	4.0	['4', 'return']	[2.9116542998235673, 3.4554400998167694]	6.92	5.34	1.0	controle	low_pain	41.8			sub-034	250	34	41.8	44.7	COM11	COM15	COM3	2024-05-07_13h45.41.546	001-EEG_SVR_Officel	2022.2.5	143.44814930472273		10.662000000000035	0_sub-pilot034_SVR_EEG_block1-2.protocol.csv	step29	5630	560.289	STIMULATE	41.7	41.6	41.6	41.6	41.7	29	516.079
504.088	0	252044	CNhz	12	0	0	0	0	13.0	0.0	13.0	0.0						525.0699978999328	532.0012614999432	532.0012614999432	4.0	['4', 'return']	[2.9116542998235673, 3.4554400998167694]	6.92	5.34	1.0	controle	low_pain	41.8			sub-034	250	34	41.8	44.7	COM11	COM15	COM3	2024-05-07_13h45.41.546	001-EEG_SVR_Officel	2022.2.5	143.44814930472273		6.918000000000006	0_sub-pilot034_SVR_EEG_block1-2.protocol.csv	step29	5630	560.289	STIMULATE	41.7	41.6	41.6	41.6	41.7	29	516.079
510.176	0	255088	CN/Lo	11	0	0	0	0	13.0	0.0	13.0	0.0						525.0699978999328	532.0012614999432	532.0012614999432	4.0	['4', 'return']	[2.9116542998235673, 3.4554400998167694]	6.92	5.34	1.0	controle	low_pain	41.8			sub-034	250	34	41.8	44.7	COM11	COM15	COM3	2024-05-07_13h45.41.546	001-EEG_SVR_Officel	2022.2.5	143.44814930472273		5.337999999999965	0_sub-pilot034_SVR_EEG_block1-2.protocol.csv	step29	5630	560.289	STIMULATE	41.7	41.6	41.6	41.6	41.7	29	516.079
520.568	0	260284	wait	20	0	0	0	0	14.0	0.0	14.0	0.0						548.468706100015	554.2408449000213	554.2408449000213	5.0	['5', 'return']	[1.864714000141248, 2.3065233000088483]	5.76	5.4	2.0	40hz	high_pain	44.7			sub-034	250	34	41.8	44.7	COM11	COM15	COM3	2024-05-07_13h45.41.546	001-EEG_SVR_Officel	2022.2.5	143.44814930472273		11.141999999999996	0_sub-pilot034_SVR_EEG_block1-2.protocol.csv	step31	5856	582.618	STIMULATE	44.7	44.6	44.6	44.6	44.6	31	538.4080000000001
526.328	0	263164	40hz	9	0	0	0	0	14.0	0.0	14.0	0.0						548.468706100015	554.2408449000213	554.2408449000213	5.0	['5', 'return']	[1.864714000141248, 2.3065233000088483]	5.76	5.4	2.0	40hz	high_pain	44.7			sub-034	250	34	41.8	44.7	COM11	COM15	COM3	2024-05-07_13h45.41.546	001-EEG_SVR_Officel	2022.2.5	143.44814930472273		5.759999999999991	0_sub-pilot034_SVR_EEG_block1-2.protocol.csv	step31	5856	582.618	STIMULATE	44.7	44.6	44.6	44.6	44.6	31	538.4080000000001
532.48	0	266240	40/Hi	7	0	0	0	0	14.0	0.0	14.0	0.0						548.468706100015	554.2408449000213	554.2408449000213	5.0	['5', 'return']	[1.864714000141248, 2.3065233000088483]	5.76	5.4	2.0	40hz	high_pain	44.7			sub-034	250	34	41.8	44.7	COM11	COM15	COM3	2024-05-07_13h45.41.546	001-EEG_SVR_Officel	2022.2.5	143.44814930472273		5.402000000000044	0_sub-pilot034_SVR_EEG_block1-2.protocol.csv	step31	5856	582.618	STIMULATE	44.7	44.6	44.6	44.6	44.6	31	538.4080000000001
541.668	0	270834	wait	20	0	0	0	0	15.0	0.0	15.0	0.0						569.5682022999972	577.4372494998388	577.4372494998388	3.5	['3', 'a', '5', 'return']	[1.8434521998278797, 2.0448841999750584, 2.6284334999509156, 4.316724699921906]	7.86	6.43	3.0	10hz	low_pain	41.8			sub-034	250	34	41.8	44.7	COM11	COM15	COM3	2024-05-07_13h45.41.546	001-EEG_SVR_Officel	2022.2.5	143.44814930472273		9.937999999999988	0_sub-pilot034_SVR_EEG_block1-2.protocol.csv	step33	6099	606.755	STIMULATE	41.7	41.6	41.6	41.6	41.6	33	562.5450000000001
549.526	0	274763	10hz	3	0	0	0	0	15.0	0.0	15.0	0.0						569.5682022999972	577.4372494998388	577.4372494998388	3.5	['3', 'a', '5', 'return']	[1.8434521998278797, 2.0448841999750584, 2.6284334999509156, 4.316724699921906]	7.86	6.43	3.0	10hz	low_pain	41.8			sub-034	250	34	41.8	44.7	COM11	COM15	COM3	2024-05-07_13h45.41.546	001-EEG_SVR_Officel	2022.2.5	143.44814930472273		7.857999999999947	0_sub-pilot034_SVR_EEG_block1-2.protocol.csv	step33	6099	606.755	STIMULATE	41.7	41.6	41.6	41.6	41.6	33	562.5450000000001
556.704	0	278352	10/Lo	2	0	0	0	0	15.0	0.0	15.0	0.0						569.5682022999972	577.4372494998388	577.4372494998388	3.5	['3', 'a', '5', 'return']	[1.8434521998278797, 2.0448841999750584, 2.6284334999509156, 4.316724699921906]	7.86	6.43	3.0	10hz	low_pain	41.8			sub-034	250	34	41.8	44.7	COM11	COM15	COM3	2024-05-07_13h45.41.546	001-EEG_SVR_Officel	2022.2.5	143.44814930472273		6.427999999999997	0_sub-pilot034_SVR_EEG_block1-2.protocol.csv	step33	6099	606.755	STIMULATE	41.7	41.6	41.6	41.6	41.6	33	562.5450000000001
631.666	0	315833	wait	20	1	0	1	0	0.0	0.0	0.0	0.0				p	2.4351456998847425	659.5653780000284	667.1145883998834	667.1145883998834	6.0	['6', 'return']	[2.5278002000413835, 2.846530699869618]	7.54	5.74	0.0	40hz	high_pain	44.7			sub-034	250	34	41.8	44.7	COM11	COM15	COM3	2024-05-07_13h45.41.546	001-EEG_SVR_Officel	2022.2.5	143.44814930472273		75.7120000000001	0_sub-pilot034_SVR_EEG_block1-2.protocol.csv	step35	6992	695.83	STIMULATE	44.7	44.6	44.6	44.6	44.6	35	651.622
639.2	0	319600	40hz	9	1	0	1	0	0.0	0.0	0.0	0.0				p	2.4351456998847425	659.5653780000284	667.1145883998834	667.1145883998834	6.0	['6', 'return']	[2.5278002000413835, 2.846530699869618]	7.54	5.74	0.0	40hz	high_pain	44.7			sub-034	250	34	41.8	44.7	COM11	COM15	COM3	2024-05-07_13h45.41.546	001-EEG_SVR_Officel	2022.2.5	143.44814930472273		7.533999999999992	0_sub-pilot034_SVR_EEG_block1-2.protocol.csv	step35	6992	695.83	STIMULATE	44.7	44.6	44.6	44.6	44.6	35	651.622
645.694	0	322847	40/Hi	7	1	0	1	0	0.0	0.0	0.0	0.0				p	2.4351456998847425	659.5653780000284	667.1145883998834	667.1145883998834	6.0	['6', 'return']	[2.5278002000413835, 2.846530699869618]	7.54	5.74	0.0	40hz	high_pain	44.7			sub-034	250	34	41.8	44.7	COM11	COM15	COM3	2024-05-07_13h45.41.546	001-EEG_SVR_Officel	2022.2.5	143.44814930472273		5.7439999999999145	0_sub-pilot034_SVR_EEG_block1-2.protocol.csv	step35	6992	695.83	STIMULATE	44.7	44.6	44.6	44.6	44.6	35	651.622
655.07	0	327535	wait	20	1	0	1	0	1.0	0.0	1.0	0.0						682.9705672999844	688.9783783999737	688.9783783999737	6.0	['6', 'return']	[3.1347963998559862, 3.3592064999975264]	6.0	5.83	1.0	40hz	high_pain	44.7			sub-034	250	34	41.8	44.7	COM11	COM15	COM3	2024-05-07_13h45.41.546	001-EEG_SVR_Officel	2022.2.5	143.44814930472273		10.12600000000009	0_sub-pilot034_SVR_EEG_block1-2.protocol.csv	step37	7212	717.68	STIMULATE	44.7	44.6	44.6	44.6	44.8	37	673.4719999999999
661.066	0	330533	40hz	9	1	0	1	0	1.0	0.0	1.0	0.0						682.9705672999844	688.9783783999737	688.9783783999737	6.0	['6', 'return']	[3.1347963998559862, 3.3592064999975264]	6.0	5.83	1.0	40hz	high_pain	44.7			sub-034	250	34	41.8	44.7	COM11	COM15	COM3	2024-05-07_13h45.41.546	001-EEG_SVR_Officel	2022.2.5	143.44814930472273		5.995999999999981	0_sub-pilot034_SVR_EEG_block1-2.protocol.csv	step37	7212	717.68	STIMULATE	44.7	44.6	44.6	44.6	44.8	37	673.4719999999999
667.648	0	333824	40/Hi	7	1	0	1	0	1.0	0.0	1.0	0.0						682.9705672999844	688.9783783999737	688.9783783999737	6.0	['6', 'return']	[3.1347963998559862, 3.3592064999975264]	6.0	5.83	1.0	40hz	high_pain	44.7			sub-034	250	34	41.8	44.7	COM11	COM15	COM3	2024-05-07_13h45.41.546	001-EEG_SVR_Officel	2022.2.5	143.44814930472273		5.831999999999994	0_sub-pilot034_SVR_EEG_block1-2.protocol.csv	step37	7212	717.68	STIMULATE	44.7	44.6	44.6	44.6	44.8	37	673.4719999999999
677.454	0	338727	wait	20	1	0	1	0	2.0	0.0	2.0	0.0						705.355290699983	713.1687310999259	713.1687310999259	2.5	['2', 'a', '5', 'return']	[2.5690615999046713, 2.8483697997871786, 3.0798961999826133, 4.432731399778277]	7.8	5.03	2.0	10hz	low_pain	41.8			sub-034	250	34	41.8	44.7	COM11	COM15	COM3	2024-05-07_13h45.41.546	001-EEG_SVR_Officel	2022.2.5	143.44814930472273		10.555999999999926	0_sub-pilot034_SVR_EEG_block1-2.protocol.csv	step39	7449	741.179	STIMULATE	41.7	41.6	41.6	41.6	41.8	39	696.9709999999999
685.256	0	342628	10hz	3	1	0	1	0	2.0	0.0	2.0	0.0						705.355290699983	713.1687310999259	713.1687310999259	2.5	['2', 'a', '5', 'return']	[2.5690615999046713, 2.8483697997871786, 3.0798961999826133, 4.432731399778277]	7.8	5.03	2.0	10hz	low_pain	41.8			sub-034	250	34	41.8	44.7	COM11	COM15	COM3	2024-05-07_13h45.41.546	001-EEG_SVR_Officel	2022.2.5	143.44814930472273		7.802000000000021	0_sub-pilot034_SVR_EEG_block1-2.protocol.csv	step39	7449	741.179	STIMULATE	41.7	41.6	41.6	41.6	41.8	39	696.9709999999999
691.038	0	345519	10/Lo	2	1	0	1	0	2.0	0.0	2.0	0.0						705.355290699983	713.1687310999259	713.1687310999259	2.5	['2', 'a', '5', 'return']	[2.5690615999046713, 2.8483697997871786, 3.0798961999826133, 4.432731399778277]	7.8	5.03	2.0	10hz	low_pain	41.8			sub-034	250	34	41.8	44.7	COM11	COM15	COM3	2024-05-07_13h45.41.546	001-EEG_SVR_Officel	2022.2.5	143.44814930472273		5.032000000000039	0_sub-pilot034_SVR_EEG_block1-2.protocol.csv	step39	7449	741.179	STIMULATE	41.7	41.6	41.6	41.6	41.8	39	696.9709999999999
702.728	0	351364	wait	20	1	0	1	0	3.0	0.0	3.0	0.0						730.6294996999204	738.0610103998333	738.0610103998333	5.5	['5', 'a', '5', 'return']	[3.0451221000403166, 3.446563299978152, 3.58071510004811, 4.300737799843773]	7.42	5.43	3.0	controle	high_pain	44.7			sub-034	250	34	41.8	44.7	COM11	COM15	COM3	2024-05-07_13h45.41.546	001-EEG_SVR_Officel	2022.2.5	143.44814930472273		12.43999999999994	0_sub-pilot034_SVR_EEG_block1-2.protocol.csv	step41	7704	766.488	STIMULATE	44.6	44.6	44.6	44.6	44.7	41	722.28
710.148	0	355074	CNhz	12	1	0	1	0	3.0	0.0	3.0	0.0						730.6294996999204	738.0610103998333	738.0610103998333	5.5	['5', 'a', '5', 'return']	[3.0451221000403166, 3.446563299978152, 3.58071510004811, 4.300737799843773]	7.42	5.43	3.0	controle	high_pain	44.7			sub-034	250	34	41.8	44.7	COM11	COM15	COM3	2024-05-07_13h45.41.546	001-EEG_SVR_Officel	2022.2.5	143.44814930472273		7.420000000000073	0_sub-pilot034_SVR_EEG_block1-2.protocol.csv	step41	7704	766.488	STIMULATE	44.6	44.6	44.6	44.6	44.7	41	722.28
716.328	0	358164	CN/Hi	10	1	0	1	0	3.0	0.0	3.0	0.0						730.6294996999204	738.0610103998333	738.0610103998333	5.5	['5', 'a', '5', 'return']	[3.0451221000403166, 3.446563299978152, 3.58071510004811, 4.300737799843773]	7.42	5.43	3.0	controle	high_pain	44.7			sub-034	250	34	41.8	44.7	COM11	COM15	COM3	2024-05-07_13h45.41.546	001-EEG_SVR_Officel	2022.2.5	143.44814930472273		5.42999999999995	0_sub-pilot034_SVR_EEG_block1-2.protocol.csv	step41	7704	766.488	STIMULATE	44.6	44.6	44.6	44.6	44.7	41	722.28
727.48	0	363740	wait	20	1	0	1	0	4.0	0.0	4.0	0.0						755.3824805999175	762.8136189999059	762.8136189999059	3.0	['3', 'return']	[2.4429216000717133, 3.0750837998930365]	7.42	6.35	0.0	40hz	low_pain	41.8			sub-034	250	34	41.8	44.7	COM11	COM15	COM3	2024-05-07_13h45.41.546	001-EEG_SVR_Officel	2022.2.5	143.44814930472273		11.902000000000044	0_sub-pilot034_SVR_EEG_block1-2.protocol.csv	step43	7961	792.102	STIMULATE	41.7	41.6	41.6	41.6	41.7	43	747.8939999999999
734.9	0	367450	40hz	9	1	0	1	0	4.0	0.0	4.0	0.0						755.3824805999175	762.8136189999059	762.8136189999059	3.0	['3', 'return']	[2.4429216000717133, 3.0750837998930365]	7.42	6.35	0.0	40hz	low_pain	41.8			sub-034	250	34	41.8	44.7	COM11	COM15	COM3	2024-05-07_13h45.41.546	001-EEG_SVR_Officel	2022.2.5	143.44814930472273		7.419999999999959	0_sub-pilot034_SVR_EEG_block1-2.protocol.csv	step43	7961	792.102	STIMULATE	41.7	41.6	41.6	41.6	41.7	43	747.8939999999999
742.002	0	371001	40/Lo	8	1	0	1	0	4.0	0.0	4.0	0.0						755.3824805999175	762.8136189999059	762.8136189999059	3.0	['3', 'return']	[2.4429216000717133, 3.0750837998930365]	7.42	6.35	0.0	40hz	low_pain	41.8			sub-034	250	34	41.8	44.7	COM11	COM15	COM3	2024-05-07_13h45.41.546	001-EEG_SVR_Officel	2022.2.5	143.44814930472273		6.351999999999975	0_sub-pilot034_SVR_EEG_block1-2.protocol.csv	step43	7961	792.102	STIMULATE	41.7	41.6	41.6	41.6	41.7	43	747.8939999999999
750.996	0	375498	wait	20	1	0	1	0	5.0	0.0	5.0	0.0						778.8984372999985	786.0873977998272	786.0873977998272	2.0	['2', 'return']	[3.6412869999185205, 4.40876069990918]	7.18	5.18	1.0	40hz	low_pain	41.8			sub-034	250	34	41.8	44.7	COM11	COM15	COM3	2024-05-07_13h45.41.546	001-EEG_SVR_Officel	2022.2.5	143.44814930472273		9.744000000000028	0_sub-pilot034_SVR_EEG_block1-2.protocol.csv	step45	8177	814.153	STIMULATE	41.7	41.6	41.6	41.6	41.8	45	769.9449999999999
758.174	0	379087	40hz	9	1	0	1	0	5.0	0.0	5.0	0.0						778.8984372999985	786.0873977998272	786.0873977998272	2.0	['2', 'return']	[3.6412869999185205, 4.40876069990918]	7.18	5.18	1.0	40hz	low_pain	41.8			sub-034	250	34	41.8	44.7	COM11	COM15	COM3	2024-05-07_13h45.41.546	001-EEG_SVR_Officel	2022.2.5	143.44814930472273		7.177999999999997	0_sub-pilot034_SVR_EEG_block1-2.protocol.csv	step45	8177	814.153	STIMULATE	41.7	41.6	41.6	41.6	41.8	45	769.9449999999999
764.104	0	382052	40/Lo	8	1	0	1	0	5.0	0.0	5.0	0.0						778.8984372999985	786.0873977998272	786.0873977998272	2.0	['2', 'return']	[3.6412869999185205, 4.40876069990918]	7.18	5.18	1.0	40hz	low_pain	41.8			sub-034	250	34	41.8	44.7	COM11	COM15	COM3	2024-05-07_13h45.41.546	001-EEG_SVR_Officel	2022.2.5	143.44814930472273		5.180000000000064	0_sub-pilot034_SVR_EEG_block1-2.protocol.csv	step45	8177	814.153	STIMULATE	41.7	41.6	41.6	41.6	41.8	45	769.9449999999999
775.612	0	387806	wait	20	1	0	1	0	6.0	0.0	6.0	0.0						803.5128554999828	809.9100677999668	809.9100677999668	4.5	['4', 'a', '5', 'return']	[3.0832537999376655, 3.3320190000813454, 3.523714399896562, 4.259799600113183]	6.39	5.68	2.0	10hz	high_pain	44.7			sub-034	250	34	41.8	44.7	COM11	COM15	COM3	2024-05-07_13h45.41.546	001-EEG_SVR_Officel	2022.2.5	143.44814930472273		12.257999999999925	0_sub-pilot034_SVR_EEG_block1-2.protocol.csv	step47	8414	838.547	STIMULATE	44.7	44.6	44.6	44.6	44.6	47	794.3389999999999
781.996	0	390998	10hz	3	1	0	1	0	6.0	0.0	6.0	0.0						803.5128554999828	809.9100677999668	809.9100677999668	4.5	['4', 'a', '5', 'return']	[3.0832537999376655, 3.3320190000813454, 3.523714399896562, 4.259799600113183]	6.39	5.68	2.0	10hz	high_pain	44.7			sub-034	250	34	41.8	44.7	COM11	COM15	COM3	2024-05-07_13h45.41.546	001-EEG_SVR_Officel	2022.2.5	143.44814930472273		6.3840000000000146	0_sub-pilot034_SVR_EEG_block1-2.protocol.csv	step47	8414	838.547	STIMULATE	44.7	44.6	44.6	44.6	44.6	47	794.3389999999999
788.424	0	394212	10/Hi	1	1	0	1	0	6.0	0.0	6.0	0.0						803.5128554999828	809.9100677999668	809.9100677999668	4.5	['4', 'a', '5', 'return']	[3.0832537999376655, 3.3320190000813454, 3.523714399896562, 4.259799600113183]	6.39	5.68	2.0	10hz	high_pain	44.7			sub-034	250	34	41.8	44.7	COM11	COM15	COM3	2024-05-07_13h45.41.546	001-EEG_SVR_Officel	2022.2.5	143.44814930472273		5.677999999999997	0_sub-pilot034_SVR_EEG_block1-2.protocol.csv	step47	8414	838.547	STIMULATE	44.7	44.6	44.6	44.6	44.6	47	794.3389999999999
799.28	0	399640	wait	20	1	0	1	0	7.0	0.0	7.0	0.0						827.1818947999272	833.2177788999397	833.2177788999397	3.0	['3', 'return']	[2.312137900153175, 3.0158013000618666]	6.03	5.62	3.0	controle	low_pain	41.8			sub-034	250	34	41.8	44.7	COM11	COM15	COM3	2024-05-07_13h45.41.546	001-EEG_SVR_Officel	2022.2.5	143.44814930472273		11.605999999999995	0_sub-pilot034_SVR_EEG_block1-2.protocol.csv	step49	8637	861.792	STIMULATE	41.6	41.6	41.6	41.6	41.7	49	817.584
805.304	0	402652	CNhz	12	1	0	1	0	7.0	0.0	7.0	0.0						827.1818947999272	833.2177788999397	833.2177788999397	3.0	['3', 'return']	[2.312137900153175, 3.0158013000618666]	6.03	5.62	3.0	controle	low_pain	41.8			sub-034	250	34	41.8	44.7	COM11	COM15	COM3	2024-05-07_13h45.41.546	001-EEG_SVR_Officel	2022.2.5	143.44814930472273		6.024000000000001	0_sub-pilot034_SVR_EEG_block1-2.protocol.csv	step49	8637	861.792	STIMULATE	41.6	41.6	41.6	41.6	41.7	49	817.584
811.678	0	405839	CN/Lo	11	1	0	1	0	7.0	0.0	7.0	0.0						827.1818947999272	833.2177788999397	833.2177788999397	3.0	['3', 'return']	[2.312137900153175, 3.0158013000618666]	6.03	5.62	3.0	controle	low_pain	41.8			sub-034	250	34	41.8	44.7	COM11	COM15	COM3	2024-05-07_13h45.41.546	001-EEG_SVR_Officel	2022.2.5	143.44814930472273		5.624000000000024	0_sub-pilot034_SVR_EEG_block1-2.protocol.csv	step49	8637	861.792	STIMULATE	41.6	41.6	41.6	41.6	41.7	49	817.584
821.344	0	410672	wait	20	1	0	1	0	8.0	0.0	8.0	0.0						849.2466229998972	855.6781666998286	855.6781666998286	4.5	['4', 'a', '5', 'return']	[2.386001900071278, 2.7140579998958856, 2.8666568000335246, 3.6747280000708997]	6.42	5.96	0.0	20hz	high_pain	44.7			sub-034	250	34	41.8	44.7	COM11	COM15	COM3	2024-05-07_13h45.41.546	001-EEG_SVR_Officel	2022.2.5	143.44814930472273		10.416000000000054	0_sub-pilot034_SVR_EEG_block1-2.protocol.csv	step51	8854	884.63	STIMULATE	44.7	44.6	44.6	44.6	44.6	51	840.4219999999999
827.766	0	413883	20hz	6	1	0	1	0	8.0	0.0	8.0	0.0						849.2466229998972	855.6781666998286	855.6781666998286	4.5	['4', 'a', '5', 'return']	[2.386001900071278, 2.7140579998958856, 2.8666568000335246, 3.6747280000708997]	6.42	5.96	0.0	20hz	high_pain	44.7			sub-034	250	34	41.8	44.7	COM11	COM15	COM3	2024-05-07_13h45.41.546	001-EEG_SVR_Officel	2022.2.5	143.44814930472273		6.421999999999912	0_sub-pilot034_SVR_EEG_block1-2.protocol.csv	step51	8854	884.63	STIMULATE	44.7	44.6	44.6	44.6	44.6	51	840.4219999999999
834.478	0	417239	20/Hi	4	1	0	1	0	8.0	0.0	8.0	0.0						849.2466229998972	855.6781666998286	855.6781666998286	4.5	['4', 'a', '5', 'return']	[2.386001900071278, 2.7140579998958856, 2.8666568000335246, 3.6747280000708997]	6.42	5.96	0.0	20hz	high_pain	44.7			sub-034	250	34	41.8	44.7	COM11	COM15	COM3	2024-05-07_13h45.41.546	001-EEG_SVR_Officel	2022.2.5	143.44814930472273		5.961999999999989	0_sub-pilot034_SVR_EEG_block1-2.protocol.csv	step51	8854	884.63	STIMULATE	44.7	44.6	44.6	44.6	44.6	51	840.4219999999999
844.48	0	422240	wait	20	1	0	1	0	9.0	0.0	9.0	0.0						872.3821898999158	878.8205548999831	878.8205548999831	5.5	['5', 'a', '5', 'return']	[2.102234700229019, 2.341226600110531, 2.470854700077325, 8.318674200214446]	6.43	5.12	1.0	controle	high_pain	44.7			sub-034	250	34	41.8	44.7	COM11	COM15	COM3	2024-05-07_13h45.41.546	001-EEG_SVR_Officel	2022.2.5	143.44814930472273		10.752000000000066	0_sub-pilot034_SVR_EEG_block1-2.protocol.csv	step53	9064	906.961	STIMULATE	44.7	44.6	44.6	44.6	44.7	53	862.7529999999999
850.908	0	425454	CNhz	12	1	0	1	0	9.0	0.0	9.0	0.0						872.3821898999158	878.8205548999831	878.8205548999831	5.5	['5', 'a', '5', 'return']	[2.102234700229019, 2.341226600110531, 2.470854700077325, 8.318674200214446]	6.43	5.12	1.0	controle	high_pain	44.7			sub-034	250	34	41.8	44.7	COM11	COM15	COM3	2024-05-07_13h45.41.546	001-EEG_SVR_Officel	2022.2.5	143.44814930472273		6.427999999999997	0_sub-pilot034_SVR_EEG_block1-2.protocol.csv	step53	9064	906.961	STIMULATE	44.7	44.6	44.6	44.6	44.7	53	862.7529999999999
856.78	0	428390	CN/Hi	10	1	0	1	0	9.0	0.0	9.0	0.0						872.3821898999158	878.8205548999831	878.8205548999831	5.5	['5', 'a', '5', 'return']	[2.102234700229019, 2.341226600110531, 2.470854700077325, 8.318674200214446]	6.43	5.12	1.0	controle	high_pain	44.7			sub-034	250	34	41.8	44.7	COM11	COM15	COM3	2024-05-07_13h45.41.546	001-EEG_SVR_Officel	2022.2.5	143.44814930472273		5.121999999999957	0_sub-pilot034_SVR_EEG_block1-2.protocol.csv	step53	9064	906.961	STIMULATE	44.7	44.6	44.6	44.6	44.7	53	862.7529999999999
872.254	0	436127	wait	20	1	0	1	0	10.0	0.0	10.0	0.0						900.1562863998115	905.5391623999458	905.5391623999458	2.0	['2', 'return']	[2.8755727999377996, 3.4200518999714404]	5.37	5.13	2.0	controle	low_pain	41.8			sub-034	250	34	41.8	44.7	COM11	COM15	COM3	2024-05-07_13h45.41.546	001-EEG_SVR_Officel	2022.2.5	143.44814930472273		16.224000000000046	0_sub-pilot034_SVR_EEG_block1-2.protocol.csv	step55	9313	933.682	STIMULATE	41.7	41.6	41.6	41.6	41.6	55	889.4739999999999
877.624	0	438812	CNhz	12	1	0	1	0	10.0	0.0	10.0	0.0						900.1562863998115	905.5391623999458	905.5391623999458	2.0	['2', 'return']	[2.8755727999377996, 3.4200518999714404]	5.37	5.13	2.0	controle	low_pain	41.8			sub-034	250	34	41.8	44.7	COM11	COM15	COM3	2024-05-07_13h45.41.546	001-EEG_SVR_Officel	2022.2.5	143.44814930472273		5.3700000000000045	0_sub-pilot034_SVR_EEG_block1-2.protocol.csv	step55	9313	933.682	STIMULATE	41.7	41.6	41.6	41.6	41.6	55	889.4739999999999
883.504	0	441752	CN/Lo	11	1	0	1	0	10.0	0.0	10.0	0.0						900.1562863998115	905.5391623999458	905.5391623999458	2.0	['2', 'return']	[2.8755727999377996, 3.4200518999714404]	5.37	5.13	2.0	controle	low_pain	41.8			sub-034	250	34	41.8	44.7	COM11	COM15	COM3	2024-05-07_13h45.41.546	001-EEG_SVR_Officel	2022.2.5	143.44814930472273		5.1299999999999955	0_sub-pilot034_SVR_EEG_block1-2.protocol.csv	step55	9313	933.682	STIMULATE	41.7	41.6	41.6	41.6	41.6	55	889.4739999999999
894.082	0	447041	wait	20	1	0	1	0	11.0	0.0	11.0	0.0						921.9853236000054	928.944455299992	928.944455299992	5.0	['5', 'return']	[2.577635900117457, 3.081262400140986]	6.95	6.18	3.0	20hz	high_pain	44.7			sub-034	250	34	41.8	44.7	COM11	COM15	COM3	2024-05-07_13h45.41.546	001-EEG_SVR_Officel	2022.2.5	143.44814930472273		11.327999999999975	0_sub-pilot034_SVR_EEG_block1-2.protocol.csv	step57	9539	958.132	STIMULATE	44.7	44.6	44.6	44.6	44.6	57	913.9239999999999
901.032	0	450516	20hz	6	1	0	1	0	11.0	0.0	11.0	0.0						921.9853236000054	928.944455299992	928.944455299992	5.0	['5', 'return']	[2.577635900117457, 3.081262400140986]	6.95	6.18	3.0	20hz	high_pain	44.7			sub-034	250	34	41.8	44.7	COM11	COM15	COM3	2024-05-07_13h45.41.546	001-EEG_SVR_Officel	2022.2.5	143.44814930472273		6.9500000000000455	0_sub-pilot034_SVR_EEG_block1-2.protocol.csv	step57	9539	958.132	STIMULATE	44.7	44.6	44.6	44.6	44.6	57	913.9239999999999
907.966	0	453983	20/Hi	4	1	0	1	0	11.0	0.0	11.0	0.0						921.9853236000054	928.944455299992	928.944455299992	5.0	['5', 'return']	[2.577635900117457, 3.081262400140986]	6.95	6.18	3.0	20hz	high_pain	44.7			sub-034	250	34	41.8	44.7	COM11	COM15	COM3	2024-05-07_13h45.41.546	001-EEG_SVR_Officel	2022.2.5	143.44814930472273		6.183999999999969	0_sub-pilot034_SVR_EEG_block1-2.protocol.csv	step57	9539	958.132	STIMULATE	44.7	44.6	44.6	44.6	44.6	57	913.9239999999999
917.148	0	458574	wait	20	1	0	1	0	12.0	0.0	12.0	0.0						945.050601299852	952.3225052999333	952.3225052999333	2.0	['2', 'return']	[2.454848000081256, 3.0307746999897063]	7.26	5.37	0.0	controle	low_pain	41.8			sub-034	250	34	41.8	44.7	COM11	COM15	COM3	2024-05-07_13h45.41.546	001-EEG_SVR_Officel	2022.2.5	143.44814930472273		9.932000000000016	0_sub-pilot034_SVR_EEG_block1-2.protocol.csv	step59	9746	980.744	STIMULATE	41.7	41.6	41.6	41.6	41.7	59	936.536
924.408	0	462204	CNhz	12	1	0	1	0	12.0	0.0	12.0	0.0						945.050601299852	952.3225052999333	952.3225052999333	2.0	['2', 'return']	[2.454848000081256, 3.0307746999897063]	7.26	5.37	0.0	controle	low_pain	41.8			sub-034	250	34	41.8	44.7	COM11	COM15	COM3	2024-05-07_13h45.41.546	001-EEG_SVR_Officel	2022.2.5	143.44814930472273		7.259999999999991	0_sub-pilot034_SVR_EEG_block1-2.protocol.csv	step59	9746	980.744	STIMULATE	41.7	41.6	41.6	41.6	41.7	59	936.536
930.532	0	465266	CN/Lo	11	1	0	1	0	12.0	0.0	12.0	0.0						945.050601299852	952.3225052999333	952.3225052999333	2.0	['2', 'return']	[2.454848000081256, 3.0307746999897063]	7.26	5.37	0.0	controle	low_pain	41.8			sub-034	250	34	41.8	44.7	COM11	COM15	COM3	2024-05-07_13h45.41.546	001-EEG_SVR_Officel	2022.2.5	143.44814930472273		5.374000000000024	0_sub-pilot034_SVR_EEG_block1-2.protocol.csv	step59	9746	980.744	STIMULATE	41.7	41.6	41.6	41.6	41.7	59	936.536
940.472	0	470236	wait	20	1	0	1	0	13.0	0.0	13.0	0.0						968.3728245999664	975.234844399849	975.234844399849	3.0	['3', 'return']	[2.285828199936077, 2.8541317998897284]	6.85	5.75	1.0	20hz	low_pain	41.8			sub-034	250	34	41.8	44.7	COM11	COM15	COM3	2024-05-07_13h45.41.546	001-EEG_SVR_Officel	2022.2.5	143.44814930472273		10.68999999999994	0_sub-pilot034_SVR_EEG_block1-2.protocol.csv	step61	9957	1003.945	STIMULATE	41.7	41.6	41.6	41.6	41.8	61	959.737
947.32	0	473660	20hz	6	1	0	1	0	13.0	0.0	13.0	0.0						968.3728245999664	975.234844399849	975.234844399849	3.0	['3', 'return']	[2.285828199936077, 2.8541317998897284]	6.85	5.75	1.0	20hz	low_pain	41.8			sub-034	250	34	41.8	44.7	COM11	COM15	COM3	2024-05-07_13h45.41.546	001-EEG_SVR_Officel	2022.2.5	143.44814930472273		6.84800000000007	0_sub-pilot034_SVR_EEG_block1-2.protocol.csv	step61	9957	1003.945	STIMULATE	41.7	41.6	41.6	41.6	41.8	61	959.737
953.82	0	476910	20/Lo	5	1	0	1	0	13.0	0.0	13.0	0.0						968.3728245999664	975.234844399849	975.234844399849	3.0	['3', 'return']	[2.285828199936077, 2.8541317998897284]	6.85	5.75	1.0	20hz	low_pain	41.8			sub-034	250	34	41.8	44.7	COM11	COM15	COM3	2024-05-07_13h45.41.546	001-EEG_SVR_Officel	2022.2.5	143.44814930472273		5.75	0_sub-pilot034_SVR_EEG_block1-2.protocol.csv	step61	9957	1003.945	STIMULATE	41.7	41.6	41.6	41.6	41.8	61	959.737
963.202	0	481601	wait	20	1	0	1	0	14.0	0.0	14.0	0.0						991.1053879000248	998.1964402999728	998.1964402999728	5.0	['5', 'return']	[2.044959799852222, 2.4530030000023544]	7.08	5.76	2.0	controle	high_pain	44.7			sub-034	250	34	41.8	44.7	COM11	COM15	COM3	2024-05-07_13h45.41.546	001-EEG_SVR_Officel	2022.2.5	143.44814930472273		10.131999999999948	0_sub-pilot034_SVR_EEG_block1-2.protocol.csv	step63	10163	1026.87	STIMULATE	44.6	44.6	44.6	44.6	44.6	63	982.6619999999998
970.282	0	485141	CNhz	12	1	0	1	0	14.0	0.0	14.0	0.0						991.1053879000248	998.1964402999728	998.1964402999728	5.0	['5', 'return']	[2.044959799852222, 2.4530030000023544]	7.08	5.76	2.0	controle	high_pain	44.7			sub-034	250	34	41.8	44.7	COM11	COM15	COM3	2024-05-07_13h45.41.546	001-EEG_SVR_Officel	2022.2.5	143.44814930472273		7.080000000000041	0_sub-pilot034_SVR_EEG_block1-2.protocol.csv	step63	10163	1026.87	STIMULATE	44.6	44.6	44.6	44.6	44.6	63	982.6619999999998
976.794	0	488397	CN/Hi	10	1	0	1	0	14.0	0.0	14.0	0.0						991.1053879000248	998.1964402999728	998.1964402999728	5.0	['5', 'return']	[2.044959799852222, 2.4530030000023544]	7.08	5.76	2.0	controle	high_pain	44.7			sub-034	250	34	41.8	44.7	COM11	COM15	COM3	2024-05-07_13h45.41.546	001-EEG_SVR_Officel	2022.2.5	143.44814930472273		5.761999999999944	0_sub-pilot034_SVR_EEG_block1-2.protocol.csv	step63	10163	1026.87	STIMULATE	44.6	44.6	44.6	44.6	44.6	63	982.6619999999998
985.766	0	492883	wait	20	1	0	1	0	15.0	0.0	15.0	0.0						1013.669978399994	1019.635870099999	1019.635870099999	6.0	['6', 'return']	[2.134281100006774, 2.5581090999767184]	5.96	5.43	3.0	10hz	high_pain	44.7			sub-034	250	34	41.8	44.7	COM11	COM15	COM3	2024-05-07_13h45.41.546	001-EEG_SVR_Officel	2022.2.5	143.44814930472273		9.72199999999998	0_sub-pilot034_SVR_EEG_block1-2.protocol.csv	step65	10351	1048.016	STIMULATE	44.6	44.6	44.6	44.6	44.6	65	1003.808
991.72	0	495860	10hz	3	1	0	1	0	15.0	0.0	15.0	0.0						1013.669978399994	1019.635870099999	1019.635870099999	6.0	['6', 'return']	[2.134281100006774, 2.5581090999767184]	5.96	5.43	3.0	10hz	high_pain	44.7			sub-034	250	34	41.8	44.7	COM11	COM15	COM3	2024-05-07_13h45.41.546	001-EEG_SVR_Officel	2022.2.5	143.44814930472273		5.954000000000065	0_sub-pilot034_SVR_EEG_block1-2.protocol.csv	step65	10351	1048.016	STIMULATE	44.6	44.6	44.6	44.6	44.6	65	1003.808
997.9	0	498950	10/Hi	1	1	0	1	0	15.0	0.0	15.0	0.0						1013.669978399994	1019.635870099999	1019.635870099999	6.0	['6', 'return']	[2.134281100006774, 2.5581090999767184]	5.96	5.43	3.0	10hz	high_pain	44.7			sub-034	250	34	41.8	44.7	COM11	COM15	COM3	2024-05-07_13h45.41.546	001-EEG_SVR_Officel	2022.2.5	143.44814930472273		5.42999999999995	0_sub-pilot034_SVR_EEG_block1-2.protocol.csv	step65	10351	1048.016	STIMULATE	44.6	44.6	44.6	44.6	44.6	65	1003.808
1102.864	0	551432	wait	20	2	0	2	0	0.0	0.0	0.0	0.0				p	3.9199771999847135	1130.7672178999055	1137.6777468000073	1137.6777468000073	2.5	['2', 'a', '5', 'return']	[2.0516808999236673, 2.243825600016862, 2.602715600049123, 3.3635823000222445]	6.9	5.31	0.0	40hz	low_pain	41.8			sub-034	250	34	41.8	44.7	COM11	COM15	COM3	2024-05-07_13h45.41.546	001-EEG_SVR_Officel	2022.2.5	143.44814930472273		105.71400000000006	1_sub-pilot034_SVR_EEG_block3-4.protocol.csv	step3	1055	105.366	STIMULATE	41.7	41.6	41.6	41.6	41.7	3	1121.693
1109.762	0	554881	40hz	9	2	0	2	0	0.0	0.0	0.0	0.0				p	3.9199771999847135	1130.7672178999055	1137.6777468000073	1137.6777468000073	2.5	['2', 'a', '5', 'return']	[2.0516808999236673, 2.243825600016862, 2.602715600049123, 3.3635823000222445]	6.9	5.31	0.0	40hz	low_pain	41.8			sub-034	250	34	41.8	44.7	COM11	COM15	COM3	2024-05-07_13h45.41.546	001-EEG_SVR_Officel	2022.2.5	143.44814930472273		6.897999999999911	1_sub-pilot034_SVR_EEG_block3-4.protocol.csv	step3	1055	105.366	STIMULATE	41.7	41.6	41.6	41.6	41.7	3	1121.693
1115.822	0	557911	40/Lo	8	2	0	2	0	0.0	0.0	0.0	0.0				p	3.9199771999847135	1130.7672178999055	1137.6777468000073	1137.6777468000073	2.5	['2', 'a', '5', 'return']	[2.0516808999236673, 2.243825600016862, 2.602715600049123, 3.3635823000222445]	6.9	5.31	0.0	40hz	low_pain	41.8			sub-034	250	34	41.8	44.7	COM11	COM15	COM3	2024-05-07_13h45.41.546	001-EEG_SVR_Officel	2022.2.5	143.44814930472273		5.309999999999945	1_sub-pilot034_SVR_EEG_block3-4.protocol.csv	step3	1055	105.366	STIMULATE	41.7	41.6	41.6	41.6	41.7	3	1121.693
1126.15	0	563075	wait	20	2	0	2	0	1.0	0.0	1.0	0.0						1154.0542760000098	1161.2222791998647	1161.2222791998647	3.5	['3', 'a', '5', 'return']	[2.259254999924451, 2.4268499999307096, 2.8589780000038445, 3.6031065999995917]	7.16	5.57	1.0	20hz	low_pain	41.8			sub-034	250	34	41.8	44.7	COM11	COM15	COM3	2024-05-07_13h45.41.546	001-EEG_SVR_Officel	2022.2.5	143.44814930472273		11.078000000000202	1_sub-pilot034_SVR_EEG_block3-4.protocol.csv	step5	1295	129.123	STIMULATE	41.7	41.6	41.6	41.6	41.7	5	1145.4499999999998
1133.306	0	566653	20hz	6	2	0	2	0	1.0	0.0	1.0	0.0						1154.0542760000098	1161.2222791998647	1161.2222791998647	3.5	['3', 'a', '5', 'return']	[2.259254999924451, 2.4268499999307096, 2.8589780000038445, 3.6031065999995917]	7.16	5.57	1.0	20hz	low_pain	41.8			sub-034	250	34	41.8	44.7	COM11	COM15	COM3	2024-05-07_13h45.41.546	001-EEG_SVR_Officel	2022.2.5	143.44814930472273		7.155999999999949	1_sub-pilot034_SVR_EEG_block3-4.protocol.csv	step5	1295	129.123	STIMULATE	41.7	41.6	41.6	41.6	41.7	5	1145.4499999999998
1139.624	0	569812	20/Lo	5	2	0	2	0	1.0	0.0	1.0	0.0						1154.0542760000098	1161.2222791998647	1161.2222791998647	3.5	['3', 'a', '5', 'return']	[2.259254999924451, 2.4268499999307096, 2.8589780000038445, 3.6031065999995917]	7.16	5.57	1.0	20hz	low_pain	41.8			sub-034	250	34	41.8	44.7	COM11	COM15	COM3	2024-05-07_13h45.41.546	001-EEG_SVR_Officel	2022.2.5	143.44814930472273		5.567999999999984	1_sub-pilot034_SVR_EEG_block3-4.protocol.csv	step5	1295	129.123	STIMULATE	41.7	41.6	41.6	41.6	41.7	5	1145.4499999999998
1149.938	0	574969	wait	20	2	0	2	0	2.0	0.0	2.0	0.0						1177.842237799894	1183.5443320998456	1183.5443320998456	2.5	['2', 'a', '5', 'return']	[2.385463000042364, 2.6570711000822484, 2.952952800085768, 3.608288299990818]	5.69	6.42	2.0	40hz	low_pain	41.8			sub-034	250	34	41.8	44.7	COM11	COM15	COM3	2024-05-07_13h45.41.546	001-EEG_SVR_Officel	2022.2.5	143.44814930472273		11.064000000000078	1_sub-pilot034_SVR_EEG_block3-4.protocol.csv	step7	1529	152.315	STIMULATE	41.7	41.6	41.6	41.6	41.7	7	1168.6419999999998
1155.628	0	577814	40hz	9	2	0	2	0	2.0	0.0	2.0	0.0						1177.842237799894	1183.5443320998456	1183.5443320998456	2.5	['2', 'a', '5', 'return']	[2.385463000042364, 2.6570711000822484, 2.952952800085768, 3.608288299990818]	5.69	6.42	2.0	40hz	low_pain	41.8			sub-034	250	34	41.8	44.7	COM11	COM15	COM3	2024-05-07_13h45.41.546	001-EEG_SVR_Officel	2022.2.5	143.44814930472273		5.689999999999827	1_sub-pilot034_SVR_EEG_block3-4.protocol.csv	step7	1529	152.315	STIMULATE	41.7	41.6	41.6	41.6	41.7	7	1168.6419999999998
1162.8	0	581400	40/Lo	8	2	0	2	0	2.0	0.0	2.0	0.0						1177.842237799894	1183.5443320998456	1183.5443320998456	2.5	['2', 'a', '5', 'return']	[2.385463000042364, 2.6570711000822484, 2.952952800085768, 3.608288299990818]	5.69	6.42	2.0	40hz	low_pain	41.8			sub-034	250	34	41.8	44.7	COM11	COM15	COM3	2024-05-07_13h45.41.546	001-EEG_SVR_Officel	2022.2.5	143.44814930472273		6.4220000000000255	1_sub-pilot034_SVR_EEG_block3-4.protocol.csv	step7	1529	152.315	STIMULATE	41.7	41.6	41.6	41.6	41.7	7	1168.6419999999998
1172.266	0	586133	wait	20	2	0	2	0	3.0	0.0	3.0	0.0						1200.1712895999665	1207.8876322000287	1207.8876322000287	4.5	['4', 'a', '5', 'return']	[2.8333242998924106, 3.0414352999068797, 3.2496334998868406, 3.9289054998662323]	7.71	5.16	3.0	10hz	high_pain	44.7			sub-034	250	34	41.8	44.7	COM11	COM15	COM3	2024-05-07_13h45.41.546	001-EEG_SVR_Officel	2022.2.5	143.44814930472273		10.216000000000122	1_sub-pilot034_SVR_EEG_block3-4.protocol.csv	step9	1762	175.431	STIMULATE	44.7	44.6	44.6	44.6	44.6	9	1191.7579999999998
1179.972	0	589986	10hz	3	2	0	2	0	3.0	0.0	3.0	0.0						1200.1712895999665	1207.8876322000287	1207.8876322000287	4.5	['4', 'a', '5', 'return']	[2.8333242998924106, 3.0414352999068797, 3.2496334998868406, 3.9289054998662323]	7.71	5.16	3.0	10hz	high_pain	44.7			sub-034	250	34	41.8	44.7	COM11	COM15	COM3	2024-05-07_13h45.41.546	001-EEG_SVR_Officel	2022.2.5	143.44814930472273		7.705999999999904	1_sub-pilot034_SVR_EEG_block3-4.protocol.csv	step9	1762	175.431	STIMULATE	44.7	44.6	44.6	44.6	44.6	9	1191.7579999999998
1185.882	0	592941	10/Hi	1	2	0	2	0	3.0	0.0	3.0	0.0						1200.1712895999665	1207.8876322000287	1207.8876322000287	4.5	['4', 'a', '5', 'return']	[2.8333242998924106, 3.0414352999068797, 3.2496334998868406, 3.9289054998662323]	7.71	5.16	3.0	10hz	high_pain	44.7			sub-034	250	34	41.8	44.7	COM11	COM15	COM3	2024-05-07_13h45.41.546	001-EEG_SVR_Officel	2022.2.5	143.44814930472273		5.160000000000082	1_sub-pilot034_SVR_EEG_block3-4.protocol.csv	step9	1762	175.431	STIMULATE	44.7	44.6	44.6	44.6	44.6	9	1191.7579999999998
1196.93	0	598465	wait	20	2	0	2	0	4.0	0.0	4.0	0.0						1224.8344440998044	1230.015317699872	1230.015317699872	5.5	['5', 'a', '5', 'return']	[2.96194149996154, 3.1619343999773264, 3.3453532999847084, 4.1316277999430895]	5.17	5.12	0.0	controle	high_pain	44.7			sub-034	250	34	41.8	44.7	COM11	COM15	COM3	2024-05-07_13h45.41.546	001-EEG_SVR_Officel	2022.2.5	143.44814930472273		11.798000000000002	1_sub-pilot034_SVR_EEG_block3-4.protocol.csv	step11	1985	197.535	STIMULATE	44.7	44.6	44.6	44.6	44.7	11	1213.8619999999999
1202.098	0	601049	CNhz	12	2	0	2	0	4.0	0.0	4.0	0.0						1224.8344440998044	1230.015317699872	1230.015317699872	5.5	['5', 'a', '5', 'return']	[2.96194149996154, 3.1619343999773264, 3.3453532999847084, 4.1316277999430895]	5.17	5.12	0.0	controle	high_pain	44.7			sub-034	250	34	41.8	44.7	COM11	COM15	COM3	2024-05-07_13h45.41.546	001-EEG_SVR_Officel	2022.2.5	143.44814930472273		5.167999999999893	1_sub-pilot034_SVR_EEG_block3-4.protocol.csv	step11	1985	197.535	STIMULATE	44.7	44.6	44.6	44.6	44.7	11	1213.8619999999999
1207.974	0	603987	CN/Hi	10	2	0	2	0	4.0	0.0	4.0	0.0						1224.8344440998044	1230.015317699872	1230.015317699872	5.5	['5', 'a', '5', 'return']	[2.96194149996154, 3.1619343999773264, 3.3453532999847084, 4.1316277999430895]	5.17	5.12	0.0	controle	high_pain	44.7			sub-034	250	34	41.8	44.7	COM11	COM15	COM3	2024-05-07_13h45.41.546	001-EEG_SVR_Officel	2022.2.5	143.44814930472273		5.125999999999976	1_sub-pilot034_SVR_EEG_block3-4.protocol.csv	step11	1985	197.535	STIMULATE	44.7	44.6	44.6	44.6	44.7	11	1213.8619999999999
1219.252	0	609626	wait	20	2	0	2	0	5.0	0.0	5.0	0.0						1247.1560448999517	1252.5457635999192	1252.5457635999192	6.0	['6', 'return']	[2.340729200048372, 2.932853300124407]	5.38	5.71	1.0	controle	high_pain	44.7			sub-034	250	34	41.8	44.7	COM11	COM15	COM3	2024-05-07_13h45.41.546	001-EEG_SVR_Officel	2022.2.5	143.44814930472273		12.02800000000002	1_sub-pilot034_SVR_EEG_block3-4.protocol.csv	step13	2217	220.519	STIMULATE	44.7	44.6	44.6	44.6	44.8	13	1236.846
1224.63	0	612315	CNhz	12	2	0	2	0	5.0	0.0	5.0	0.0						1247.1560448999517	1252.5457635999192	1252.5457635999192	6.0	['6', 'return']	[2.340729200048372, 2.932853300124407]	5.38	5.71	1.0	controle	high_pain	44.7			sub-034	250	34	41.8	44.7	COM11	COM15	COM3	2024-05-07_13h45.41.546	001-EEG_SVR_Officel	2022.2.5	143.44814930472273		5.378000000000156	1_sub-pilot034_SVR_EEG_block3-4.protocol.csv	step13	2217	220.519	STIMULATE	44.7	44.6	44.6	44.6	44.8	13	1236.846
1231.094	0	615547	CN/Hi	10	2	0	2	0	5.0	0.0	5.0	0.0						1247.1560448999517	1252.5457635999192	1252.5457635999192	6.0	['6', 'return']	[2.340729200048372, 2.932853300124407]	5.38	5.71	1.0	controle	high_pain	44.7			sub-034	250	34	41.8	44.7	COM11	COM15	COM3	2024-05-07_13h45.41.546	001-EEG_SVR_Officel	2022.2.5	143.44814930472273		5.713999999999942	1_sub-pilot034_SVR_EEG_block3-4.protocol.csv	step13	2217	220.519	STIMULATE	44.7	44.6	44.6	44.6	44.8	13	1236.846
1240.588	0	620294	wait	20	2	0	2	0	6.0	0.0	6.0	0.0						1268.4915322999004	1274.0829918999225	1274.0829918999225	2.5	['2', 'a', '5', 'return']	[4.333781499881297, 4.654161599930376, 4.837939499877393, 5.597438799915835]	5.58	5.88	2.0	10hz	low_pain	41.8			sub-034	250	34	41.8	44.7	COM11	COM15	COM3	2024-05-07_13h45.41.546	001-EEG_SVR_Officel	2022.2.5	143.44814930472273		10.243999999999915	1_sub-pilot034_SVR_EEG_block3-4.protocol.csv	step15	2437	242.334	STIMULATE	41.7	41.6	41.6	41.6	41.6	15	1258.6609999999998
1246.166	0	623083	10hz	3	2	0	2	0	6.0	0.0	6.0	0.0						1268.4915322999004	1274.0829918999225	1274.0829918999225	2.5	['2', 'a', '5', 'return']	[4.333781499881297, 4.654161599930376, 4.837939499877393, 5.597438799915835]	5.58	5.88	2.0	10hz	low_pain	41.8			sub-034	250	34	41.8	44.7	COM11	COM15	COM3	2024-05-07_13h45.41.546	001-EEG_SVR_Officel	2022.2.5	143.44814930472273		5.5779999999999745	1_sub-pilot034_SVR_EEG_block3-4.protocol.csv	step15	2437	242.334	STIMULATE	41.7	41.6	41.6	41.6	41.6	15	1258.6609999999998
1252.798	0	626399	10/Lo	2	2	0	2	0	6.0	0.0	6.0	0.0						1268.4915322999004	1274.0829918999225	1274.0829918999225	2.5	['2', 'a', '5', 'return']	[4.333781499881297, 4.654161599930376, 4.837939499877393, 5.597438799915835]	5.58	5.88	2.0	10hz	low_pain	41.8			sub-034	250	34	41.8	44.7	COM11	COM15	COM3	2024-05-07_13h45.41.546	001-EEG_SVR_Officel	2022.2.5	143.44814930472273		5.882000000000062	1_sub-pilot034_SVR_EEG_block3-4.protocol.csv	step15	2437	242.334	STIMULATE	41.7	41.6	41.6	41.6	41.6	15	1258.6609999999998
1264.784	0	632392	wait	20	2	0	2	0	7.0	0.0	7.0	0.0						1292.689333199989	1299.8290885000024	1299.8290885000024	6.5	['6', 'a', '5', 'return']	[2.307162699988112, 2.5479362001642585, 2.7387636001221836, 3.34690980007872]	7.13	5.5	3.0	40hz	high_pain	44.7			sub-034	250	34	41.8	44.7	COM11	COM15	COM3	2024-05-07_13h45.41.546	001-EEG_SVR_Officel	2022.2.5	143.44814930472273		12.736000000000104	1_sub-pilot034_SVR_EEG_block3-4.protocol.csv	step17	2693	267.731	STIMULATE	44.8	44.6	44.6	44.6	44.6	17	1284.058
1271.912	0	635956	40hz	9	2	0	2	0	7.0	0.0	7.0	0.0						1292.689333199989	1299.8290885000024	1299.8290885000024	6.5	['6', 'a', '5', 'return']	[2.307162699988112, 2.5479362001642585, 2.7387636001221836, 3.34690980007872]	7.13	5.5	3.0	40hz	high_pain	44.7			sub-034	250	34	41.8	44.7	COM11	COM15	COM3	2024-05-07_13h45.41.546	001-EEG_SVR_Officel	2022.2.5	143.44814930472273		7.127999999999929	1_sub-pilot034_SVR_EEG_block3-4.protocol.csv	step17	2693	267.731	STIMULATE	44.8	44.6	44.6	44.6	44.6	17	1284.058
1278.16	0	639080	40/Hi	7	2	0	2	0	7.0	0.0	7.0	0.0						1292.689333199989	1299.8290885000024	1299.8290885000024	6.5	['6', 'a', '5', 'return']	[2.307162699988112, 2.5479362001642585, 2.7387636001221836, 3.34690980007872]	7.13	5.5	3.0	40hz	high_pain	44.7			sub-034	250	34	41.8	44.7	COM11	COM15	COM3	2024-05-07_13h45.41.546	001-EEG_SVR_Officel	2022.2.5	143.44814930472273		5.498000000000047	1_sub-pilot034_SVR_EEG_block3-4.protocol.csv	step17	2693	267.731	STIMULATE	44.8	44.6	44.6	44.6	44.6	17	1284.058
1288.28	0	644140	wait	20	2	0	2	0	8.0	0.0	8.0	0.0						1316.1843853997998	1321.7137569999322	1321.7137569999322	2.0	['2', 'return']	[2.358686499996111, 3.480922600021586]	5.52	5.21	0.0	20hz	low_pain	41.8			sub-034	250	34	41.8	44.7	COM11	COM15	COM3	2024-05-07_13h45.41.546	001-EEG_SVR_Officel	2022.2.5	143.44814930472273		10.86999999999989	1_sub-pilot034_SVR_EEG_block3-4.protocol.csv	step19	2911	289.319	STIMULATE	41.8	41.6	41.6	41.6	41.7	19	1305.646
1293.798	0	646899	20hz	6	2	0	2	0	8.0	0.0	8.0	0.0						1316.1843853997998	1321.7137569999322	1321.7137569999322	2.0	['2', 'return']	[2.358686499996111, 3.480922600021586]	5.52	5.21	0.0	20hz	low_pain	41.8			sub-034	250	34	41.8	44.7	COM11	COM15	COM3	2024-05-07_13h45.41.546	001-EEG_SVR_Officel	2022.2.5	143.44814930472273		5.518000000000029	1_sub-pilot034_SVR_EEG_block3-4.protocol.csv	step19	2911	289.319	STIMULATE	41.8	41.6	41.6	41.6	41.7	19	1305.646
1299.76	0	649880	20/Lo	5	2	0	2	0	8.0	0.0	8.0	0.0						1316.1843853997998	1321.7137569999322	1321.7137569999322	2.0	['2', 'return']	[2.358686499996111, 3.480922600021586]	5.52	5.21	0.0	20hz	low_pain	41.8			sub-034	250	34	41.8	44.7	COM11	COM15	COM3	2024-05-07_13h45.41.546	001-EEG_SVR_Officel	2022.2.5	143.44814930472273		5.211999999999989	1_sub-pilot034_SVR_EEG_block3-4.protocol.csv	step19	2911	289.319	STIMULATE	41.8	41.6	41.6	41.6	41.7	19	1305.646
1310.312	0	655156	wait	20	2	0	2	0	9.0	0.0	9.0	0.0						1338.216306099901	1344.3626536999363	1344.3626536999363	2.5	['2', 'a', '5', 'return']	[2.4954812999349087, 2.725626500090584, 3.0465802999679, 3.8705486999824643]	6.14	6.33	1.0	20hz	high_pain	44.7			sub-034	250	34	41.8	44.7	COM11	COM15	COM3	2024-05-07_13h45.41.546	001-EEG_SVR_Officel	2022.2.5	143.44814930472273		11.301999999999907	1_sub-pilot034_SVR_EEG_block3-4.protocol.csv	step21	3150	313.014	STIMULATE	44.7	44.6	44.6	44.6	44.7	21	1329.341
1316.446	0	658223	20hz	6	2	0	2	0	9.0	0.0	9.0	0.0						1338.216306099901	1344.3626536999363	1344.3626536999363	2.5	['2', 'a', '5', 'return']	[2.4954812999349087, 2.725626500090584, 3.0465802999679, 3.8705486999824643]	6.14	6.33	1.0	20hz	high_pain	44.7			sub-034	250	34	41.8	44.7	COM11	COM15	COM3	2024-05-07_13h45.41.546	001-EEG_SVR_Officel	2022.2.5	143.44814930472273		6.1340000000000146	1_sub-pilot034_SVR_EEG_block3-4.protocol.csv	step21	3150	313.014	STIMULATE	44.7	44.6	44.6	44.6	44.7	21	1329.341
1323.528	0	661764	20/Hi	4	2	0	2	0	9.0	0.0	9.0	0.0						1338.216306099901	1344.3626536999363	1344.3626536999363	2.5	['2', 'a', '5', 'return']	[2.4954812999349087, 2.725626500090584, 3.0465802999679, 3.8705486999824643]	6.14	6.33	1.0	20hz	high_pain	44.7			sub-034	250	34	41.8	44.7	COM11	COM15	COM3	2024-05-07_13h45.41.546	001-EEG_SVR_Officel	2022.2.5	143.44814930472273		6.332000000000107	1_sub-pilot034_SVR_EEG_block3-4.protocol.csv	step21	3150	313.014	STIMULATE	44.7	44.6	44.6	44.6	44.7	21	1329.341
1333.348	0	666674	wait	20	2	0	2	0	10.0	0.0	10.0	0.0						1361.253203799948	1368.892903599888	1368.892903599888	5.0	['5', 'return']	[2.2522275000810623, 2.8040434001013637]	7.63	5.76	2.0	10hz	high_pain	44.7			sub-034	250	34	41.8	44.7	COM11	COM15	COM3	2024-05-07_13h45.41.546	001-EEG_SVR_Officel	2022.2.5	143.44814930472273		10.569999999999936	1_sub-pilot034_SVR_EEG_block3-4.protocol.csv	step23	3392	337.018	STIMULATE	44.7	44.6	44.6	44.6	44.6	23	1353.3449999999998
1340.976	0	670488	10hz	3	2	0	2	0	10.0	0.0	10.0	0.0						1361.253203799948	1368.892903599888	1368.892903599888	5.0	['5', 'return']	[2.2522275000810623, 2.8040434001013637]	7.63	5.76	2.0	10hz	high_pain	44.7			sub-034	250	34	41.8	44.7	COM11	COM15	COM3	2024-05-07_13h45.41.546	001-EEG_SVR_Officel	2022.2.5	143.44814930472273		7.628000000000156	1_sub-pilot034_SVR_EEG_block3-4.protocol.csv	step23	3392	337.018	STIMULATE	44.7	44.6	44.6	44.6	44.6	23	1353.3449999999998
1347.488	0	673744	10/Hi	1	2	0	2	0	10.0	0.0	10.0	0.0						1361.253203799948	1368.892903599888	1368.892903599888	5.0	['5', 'return']	[2.2522275000810623, 2.8040434001013637]	7.63	5.76	2.0	10hz	high_pain	44.7			sub-034	250	34	41.8	44.7	COM11	COM15	COM3	2024-05-07_13h45.41.546	001-EEG_SVR_Officel	2022.2.5	143.44814930472273		5.761999999999944	1_sub-pilot034_SVR_EEG_block3-4.protocol.csv	step23	3392	337.018	STIMULATE	44.7	44.6	44.6	44.6	44.6	23	1353.3449999999998
1356.808	0	678404	wait	20	2	0	2	0	11.0	0.0	11.0	0.0						1384.7143029000144	1391.465169099858	1391.465169099858	3.0	['3', 'return']	[2.2243593998719007, 2.833408699836582]	6.74	5.25	3.0	10hz	low_pain	41.8			sub-034	250	34	41.8	44.7	COM11	COM15	COM3	2024-05-07_13h45.41.546	001-EEG_SVR_Officel	2022.2.5	143.44814930472273		10.069999999999936	1_sub-pilot034_SVR_EEG_block3-4.protocol.csv	step25	3615	359.121	STIMULATE	41.7	41.6	41.6	41.6	41.7	25	1375.4479999999999
1363.548	0	681774	10hz	3	2	0	2	0	11.0	0.0	11.0	0.0						1384.7143029000144	1391.465169099858	1391.465169099858	3.0	['3', 'return']	[2.2243593998719007, 2.833408699836582]	6.74	5.25	3.0	10hz	low_pain	41.8			sub-034	250	34	41.8	44.7	COM11	COM15	COM3	2024-05-07_13h45.41.546	001-EEG_SVR_Officel	2022.2.5	143.44814930472273		6.740000000000009	1_sub-pilot034_SVR_EEG_block3-4.protocol.csv	step25	3615	359.121	STIMULATE	41.7	41.6	41.6	41.6	41.7	25	1375.4479999999999
1369.548	0	684774	10/Lo	2	2	0	2	0	11.0	0.0	11.0	0.0						1384.7143029000144	1391.465169099858	1391.465169099858	3.0	['3', 'return']	[2.2243593998719007, 2.833408699836582]	6.74	5.25	3.0	10hz	low_pain	41.8			sub-034	250	34	41.8	44.7	COM11	COM15	COM3	2024-05-07_13h45.41.546	001-EEG_SVR_Officel	2022.2.5	143.44814930472273		5.25	1_sub-pilot034_SVR_EEG_block3-4.protocol.csv	step25	3615	359.121	STIMULATE	41.7	41.6	41.6	41.6	41.7	25	1375.4479999999999
1379.402	0	689701	wait	20	2	0	2	0	12.0	0.0	12.0	0.0						1407.3071233998053	1415.183269999921	1415.183269999921	3.0	['3', 'return']	[2.3225076999515295, 3.490928899962455]	7.87	5.06	0.0	10hz	low_pain	41.8			sub-034	250	34	41.8	44.7	COM11	COM15	COM3	2024-05-07_13h45.41.546	001-EEG_SVR_Officel	2022.2.5	143.44814930472273		10.604000000000042	1_sub-pilot034_SVR_EEG_block3-4.protocol.csv	step27	3853	382.715	STIMULATE	41.8	41.6	41.6	41.6	41.7	27	1399.042
1387.266	0	693633	10hz	3	2	0	2	0	12.0	0.0	12.0	0.0						1407.3071233998053	1415.183269999921	1415.183269999921	3.0	['3', 'return']	[2.3225076999515295, 3.490928899962455]	7.87	5.06	0.0	10hz	low_pain	41.8			sub-034	250	34	41.8	44.7	COM11	COM15	COM3	2024-05-07_13h45.41.546	001-EEG_SVR_Officel	2022.2.5	143.44814930472273		7.864000000000033	1_sub-pilot034_SVR_EEG_block3-4.protocol.csv	step27	3853	382.715	STIMULATE	41.8	41.6	41.6	41.6	41.7	27	1399.042
1393.076	0	696538	10/Lo	2	2	0	2	0	12.0	0.0	12.0	0.0						1407.3071233998053	1415.183269999921	1415.183269999921	3.0	['3', 'return']	[2.3225076999515295, 3.490928899962455]	7.87	5.06	0.0	10hz	low_pain	41.8			sub-034	250	34	41.8	44.7	COM11	COM15	COM3	2024-05-07_13h45.41.546	001-EEG_SVR_Officel	2022.2.5	143.44814930472273		5.059999999999945	1_sub-pilot034_SVR_EEG_block3-4.protocol.csv	step27	3853	382.715	STIMULATE	41.8	41.6	41.6	41.6	41.7	27	1399.042
1403.786	0	701893	wait	20	2	0	2	0	13.0	0.0	13.0	0.0						1431.691647199914	1437.5678794998676	1437.5678794998676	2.5	['2', 'a', '5', 'return']	[2.745700200088322, 2.969838900025934, 3.3389955998864025, 4.057782599935308]	5.87	5.63	1.0	40hz	low_pain	41.8			sub-034	250	34	41.8	44.7	COM11	COM15	COM3	2024-05-07_13h45.41.546	001-EEG_SVR_Officel	2022.2.5	143.44814930472273		11.460000000000036	1_sub-pilot034_SVR_EEG_block3-4.protocol.csv	step29	4083	405.534	STIMULATE	41.8	41.6	41.6	41.6	41.7	29	1421.8609999999999
1409.652	0	704826	40hz	9	2	0	2	0	13.0	0.0	13.0	0.0						1431.691647199914	1437.5678794998676	1437.5678794998676	2.5	['2', 'a', '5', 'return']	[2.745700200088322, 2.969838900025934, 3.3389955998864025, 4.057782599935308]	5.87	5.63	1.0	40hz	low_pain	41.8			sub-034	250	34	41.8	44.7	COM11	COM15	COM3	2024-05-07_13h45.41.546	001-EEG_SVR_Officel	2022.2.5	143.44814930472273		5.8659999999999854	1_sub-pilot034_SVR_EEG_block3-4.protocol.csv	step29	4083	405.534	STIMULATE	41.8	41.6	41.6	41.6	41.7	29	1421.8609999999999
1416.032	0	708016	40/Lo	8	2	0	2	0	13.0	0.0	13.0	0.0						1431.691647199914	1437.5678794998676	1437.5678794998676	2.5	['2', 'a', '5', 'return']	[2.745700200088322, 2.969838900025934, 3.3389955998864025, 4.057782599935308]	5.87	5.63	1.0	40hz	low_pain	41.8			sub-034	250	34	41.8	44.7	COM11	COM15	COM3	2024-05-07_13h45.41.546	001-EEG_SVR_Officel	2022.2.5	143.44814930472273		5.629999999999882	1_sub-pilot034_SVR_EEG_block3-4.protocol.csv	step29	4083	405.534	STIMULATE	41.8	41.6	41.6	41.6	41.7	29	1421.8609999999999
1426.742	0	713371	wait	20	2	0	2	0	14.0	0.0	14.0	0.0						1454.6466655000113	1462.2866083998233	1462.2866083998233	4.0	['4', 'return']	[2.9150574998930097, 3.5464556000661105]	7.63	5.71	2.0	controle	high_pain	44.7			sub-034	250	34	41.8	44.7	COM11	COM15	COM3	2024-05-07_13h45.41.546	001-EEG_SVR_Officel	2022.2.5	143.44814930472273		11.460000000000036	1_sub-pilot034_SVR_EEG_block3-4.protocol.csv	step31	4333	430.364	STIMULATE	44.7	44.6	44.6	44.6	44.6	31	1446.6909999999998
1434.368	0	717184	CNhz	12	2	0	2	0	14.0	0.0	14.0	0.0						1454.6466655000113	1462.2866083998233	1462.2866083998233	4.0	['4', 'return']	[2.9150574998930097, 3.5464556000661105]	7.63	5.71	2.0	controle	high_pain	44.7			sub-034	250	34	41.8	44.7	COM11	COM15	COM3	2024-05-07_13h45.41.546	001-EEG_SVR_Officel	2022.2.5	143.44814930472273		7.625999999999976	1_sub-pilot034_SVR_EEG_block3-4.protocol.csv	step31	4333	430.364	STIMULATE	44.7	44.6	44.6	44.6	44.6	31	1446.6909999999998
1440.834	0	720417	CN/Hi	10	2	0	2	0	14.0	0.0	14.0	0.0						1454.6466655000113	1462.2866083998233	1462.2866083998233	4.0	['4', 'return']	[2.9150574998930097, 3.5464556000661105]	7.63	5.71	2.0	controle	high_pain	44.7			sub-034	250	34	41.8	44.7	COM11	COM15	COM3	2024-05-07_13h45.41.546	001-EEG_SVR_Officel	2022.2.5	143.44814930472273		5.716000000000122	1_sub-pilot034_SVR_EEG_block3-4.protocol.csv	step31	4333	430.364	STIMULATE	44.7	44.6	44.6	44.6	44.6	31	1446.6909999999998
1450.952	0	725476	wait	20	2	0	2	0	15.0	0.0	15.0	0.0						1478.8581201999914	1486.4002398999874	1486.4002398999874	3.5	['3', 'a', '5', 'return']	[2.537199799902737, 2.849142099963501, 3.3138045999221504, 4.2163406000472605]	7.53	5.24	3.0	20hz	low_pain	41.8			sub-034	250	34	41.8	44.7	COM11	COM15	COM3	2024-05-07_13h45.41.546	001-EEG_SVR_Officel	2022.2.5	143.44814930472273		10.867999999999938	1_sub-pilot034_SVR_EEG_block3-4.protocol.csv	step33	4572	454.057	STIMULATE	41.8	41.6	41.6	41.6	41.6	33	1470.384
1458.482	0	729241	20hz	6	2	0	2	0	15.0	0.0	15.0	0.0						1478.8581201999914	1486.4002398999874	1486.4002398999874	3.5	['3', 'a', '5', 'return']	[2.537199799902737, 2.849142099963501, 3.3138045999221504, 4.2163406000472605]	7.53	5.24	3.0	20hz	low_pain	41.8			sub-034	250	34	41.8	44.7	COM11	COM15	COM3	2024-05-07_13h45.41.546	001-EEG_SVR_Officel	2022.2.5	143.44814930472273		7.529999999999973	1_sub-pilot034_SVR_EEG_block3-4.protocol.csv	step33	4572	454.057	STIMULATE	41.8	41.6	41.6	41.6	41.6	33	1470.384
1464.482	0	732241	20/Lo	5	2	0	2	0	15.0	0.0	15.0	0.0						1478.8581201999914	1486.4002398999874	1486.4002398999874	3.5	['3', 'a', '5', 'return']	[2.537199799902737, 2.849142099963501, 3.3138045999221504, 4.2163406000472605]	7.53	5.24	3.0	20hz	low_pain	41.8			sub-034	250	34	41.8	44.7	COM11	COM15	COM3	2024-05-07_13h45.41.546	001-EEG_SVR_Officel	2022.2.5	143.44814930472273		5.25	1_sub-pilot034_SVR_EEG_block3-4.protocol.csv	step33	4572	454.057	STIMULATE	41.8	41.6	41.6	41.6	41.6	33	1470.384
1538.052	0	769026	wait	20	3	0	3	0	0.0	0.0	0.0	0.0				p	2.481787799857557	1565.9582148999907	1571.6605256998446	1571.6605256998446	6.0	['6', 'return']	[1.8270127999130636, 2.483615499921143]	5.69	5.52	0.0	40hz	high_pain	44.7			sub-034	250	34	41.8	44.7	COM11	COM15	COM3	2024-05-07_13h45.41.546	001-EEG_SVR_Officel	2022.2.5	143.44814930472273		74.31999999999994	1_sub-pilot034_SVR_EEG_block3-4.protocol.csv	step35	5430	539.619	STIMULATE	44.6	44.6	44.6	44.6	44.6	35	1555.907
1543.742	0	771871	40hz	9	3	0	3	0	0.0	0.0	0.0	0.0				p	2.481787799857557	1565.9582148999907	1571.6605256998446	1571.6605256998446	6.0	['6', 'return']	[1.8270127999130636, 2.483615499921143]	5.69	5.52	0.0	40hz	high_pain	44.7			sub-034	250	34	41.8	44.7	COM11	COM15	COM3	2024-05-07_13h45.41.546	001-EEG_SVR_Officel	2022.2.5	143.44814930472273		5.690000000000055	1_sub-pilot034_SVR_EEG_block3-4.protocol.csv	step35	5430	539.619	STIMULATE	44.6	44.6	44.6	44.6	44.6	35	1555.907
1550.012	0	775006	40/Hi	7	3	0	3	0	0.0	0.0	0.0	0.0				p	2.481787799857557	1565.9582148999907	1571.6605256998446	1571.6605256998446	6.0	['6', 'return']	[1.8270127999130636, 2.483615499921143]	5.69	5.52	0.0	40hz	high_pain	44.7			sub-034	250	34	41.8	44.7	COM11	COM15	COM3	2024-05-07_13h45.41.546	001-EEG_SVR_Officel	2022.2.5	143.44814930472273		5.519999999999982	1_sub-pilot034_SVR_EEG_block3-4.protocol.csv	step35	5430	539.619	STIMULATE	44.6	44.6	44.6	44.6	44.6	35	1555.907
1559.256	0	779628	wait	20	3	0	3	0	1.0	0.0	1.0	0.0						1587.1627721998375	1592.3088668999262	1592.3088668999262	3.5	['3', 'a', '5', 'return']	[1.83589500002563, 2.2050276999361813, 2.412074699997902, 3.157330200076103]	5.14	5.49	1.0	controle	low_pain	41.8			sub-034	250	34	41.8	44.7	COM11	COM15	COM3	2024-05-07_13h45.41.546	001-EEG_SVR_Officel	2022.2.5	143.44814930472273		9.994000000000142	1_sub-pilot034_SVR_EEG_block3-4.protocol.csv	step37	5637	560.206	STIMULATE	41.8	41.6	41.6	41.6	41.6	37	1576.494
1564.39	0	782195	CNhz	12	3	0	3	0	1.0	0.0	1.0	0.0						1587.1627721998375	1592.3088668999262	1592.3088668999262	3.5	['3', 'a', '5', 'return']	[1.83589500002563, 2.2050276999361813, 2.412074699997902, 3.157330200076103]	5.14	5.49	1.0	controle	low_pain	41.8			sub-034	250	34	41.8	44.7	COM11	COM15	COM3	2024-05-07_13h45.41.546	001-EEG_SVR_Officel	2022.2.5	143.44814930472273		5.1340000000000146	1_sub-pilot034_SVR_EEG_block3-4.protocol.csv	step37	5637	560.206	STIMULATE	41.8	41.6	41.6	41.6	41.6	37	1576.494
1570.632	0	785316	CN/Lo	11	3	0	3	0	1.0	0.0	1.0	0.0						1587.1627721998375	1592.3088668999262	1592.3088668999262	3.5	['3', 'a', '5', 'return']	[1.83589500002563, 2.2050276999361813, 2.412074699997902, 3.157330200076103]	5.14	5.49	1.0	controle	low_pain	41.8			sub-034	250	34	41.8	44.7	COM11	COM15	COM3	2024-05-07_13h45.41.546	001-EEG_SVR_Officel	2022.2.5	143.44814930472273		5.491999999999962	1_sub-pilot034_SVR_EEG_block3-4.protocol.csv	step37	5637	560.206	STIMULATE	41.8	41.6	41.6	41.6	41.6	37	1576.494
1580.57	0	790285	wait	20	3	0	3	0	2.0	0.0	2.0	0.0						1608.4765637000091	1614.6029067998752	1614.6029067998752	5.0	['5', 'return']	[1.7175833000801504, 2.326409399975091]	6.12	5.78	2.0	40hz	high_pain	44.7			sub-034	250	34	41.8	44.7	COM11	COM15	COM3	2024-05-07_13h45.41.546	001-EEG_SVR_Officel	2022.2.5	143.44814930472273		10.687999999999874	1_sub-pilot034_SVR_EEG_block3-4.protocol.csv	step39	5866	582.867	STIMULATE	44.7	44.6	44.6	44.6	44.6	39	1599.1549999999997
1586.684	0	793342	40hz	9	3	0	3	0	2.0	0.0	2.0	0.0						1608.4765637000091	1614.6029067998752	1614.6029067998752	5.0	['5', 'return']	[1.7175833000801504, 2.326409399975091]	6.12	5.78	2.0	40hz	high_pain	44.7			sub-034	250	34	41.8	44.7	COM11	COM15	COM3	2024-05-07_13h45.41.546	001-EEG_SVR_Officel	2022.2.5	143.44814930472273		6.114000000000033	1_sub-pilot034_SVR_EEG_block3-4.protocol.csv	step39	5866	582.867	STIMULATE	44.7	44.6	44.6	44.6	44.6	39	1599.1549999999997
1593.218	0	796609	40/Hi	7	3	0	3	0	2.0	0.0	2.0	0.0						1608.4765637000091	1614.6029067998752	1614.6029067998752	5.0	['5', 'return']	[1.7175833000801504, 2.326409399975091]	6.12	5.78	2.0	40hz	high_pain	44.7			sub-034	250	34	41.8	44.7	COM11	COM15	COM3	2024-05-07_13h45.41.546	001-EEG_SVR_Officel	2022.2.5	143.44814930472273		5.7840000000001055	1_sub-pilot034_SVR_EEG_block3-4.protocol.csv	step39	5866	582.867	STIMULATE	44.7	44.6	44.6	44.6	44.6	39	1599.1549999999997
1602.038	0	801019	wait	20	3	0	3	0	3.0	0.0	3.0	0.0						1629.945032299962	1637.7862505000085	1637.7862505000085	5.5	['5', 'a', '5', 'return']	[2.086440599989146, 2.4301954999100417, 2.631630799965933, 3.254418999888003]	7.83	6.02	3.0	20hz	high_pain	44.7			sub-034	250	34	41.8	44.7	COM11	COM15	COM3	2024-05-07_13h45.41.546	001-EEG_SVR_Officel	2022.2.5	143.44814930472273		9.569999999999936	1_sub-pilot034_SVR_EEG_block3-4.protocol.csv	step41	6102	606.231	STIMULATE	44.7	44.6	44.6	44.6	44.6	41	1622.5189999999998
1609.868	0	804934	20hz	6	3	0	3	0	3.0	0.0	3.0	0.0						1629.945032299962	1637.7862505000085	1637.7862505000085	5.5	['5', 'a', '5', 'return']	[2.086440599989146, 2.4301954999100417, 2.631630799965933, 3.254418999888003]	7.83	6.02	3.0	20hz	high_pain	44.7			sub-034	250	34	41.8	44.7	COM11	COM15	COM3	2024-05-07_13h45.41.546	001-EEG_SVR_Officel	2022.2.5	143.44814930472273		7.829999999999927	1_sub-pilot034_SVR_EEG_block3-4.protocol.csv	step41	6102	606.231	STIMULATE	44.7	44.6	44.6	44.6	44.6	41	1622.5189999999998
1616.638	0	808319	20/Hi	4	3	0	3	0	3.0	0.0	3.0	0.0						1629.945032299962	1637.7862505000085	1637.7862505000085	5.5	['5', 'a', '5', 'return']	[2.086440599989146, 2.4301954999100417, 2.631630799965933, 3.254418999888003]	7.83	6.02	3.0	20hz	high_pain	44.7			sub-034	250	34	41.8	44.7	COM11	COM15	COM3	2024-05-07_13h45.41.546	001-EEG_SVR_Officel	2022.2.5	143.44814930472273		6.019999999999982	1_sub-pilot034_SVR_EEG_block3-4.protocol.csv	step41	6102	606.231	STIMULATE	44.7	44.6	44.6	44.6	44.6	41	1622.5189999999998
1626.152	0	813076	wait	20	3	0	3	0	4.0	0.0	4.0	0.0						1654.0592668999452	1661.421030699974	1661.421030699974	2.5	['2', 'a', '5', 'return']	[2.19574710004963, 2.4595037000253797, 3.172394899884239, 3.787840799894184]	7.35	5.59	0.0	controle	low_pain	41.8			sub-034	250	34	41.8	44.7	COM11	COM15	COM3	2024-05-07_13h45.41.546	001-EEG_SVR_Officel	2022.2.5	143.44814930472273		10.264000000000124	1_sub-pilot034_SVR_EEG_block3-4.protocol.csv	step43	6336	629.451	STIMULATE	41.7	41.6	41.6	41.6	41.7	43	1645.739
1633.502	0	816751	CNhz	12	3	0	3	0	4.0	0.0	4.0	0.0						1654.0592668999452	1661.421030699974	1661.421030699974	2.5	['2', 'a', '5', 'return']	[2.19574710004963, 2.4595037000253797, 3.172394899884239, 3.787840799894184]	7.35	5.59	0.0	controle	low_pain	41.8			sub-034	250	34	41.8	44.7	COM11	COM15	COM3	2024-05-07_13h45.41.546	001-EEG_SVR_Officel	2022.2.5	143.44814930472273		7.349999999999909	1_sub-pilot034_SVR_EEG_block3-4.protocol.csv	step43	6336	629.451	STIMULATE	41.7	41.6	41.6	41.6	41.7	43	1645.739
1639.842	0	819921	CN/Lo	11	3	0	3	0	4.0	0.0	4.0	0.0						1654.0592668999452	1661.421030699974	1661.421030699974	2.5	['2', 'a', '5', 'return']	[2.19574710004963, 2.4595037000253797, 3.172394899884239, 3.787840799894184]	7.35	5.59	0.0	controle	low_pain	41.8			sub-034	250	34	41.8	44.7	COM11	COM15	COM3	2024-05-07_13h45.41.546	001-EEG_SVR_Officel	2022.2.5	143.44814930472273		5.5900000000001455	1_sub-pilot034_SVR_EEG_block3-4.protocol.csv	step43	6336	629.451	STIMULATE	41.7	41.6	41.6	41.6	41.7	43	1645.739
1650.322	0	825161	wait	20	3	0	3	0	5.0	0.0	5.0	0.0						1678.2285542997995	1683.249910299899	1683.249910299899	5.5	['5', 'a', '5', 'return']	[2.655715299770236, 2.8488547999877483, 3.0398181998170912, 3.695945499930531]	5.01	6.07	1.0	10hz	high_pain	44.7			sub-034	250	34	41.8	44.7	COM11	COM15	COM3	2024-05-07_13h45.41.546	001-EEG_SVR_Officel	2022.2.5	143.44814930472273		11.22999999999979	1_sub-pilot034_SVR_EEG_block3-4.protocol.csv	step45	6561	651.77	STIMULATE	44.7	44.6	44.6	44.6	44.7	45	1668.058
1655.332	0	827666	10hz	3	3	0	3	0	5.0	0.0	5.0	0.0						1678.2285542997995	1683.249910299899	1683.249910299899	5.5	['5', 'a', '5', 'return']	[2.655715299770236, 2.8488547999877483, 3.0398181998170912, 3.695945499930531]	5.01	6.07	1.0	10hz	high_pain	44.7			sub-034	250	34	41.8	44.7	COM11	COM15	COM3	2024-05-07_13h45.41.546	001-EEG_SVR_Officel	2022.2.5	143.44814930472273		5.010000000000218	1_sub-pilot034_SVR_EEG_block3-4.protocol.csv	step45	6561	651.77	STIMULATE	44.7	44.6	44.6	44.6	44.7	45	1668.058
1662.15	0	831075	10/Hi	1	3	0	3	0	5.0	0.0	5.0	0.0						1678.2285542997995	1683.249910299899	1683.249910299899	5.5	['5', 'a', '5', 'return']	[2.655715299770236, 2.8488547999877483, 3.0398181998170912, 3.695945499930531]	5.01	6.07	1.0	10hz	high_pain	44.7			sub-034	250	34	41.8	44.7	COM11	COM15	COM3	2024-05-07_13h45.41.546	001-EEG_SVR_Officel	2022.2.5	143.44814930472273		6.067999999999984	1_sub-pilot034_SVR_EEG_block3-4.protocol.csv	step45	6561	651.77	STIMULATE	44.7	44.6	44.6	44.6	44.7	45	1668.058
1672.054	0	836027	wait	20	3	0	3	0	6.0	0.0	6.0	0.0						1699.9606383999344	1706.5516974998172	1706.5516974998172	2.0	['2', 'return']	[2.154138999991119, 2.8810723000206053]	6.58	5.58	2.0	20hz	low_pain	41.8			sub-034	250	34	41.8	44.7	COM11	COM15	COM3	2024-05-07_13h45.41.546	001-EEG_SVR_Officel	2022.2.5	143.44814930472273		10.653999999999996	1_sub-pilot034_SVR_EEG_block3-4.protocol.csv	step47	6791	674.529	STIMULATE	41.7	41.6	41.6	41.6	41.7	47	1690.817
1678.632	0	839316	20hz	6	3	0	3	0	6.0	0.0	6.0	0.0						1699.9606383999344	1706.5516974998172	1706.5516974998172	2.0	['2', 'return']	[2.154138999991119, 2.8810723000206053]	6.58	5.58	2.0	20hz	low_pain	41.8			sub-034	250	34	41.8	44.7	COM11	COM15	COM3	2024-05-07_13h45.41.546	001-EEG_SVR_Officel	2022.2.5	143.44814930472273		6.5779999999999745	1_sub-pilot034_SVR_EEG_block3-4.protocol.csv	step47	6791	674.529	STIMULATE	41.7	41.6	41.6	41.6	41.7	47	1690.817
1684.966	0	842483	20/Lo	5	3	0	3	0	6.0	0.0	6.0	0.0						1699.9606383999344	1706.5516974998172	1706.5516974998172	2.0	['2', 'return']	[2.154138999991119, 2.8810723000206053]	6.58	5.58	2.0	20hz	low_pain	41.8			sub-034	250	34	41.8	44.7	COM11	COM15	COM3	2024-05-07_13h45.41.546	001-EEG_SVR_Officel	2022.2.5	143.44814930472273		5.583999999999833	1_sub-pilot034_SVR_EEG_block3-4.protocol.csv	step47	6791	674.529	STIMULATE	41.7	41.6	41.6	41.6	41.7	47	1690.817
1694.542	0	847271	wait	20	3	0	3	0	7.0	0.0	7.0	0.0						1722.4491828000173	1729.9708163000178	1729.9708163000178	2.5	['2', 'a', '5', 'return']	[2.414910600055009, 2.5737827999982983, 3.0782632001210004, 3.8698687001597136]	7.51	5.53	3.0	40hz	low_pain	41.8			sub-034	250	34	41.8	44.7	COM11	COM15	COM3	2024-05-07_13h45.41.546	001-EEG_SVR_Officel	2022.2.5	143.44814930472273		10.326000000000022	1_sub-pilot034_SVR_EEG_block3-4.protocol.csv	step49	7027	697.998	STIMULATE	41.7	41.6	41.6	41.6	41.7	49	1714.286
1702.052	0	851026	40hz	9	3	0	3	0	7.0	0.0	7.0	0.0						1722.4491828000173	1729.9708163000178	1729.9708163000178	2.5	['2', 'a', '5', 'return']	[2.414910600055009, 2.5737827999982983, 3.0782632001210004, 3.8698687001597136]	7.51	5.53	3.0	40hz	low_pain	41.8			sub-034	250	34	41.8	44.7	COM11	COM15	COM3	2024-05-07_13h45.41.546	001-EEG_SVR_Officel	2022.2.5	143.44814930472273		7.509999999999991	1_sub-pilot034_SVR_EEG_block3-4.protocol.csv	step49	7027	697.998	STIMULATE	41.7	41.6	41.6	41.6	41.7	49	1714.286
1708.336	0	854168	40/Lo	8	3	0	3	0	7.0	0.0	7.0	0.0						1722.4491828000173	1729.9708163000178	1729.9708163000178	2.5	['2', 'a', '5', 'return']	[2.414910600055009, 2.5737827999982983, 3.0782632001210004, 3.8698687001597136]	7.51	5.53	3.0	40hz	low_pain	41.8			sub-034	250	34	41.8	44.7	COM11	COM15	COM3	2024-05-07_13h45.41.546	001-EEG_SVR_Officel	2022.2.5	143.44814930472273		5.5340000000001055	1_sub-pilot034_SVR_EEG_block3-4.protocol.csv	step49	7027	697.998	STIMULATE	41.7	41.6	41.6	41.6	41.7	49	1714.286
1718.954	0	859477	wait	20	3	0	3	0	8.0	0.0	8.0	0.0						1746.861603599973	1753.8485935998615	1753.8485935998615	5.0	['5', 'return']	[2.816409399965778, 3.4804319001268595]	6.98	6.21	0.0	20hz	high_pain	44.7			sub-034	250	34	41.8	44.7	COM11	COM15	COM3	2024-05-07_13h45.41.546	001-EEG_SVR_Officel	2022.2.5	143.44814930472273		11.367999999999938	1_sub-pilot034_SVR_EEG_block3-4.protocol.csv	step51	7274	722.518	STIMULATE	44.7	44.6	44.6	44.6	44.7	51	1738.806
1725.93	0	862965	20hz	6	3	0	3	0	8.0	0.0	8.0	0.0						1746.861603599973	1753.8485935998615	1753.8485935998615	5.0	['5', 'return']	[2.816409399965778, 3.4804319001268595]	6.98	6.21	0.0	20hz	high_pain	44.7			sub-034	250	34	41.8	44.7	COM11	COM15	COM3	2024-05-07_13h45.41.546	001-EEG_SVR_Officel	2022.2.5	143.44814930472273		6.976000000000113	1_sub-pilot034_SVR_EEG_block3-4.protocol.csv	step51	7274	722.518	STIMULATE	44.7	44.6	44.6	44.6	44.7	51	1738.806
1732.894	0	866447	20/Hi	4	3	0	3	0	8.0	0.0	8.0	0.0						1746.861603599973	1753.8485935998615	1753.8485935998615	5.0	['5', 'return']	[2.816409399965778, 3.4804319001268595]	6.98	6.21	0.0	20hz	high_pain	44.7			sub-034	250	34	41.8	44.7	COM11	COM15	COM3	2024-05-07_13h45.41.546	001-EEG_SVR_Officel	2022.2.5	143.44814930472273		6.213999999999942	1_sub-pilot034_SVR_EEG_block3-4.protocol.csv	step51	7274	722.518	STIMULATE	44.7	44.6	44.6	44.6	44.7	51	1738.806
1742.436	0	871218	wait	20	3	0	3	0	9.0	0.0	9.0	0.0						1770.343149199849	1777.8932731999084	1777.8932731999084	3.5	['3', 'a', '5', 'return']	[2.907993400003761, 3.0759663998614997, 3.547190200071782, 4.843677300028503]	7.54	6.04	1.0	40hz	high_pain	44.7			sub-034	250	34	41.8	44.7	COM11	COM15	COM3	2024-05-07_13h45.41.546	001-EEG_SVR_Officel	2022.2.5	143.44814930472273		10.291999999999916	1_sub-pilot034_SVR_EEG_block3-4.protocol.csv	step53	7515	746.367	STIMULATE	44.6	44.6	44.6	44.6	44.7	53	1762.6549999999997
1749.974	0	874987	40hz	9	3	0	3	0	9.0	0.0	9.0	0.0						1770.343149199849	1777.8932731999084	1777.8932731999084	3.5	['3', 'a', '5', 'return']	[2.907993400003761, 3.0759663998614997, 3.547190200071782, 4.843677300028503]	7.54	6.04	1.0	40hz	high_pain	44.7			sub-034	250	34	41.8	44.7	COM11	COM15	COM3	2024-05-07_13h45.41.546	001-EEG_SVR_Officel	2022.2.5	143.44814930472273		7.538000000000011	1_sub-pilot034_SVR_EEG_block3-4.protocol.csv	step53	7515	746.367	STIMULATE	44.6	44.6	44.6	44.6	44.7	53	1762.6549999999997
1756.764	0	878382	40/Hi	7	3	0	3	0	9.0	0.0	9.0	0.0						1770.343149199849	1777.8932731999084	1777.8932731999084	3.5	['3', 'a', '5', 'return']	[2.907993400003761, 3.0759663998614997, 3.547190200071782, 4.843677300028503]	7.54	6.04	1.0	40hz	high_pain	44.7			sub-034	250	34	41.8	44.7	COM11	COM15	COM3	2024-05-07_13h45.41.546	001-EEG_SVR_Officel	2022.2.5	143.44814930472273		6.039999999999964	1_sub-pilot034_SVR_EEG_block3-4.protocol.csv	step53	7515	746.367	STIMULATE	44.6	44.6	44.6	44.6	44.7	53	1762.6549999999997
1767.848	0	883924	wait	20	3	0	3	0	10.0	0.0	10.0	0.0						1795.7564359998796	1802.2155265000183	1802.2155265000183	2.5	['2', 'a', '5', 'return']	[2.5691727998200804, 2.752810699865222, 3.2165694998111576, 4.040621899999678]	6.45	6.41	2.0	controle	low_pain	41.8			sub-034	250	34	41.8	44.7	COM11	COM15	COM3	2024-05-07_13h45.41.546	001-EEG_SVR_Officel	2022.2.5	143.44814930472273		11.83400000000006	1_sub-pilot034_SVR_EEG_block3-4.protocol.csv	step55	7763	771.055	STIMULATE	41.7	41.6	41.6	41.6	41.6	55	1787.3429999999998
1774.296	0	887148	CNhz	12	3	0	3	0	10.0	0.0	10.0	0.0						1795.7564359998796	1802.2155265000183	1802.2155265000183	2.5	['2', 'a', '5', 'return']	[2.5691727998200804, 2.752810699865222, 3.2165694998111576, 4.040621899999678]	6.45	6.41	2.0	controle	low_pain	41.8			sub-034	250	34	41.8	44.7	COM11	COM15	COM3	2024-05-07_13h45.41.546	001-EEG_SVR_Officel	2022.2.5	143.44814930472273		6.448000000000093	1_sub-pilot034_SVR_EEG_block3-4.protocol.csv	step55	7763	771.055	STIMULATE	41.7	41.6	41.6	41.6	41.6	55	1787.3429999999998
1781.454	0	890727	CN/Lo	11	3	0	3	0	10.0	0.0	10.0	0.0						1795.7564359998796	1802.2155265000183	1802.2155265000183	2.5	['2', 'a', '5', 'return']	[2.5691727998200804, 2.752810699865222, 3.2165694998111576, 4.040621899999678]	6.45	6.41	2.0	controle	low_pain	41.8			sub-034	250	34	41.8	44.7	COM11	COM15	COM3	2024-05-07_13h45.41.546	001-EEG_SVR_Officel	2022.2.5	143.44814930472273		6.407999999999902	1_sub-pilot034_SVR_EEG_block3-4.protocol.csv	step55	7763	771.055	STIMULATE	41.7	41.6	41.6	41.6	41.6	55	1787.3429999999998
1791.366	0	895683	wait	20	3	0	3	0	11.0	0.0	11.0	0.0						1819.273535099812	1826.170169299934	1826.170169299934	5.5	['5', 'a', '5', 'return']	[2.7828718000091612, 3.0554829000029713, 3.4476489000953734, 4.2642962001264095]	6.89	6.0	3.0	controle	high_pain	44.7			sub-034	250	34	41.8	44.7	COM11	COM15	COM3	2024-05-07_13h45.41.546	001-EEG_SVR_Officel	2022.2.5	143.44814930472273		10.662000000000035	1_sub-pilot034_SVR_EEG_block3-4.protocol.csv	step57	7994	794.65	STIMULATE	44.7	44.6	44.6	44.6	44.7	57	1810.9379999999999
1798.252	0	899126	CNhz	12	3	0	3	0	11.0	0.0	11.0	0.0						1819.273535099812	1826.170169299934	1826.170169299934	5.5	['5', 'a', '5', 'return']	[2.7828718000091612, 3.0554829000029713, 3.4476489000953734, 4.2642962001264095]	6.89	6.0	3.0	controle	high_pain	44.7			sub-034	250	34	41.8	44.7	COM11	COM15	COM3	2024-05-07_13h45.41.546	001-EEG_SVR_Officel	2022.2.5	143.44814930472273		6.885999999999967	1_sub-pilot034_SVR_EEG_block3-4.protocol.csv	step57	7994	794.65	STIMULATE	44.7	44.6	44.6	44.6	44.7	57	1810.9379999999999
1805.006	0	902503	CN/Hi	10	3	0	3	0	11.0	0.0	11.0	0.0						1819.273535099812	1826.170169299934	1826.170169299934	5.5	['5', 'a', '5', 'return']	[2.7828718000091612, 3.0554829000029713, 3.4476489000953734, 4.2642962001264095]	6.89	6.0	3.0	controle	high_pain	44.7			sub-034	250	34	41.8	44.7	COM11	COM15	COM3	2024-05-07_13h45.41.546	001-EEG_SVR_Officel	2022.2.5	143.44814930472273		6.004000000000133	1_sub-pilot034_SVR_EEG_block3-4.protocol.csv	step57	7994	794.65	STIMULATE	44.7	44.6	44.6	44.6	44.7	57	1810.9379999999999
1815.556	0	907778	wait	20	3	0	3	0	12.0	0.0	12.0	0.0						1843.4634836998305	1849.6935370999852	1849.6935370999852	5.0	['5', 'return']	[2.4755825002212077, 3.188408800167963]	6.22	5.16	0.0	10hz	high_pain	44.7			sub-034	250	34	41.8	44.7	COM11	COM15	COM3	2024-05-07_13h45.41.546	001-EEG_SVR_Officel	2022.2.5	143.44814930472273		11.299999999999955	1_sub-pilot034_SVR_EEG_block3-4.protocol.csv	step59	8213	817.405	STIMULATE	44.7	44.6	44.6	44.6	44.6	59	1833.6929999999998
1821.774	0	910887	10hz	3	3	0	3	0	12.0	0.0	12.0	0.0						1843.4634836998305	1849.6935370999852	1849.6935370999852	5.0	['5', 'return']	[2.4755825002212077, 3.188408800167963]	6.22	5.16	0.0	10hz	high_pain	44.7			sub-034	250	34	41.8	44.7	COM11	COM15	COM3	2024-05-07_13h45.41.546	001-EEG_SVR_Officel	2022.2.5	143.44814930472273		6.217999999999847	1_sub-pilot034_SVR_EEG_block3-4.protocol.csv	step59	8213	817.405	STIMULATE	44.7	44.6	44.6	44.6	44.6	59	1833.6929999999998
1827.69	0	913845	10/Hi	1	3	0	3	0	12.0	0.0	12.0	0.0						1843.4634836998305	1849.6935370999852	1849.6935370999852	5.0	['5', 'return']	[2.4755825002212077, 3.188408800167963]	6.22	5.16	0.0	10hz	high_pain	44.7			sub-034	250	34	41.8	44.7	COM11	COM15	COM3	2024-05-07_13h45.41.546	001-EEG_SVR_Officel	2022.2.5	143.44814930472273		5.166000000000167	1_sub-pilot034_SVR_EEG_block3-4.protocol.csv	step59	8213	817.405	STIMULATE	44.7	44.6	44.6	44.6	44.6	59	1833.6929999999998
1837.996	0	918998	wait	20	3	0	3	0	13.0	0.0	13.0	0.0						1865.903802299872	1872.9948243999388	1872.9948243999388	2.0	['2', 'return']	[2.421412300085649, 3.1826478999573737]	7.08	6.04	1.0	10hz	low_pain	41.8			sub-034	250	34	41.8	44.7	COM11	COM15	COM3	2024-05-07_13h45.41.546	001-EEG_SVR_Officel	2022.2.5	143.44814930472273		11.05600000000004	1_sub-pilot034_SVR_EEG_block3-4.protocol.csv	step61	8443	841.495	STIMULATE	41.6	41.6	41.6	41.6	41.7	61	1857.783
1845.074	0	922537	10hz	3	3	0	3	0	13.0	0.0	13.0	0.0						1865.903802299872	1872.9948243999388	1872.9948243999388	2.0	['2', 'return']	[2.421412300085649, 3.1826478999573737]	7.08	6.04	1.0	10hz	low_pain	41.8			sub-034	250	34	41.8	44.7	COM11	COM15	COM3	2024-05-07_13h45.41.546	001-EEG_SVR_Officel	2022.2.5	143.44814930472273		7.0779999999999745	1_sub-pilot034_SVR_EEG_block3-4.protocol.csv	step61	8443	841.495	STIMULATE	41.6	41.6	41.6	41.6	41.7	61	1857.783
1851.866	0	925933	10/Lo	2	3	0	3	0	13.0	0.0	13.0	0.0						1865.903802299872	1872.9948243999388	1872.9948243999388	2.0	['2', 'return']	[2.421412300085649, 3.1826478999573737]	7.08	6.04	1.0	10hz	low_pain	41.8			sub-034	250	34	41.8	44.7	COM11	COM15	COM3	2024-05-07_13h45.41.546	001-EEG_SVR_Officel	2022.2.5	143.44814930472273		6.041999999999916	1_sub-pilot034_SVR_EEG_block3-4.protocol.csv	step61	8443	841.495	STIMULATE	41.6	41.6	41.6	41.6	41.7	61	1857.783
1861.282	0	930641	wait	20	3	0	3	0	14.0	0.0	14.0	0.0						1889.1907261998856	1896.0878539998084	1896.0878539998084	3.5	['3', 'a', '5', 'return']	[2.2722708000801504, 2.4324738001450896, 2.9539881001692265, 3.680936499964446]	6.89	6.07	2.0	20hz	high_pain	44.7			sub-034	250	34	41.8	44.7	COM11	COM15	COM3	2024-05-07_13h45.41.546	001-EEG_SVR_Officel	2022.2.5	143.44814930472273		10.16599999999994	1_sub-pilot034_SVR_EEG_block3-4.protocol.csv	step63	8662	864.597	STIMULATE	44.7	44.6	44.6	44.6	44.6	63	1880.8849999999998
1868.168	0	934084	20hz	6	3	0	3	0	14.0	0.0	14.0	0.0						1889.1907261998856	1896.0878539998084	1896.0878539998084	3.5	['3', 'a', '5', 'return']	[2.2722708000801504, 2.4324738001450896, 2.9539881001692265, 3.680936499964446]	6.89	6.07	2.0	20hz	high_pain	44.7			sub-034	250	34	41.8	44.7	COM11	COM15	COM3	2024-05-07_13h45.41.546	001-EEG_SVR_Officel	2022.2.5	143.44814930472273		6.885999999999967	1_sub-pilot034_SVR_EEG_block3-4.protocol.csv	step63	8662	864.597	STIMULATE	44.7	44.6	44.6	44.6	44.6	63	1880.8849999999998
1874.986	0	937493	20/Hi	4	3	0	3	0	14.0	0.0	14.0	0.0						1889.1907261998856	1896.0878539998084	1896.0878539998084	3.5	['3', 'a', '5', 'return']	[2.2722708000801504, 2.4324738001450896, 2.9539881001692265, 3.680936499964446]	6.89	6.07	2.0	20hz	high_pain	44.7			sub-034	250	34	41.8	44.7	COM11	COM15	COM3	2024-05-07_13h45.41.546	001-EEG_SVR_Officel	2022.2.5	143.44814930472273		6.068000000000211	1_sub-pilot034_SVR_EEG_block3-4.protocol.csv	step63	8662	864.597	STIMULATE	44.7	44.6	44.6	44.6	44.6	63	1880.8849999999998
1884.868	0	942434	wait	20	3	0	3	0	15.0	0.0	15.0	0.0						1912.776800499996	1919.8129016999155	1919.8129016999155	2.0	['2', 'return']	[2.0431226999498904, 2.9485545000061393]	7.03	5.32	3.0	controle	low_pain	41.8			sub-034	250	34	41.8	44.7	COM11	COM15	COM3	2024-05-07_13h45.41.546	001-EEG_SVR_Officel	2022.2.5	143.44814930472273		10.631999999999834	1_sub-pilot034_SVR_EEG_block3-4.protocol.csv	step65	8878	887.613	STIMULATE	41.7	41.6	41.6	41.6	41.7	65	1903.9009999999998
1891.894	0	945947	CNhz	12	3	0	3	0	15.0	0.0	15.0	0.0						1912.776800499996	1919.8129016999155	1919.8129016999155	2.0	['2', 'return']	[2.0431226999498904, 2.9485545000061393]	7.03	5.32	3.0	controle	low_pain	41.8			sub-034	250	34	41.8	44.7	COM11	COM15	COM3	2024-05-07_13h45.41.546	001-EEG_SVR_Officel	2022.2.5	143.44814930472273		7.026000000000067	1_sub-pilot034_SVR_EEG_block3-4.protocol.csv	step65	8878	887.613	STIMULATE	41.7	41.6	41.6	41.6	41.7	65	1903.9009999999998
1897.962	0	948981	CN/Lo	11	3	0	3	0	15.0	0.0	15.0	0.0						1912.776800499996	1919.8129016999155	1919.8129016999155	2.0	['2', 'return']	[2.0431226999498904, 2.9485545000061393]	7.03	5.32	3.0	controle	low_pain	41.8			sub-034	250	34	41.8	44.7	COM11	COM15	COM3	2024-05-07_13h45.41.546	001-EEG_SVR_Officel	2022.2.5	143.44814930472273		5.317999999999984	1_sub-pilot034_SVR_EEG_block3-4.protocol.csv	step65	8878	887.613	STIMULATE	41.7	41.6	41.6	41.6	41.7	65	1903.9009999999998
1970.254	0	985127	wait	20	4	0	4	0	0.0	0.0	0.0	0.0				p	2.214748000027612	1998.1625373999125	2003.4340754998848	2003.4340754998848	3.0	['3', 'return']	[2.0230527000967413, 2.854509700089693]	5.26	5.13	0.0	40hz	high_pain	44.7			sub-034	250	34	41.8	44.7	COM11	COM15	COM3	2024-05-07_13h45.41.546	001-EEG_SVR_Officel	2022.2.5	143.44814930472273		73.04199999999992	2_sub-pilot034_SVR_EEG_block5-6.protocol.csv	step3	715	71.361	STIMULATE	44.7	44.6	44.6	44.6	44.6	3	1987.262
1975.514	0	987757	40hz	9	4	0	4	0	0.0	0.0	0.0	0.0				p	2.214748000027612	1998.1625373999125	2003.4340754998848	2003.4340754998848	3.0	['3', 'return']	[2.0230527000967413, 2.854509700089693]	5.26	5.13	0.0	40hz	high_pain	44.7			sub-034	250	34	41.8	44.7	COM11	COM15	COM3	2024-05-07_13h45.41.546	001-EEG_SVR_Officel	2022.2.5	143.44814930472273		5.259999999999991	2_sub-pilot034_SVR_EEG_block5-6.protocol.csv	step3	715	71.361	STIMULATE	44.7	44.6	44.6	44.6	44.6	3	1987.262
1981.394	0	990697	40/Hi	7	4	0	4	0	0.0	0.0	0.0	0.0				p	2.214748000027612	1998.1625373999125	2003.4340754998848	2003.4340754998848	3.0	['3', 'return']	[2.0230527000967413, 2.854509700089693]	5.26	5.13	0.0	40hz	high_pain	44.7			sub-034	250	34	41.8	44.7	COM11	COM15	COM3	2024-05-07_13h45.41.546	001-EEG_SVR_Officel	2022.2.5	143.44814930472273		5.130000000000109	2_sub-pilot034_SVR_EEG_block5-6.protocol.csv	step3	715	71.361	STIMULATE	44.7	44.6	44.6	44.6	44.6	3	1987.262
1991.394	0	995697	wait	20	4	0	4	0	1.0	0.0	1.0	0.0						2019.303524499992	2026.5617746999487	2026.5617746999487	2.0	['2', 'return']	[2.1588246999308467, 2.934684199979529]	7.25	5.56	1.0	controle	low_pain	41.8			sub-034	250	34	41.8	44.7	COM11	COM15	COM3	2024-05-07_13h45.41.546	001-EEG_SVR_Officel	2022.2.5	143.44814930472273		10.75	2_sub-pilot034_SVR_EEG_block5-6.protocol.csv	step5	952	94.822	STIMULATE	41.7	41.6	41.6	41.6	41.7	5	2010.723
1998.64	0	999320	CNhz	12	4	0	4	0	1.0	0.0	1.0	0.0						2019.303524499992	2026.5617746999487	2026.5617746999487	2.0	['2', 'return']	[2.1588246999308467, 2.934684199979529]	7.25	5.56	1.0	controle	low_pain	41.8			sub-034	250	34	41.8	44.7	COM11	COM15	COM3	2024-05-07_13h45.41.546	001-EEG_SVR_Officel	2022.2.5	143.44814930472273		7.246000000000095	2_sub-pilot034_SVR_EEG_block5-6.protocol.csv	step5	952	94.822	STIMULATE	41.7	41.6	41.6	41.6	41.7	5	2010.723
2004.952	0	1002476	CN/Lo	11	4	0	4	0	1.0	0.0	1.0	0.0						2019.303524499992	2026.5617746999487	2026.5617746999487	2.0	['2', 'return']	[2.1588246999308467, 2.934684199979529]	7.25	5.56	1.0	controle	low_pain	41.8			sub-034	250	34	41.8	44.7	COM11	COM15	COM3	2024-05-07_13h45.41.546	001-EEG_SVR_Officel	2022.2.5	143.44814930472273		5.561999999999898	2_sub-pilot034_SVR_EEG_block5-6.protocol.csv	step5	952	94.822	STIMULATE	41.7	41.6	41.6	41.6	41.7	5	2010.723
2014.598	0	1007299	wait	20	4	0	4	0	2.0	0.0	2.0	0.0						2042.508106000023	2048.849241100019	2048.849241100019	1.5	['1', 'a', '5', 'return']	[1.760424300096929, 1.9534049001522362, 2.4804905999917537, 3.336953700054437]	6.33	5.05	2.0	40hz	low_pain	41.8			sub-034	250	34	41.8	44.7	COM11	COM15	COM3	2024-05-07_13h45.41.546	001-EEG_SVR_Officel	2022.2.5	143.44814930472273		10.395999999999958	2_sub-pilot034_SVR_EEG_block5-6.protocol.csv	step7	1172	116.652	STIMULATE	41.7	41.6	41.6	41.6	41.6	7	2032.553
2020.928	0	1010464	40hz	9	4	0	4	0	2.0	0.0	2.0	0.0						2042.508106000023	2048.849241100019	2048.849241100019	1.5	['1', 'a', '5', 'return']	[1.760424300096929, 1.9534049001522362, 2.4804905999917537, 3.336953700054437]	6.33	5.05	2.0	40hz	low_pain	41.8			sub-034	250	34	41.8	44.7	COM11	COM15	COM3	2024-05-07_13h45.41.546	001-EEG_SVR_Officel	2022.2.5	143.44814930472273		6.330000000000155	2_sub-pilot034_SVR_EEG_block5-6.protocol.csv	step7	1172	116.652	STIMULATE	41.7	41.6	41.6	41.6	41.6	7	2032.553
2026.734	0	1013367	40/Lo	8	4	0	4	0	2.0	0.0	2.0	0.0						2042.508106000023	2048.849241100019	2048.849241100019	1.5	['1', 'a', '5', 'return']	[1.760424300096929, 1.9534049001522362, 2.4804905999917537, 3.336953700054437]	6.33	5.05	2.0	40hz	low_pain	41.8			sub-034	250	34	41.8	44.7	COM11	COM15	COM3	2024-05-07_13h45.41.546	001-EEG_SVR_Officel	2022.2.5	143.44814930472273		5.055999999999813	2_sub-pilot034_SVR_EEG_block5-6.protocol.csv	step7	1172	116.652	STIMULATE	41.7	41.6	41.6	41.6	41.6	7	2032.553
2037.29	0	1018645	wait	20	4	0	4	0	3.0	0.0	3.0	0.0						2065.1987683000043	2070.908026400022	2070.908026400022	2.5	['2', 'a', '5', 'return']	[2.3253073000814766, 2.4552287000697106, 2.9809958001133054, 3.918385700089857]	5.7	5.29	3.0	controle	low_pain	41.8			sub-034	250	34	41.8	44.7	COM11	COM15	COM3	2024-05-07_13h45.41.546	001-EEG_SVR_Officel	2022.2.5	143.44814930472273		11.30600000000004	2_sub-pilot034_SVR_EEG_block5-6.protocol.csv	step9	1397	138.954	STIMULATE	41.7	41.6	41.6	41.6	41.7	9	2054.855
2042.986	0	1021493	CNhz	12	4	0	4	0	3.0	0.0	3.0	0.0						2065.1987683000043	2070.908026400022	2070.908026400022	2.5	['2', 'a', '5', 'return']	[2.3253073000814766, 2.4552287000697106, 2.9809958001133054, 3.918385700089857]	5.7	5.29	3.0	controle	low_pain	41.8			sub-034	250	34	41.8	44.7	COM11	COM15	COM3	2024-05-07_13h45.41.546	001-EEG_SVR_Officel	2022.2.5	143.44814930472273		5.69600000000014	2_sub-pilot034_SVR_EEG_block5-6.protocol.csv	step9	1397	138.954	STIMULATE	41.7	41.6	41.6	41.6	41.7	9	2054.855
2049.028	0	1024513	CN/Lo	11	4	0	4	0	3.0	0.0	3.0	0.0						2065.1987683000043	2070.908026400022	2070.908026400022	2.5	['2', 'a', '5', 'return']	[2.3253073000814766, 2.4552287000697106, 2.9809958001133054, 3.918385700089857]	5.7	5.29	3.0	controle	low_pain	41.8			sub-034	250	34	41.8	44.7	COM11	COM15	COM3	2024-05-07_13h45.41.546	001-EEG_SVR_Officel	2022.2.5	143.44814930472273		5.291999999999689	2_sub-pilot034_SVR_EEG_block5-6.protocol.csv	step9	1397	138.954	STIMULATE	41.7	41.6	41.6	41.6	41.7	9	2054.855
2059.938	0	1029969	wait	20	4	0	4	0	4.0	0.0	4.0	0.0						2087.846989699872	2093.555867200019	2093.555867200019	5.0	['5', 'return']	[2.4126740000210702, 3.1412790999747813]	5.7	5.58	0.0	controle	high_pain	44.7			sub-034	250	34	41.8	44.7	COM11	COM15	COM3	2024-05-07_13h45.41.546	001-EEG_SVR_Officel	2022.2.5	143.44814930472273		11.66000000000031	2_sub-pilot034_SVR_EEG_block5-6.protocol.csv	step11	1628	161.841	STIMULATE	44.7	44.6	44.6	44.6	44.7	11	2077.742
