onset	duration	sample	trial_type	value	block.thisRepN	block.thisTrialN	block.thisN	block.thisIndex	reps.thisRepN	reps.thisTrialN	reps.thisN	reps.thisIndex	afrec_start	rec_start	rec_start_egi	key_resp.keys	key_resp.rt	wait_time_text.started	wait_time_text.stopped	therm_loca_text.started	subResponse	keyResp.keys	keyResp.rt	ITI_wait	wait_trigger	loca_thermode	Hz_condition	temp_condition	temp_valeur	text.started	text.stopped	participant	brightness	num_part	low	high	com_svr	com_thermode	com_eeg	date	expName	psychopyVersion	frameRate	Unnamed: 39	distance_from_previous	file	step	index	time	type	temp1	temp2	temp3	temp4	temp5	step_num	time_sync
4.748	0	2374	wait	20	0	0	0	0	0.0	0.0	0.0	0.0	109.95227919999888	109.56530289999864	1710870705.256806	p	4.421293599996716	114.40698369999882	119.54550619999644	119.54550619999644	6.3	['6', 'a', '3', 'return']	[5.425727000001643, 5.937812900003337, 6.082174600000144, 6.953746500003035]	5.13	6.43	0.0	40hz	high_pain	47.8			sub-027	250	27	45.7	47.8	COM11	COM16	COM3	2024-03-19_13h50.28.656	001-EEG_SVR_Officel	2022.2.5	144.48298929358614		4.748	0_sub-pilot027_SVR_EEG_block1-2.protocol.csv	step3	971	96.963	STIMULATE	48.0	47.8	47.8	47.8	47.9	3	22.791999999999998
9.782	0	4891	40hz	9	0	0	0	0	0.0	0.0	0.0	0.0	109.95227919999888	109.56530289999864	1710870705.256806	p	4.421293599996716	114.40698369999882	119.54550619999644	119.54550619999644	6.3	['6', 'a', '3', 'return']	[5.425727000001643, 5.937812900003337, 6.082174600000144, 6.953746500003035]	5.13	6.43	0.0	40hz	high_pain	47.8			sub-027	250	27	45.7	47.8	COM11	COM16	COM3	2024-03-19_13h50.28.656	001-EEG_SVR_Officel	2022.2.5	144.48298929358614		5.034	0_sub-pilot027_SVR_EEG_block1-2.protocol.csv	step3	971	96.963	STIMULATE	48.0	47.8	47.8	47.8	47.9	3	22.791999999999998
16.962	0	8481	40/Hi	7	0	0	0	0	0.0	0.0	0.0	0.0	109.95227919999888	109.56530289999864	1710870705.256806	p	4.421293599996716	114.40698369999882	119.54550619999644	119.54550619999644	6.3	['6', 'a', '3', 'return']	[5.425727000001643, 5.937812900003337, 6.082174600000144, 6.953746500003035]	5.13	6.43	0.0	40hz	high_pain	47.8			sub-027	250	27	45.7	47.8	COM11	COM16	COM3	2024-03-19_13h50.28.656	001-EEG_SVR_Officel	2022.2.5	144.48298929358614		6.43	0_sub-pilot027_SVR_EEG_block1-2.protocol.csv	step3	971	96.963	STIMULATE	48.0	47.8	47.8	47.8	47.9	3	22.791999999999998
29.77	0	14885	wait	20	0	0	0	0	1.0	0.0	1.0	0.0						139.52001329999985	145.93054940000002	145.93054940000002	6.8	['6', 'a', '8', 'return']	[6.746427199999744, 7.304599099999905, 7.664807599998312, 8.681597999999212]	6.4	5.37	1.0	40hz	high_pain	47.8			sub-027	250	27	45.7	47.8	COM11	COM16	COM3	2024-03-19_13h50.28.656	001-EEG_SVR_Officel	2022.2.5	144.48298929358614		13.558	0_sub-pilot027_SVR_EEG_block1-2.protocol.csv	step5	1226	122.224	STIMULATE	48.1	47.8	47.8	47.8	48.0	5	48.05300000000001
36.168	0	18084	40hz	9	0	0	0	0	1.0	0.0	1.0	0.0						139.52001329999985	145.93054940000002	145.93054940000002	6.8	['6', 'a', '8', 'return']	[6.746427199999744, 7.304599099999905, 7.664807599998312, 8.681597999999212]	6.4	5.37	1.0	40hz	high_pain	47.8			sub-027	250	27	45.7	47.8	COM11	COM16	COM3	2024-03-19_13h50.28.656	001-EEG_SVR_Officel	2022.2.5	144.48298929358614		6.398	0_sub-pilot027_SVR_EEG_block1-2.protocol.csv	step5	1226	122.224	STIMULATE	48.1	47.8	47.8	47.8	48.0	5	48.05300000000001
42.29	0	21145	40/Hi	7	0	0	0	0	1.0	0.0	1.0	0.0						139.52001329999985	145.93054940000002	145.93054940000002	6.8	['6', 'a', '8', 'return']	[6.746427199999744, 7.304599099999905, 7.664807599998312, 8.681597999999212]	6.4	5.37	1.0	40hz	high_pain	47.8			sub-027	250	27	45.7	47.8	COM11	COM16	COM3	2024-03-19_13h50.28.656	001-EEG_SVR_Officel	2022.2.5	144.48298929358614		5.372	0_sub-pilot027_SVR_EEG_block1-2.protocol.csv	step5	1226	122.224	STIMULATE	48.1	47.8	47.8	47.8	48.0	5	48.05300000000001
57.878	0	28939	wait	20	0	0	0	0	2.0	0.0	2.0	0.0						167.6279332999984	175.61509339999975	175.61509339999975	6.0	['6', 'return']	[9.181994500002475, 10.339853299999959]	7.98	5.58	2.0	20hz	low_pain	45.7			sub-027	250	27	45.7	47.8	COM11	COM16	COM3	2024-03-19_13h50.28.656	001-EEG_SVR_Officel	2022.2.5	144.48298929358614		16.338	0_sub-pilot027_SVR_EEG_block1-2.protocol.csv	step7	1528	152.228	STIMULATE	45.7	45.6	45.6	45.7	45.7	7	78.05700000000002
65.852	0	32926	20hz	6	0	0	0	0	2.0	0.0	2.0	0.0						167.6279332999984	175.61509339999975	175.61509339999975	6.0	['6', 'return']	[9.181994500002475, 10.339853299999959]	7.98	5.58	2.0	20hz	low_pain	45.7			sub-027	250	27	45.7	47.8	COM11	COM16	COM3	2024-03-19_13h50.28.656	001-EEG_SVR_Officel	2022.2.5	144.48298929358614		7.974000000000004	0_sub-pilot027_SVR_EEG_block1-2.protocol.csv	step7	1528	152.228	STIMULATE	45.7	45.6	45.6	45.7	45.7	7	78.05700000000002
72.184	0	36092	20/Lo	5	0	0	0	0	2.0	0.0	2.0	0.0						167.6279332999984	175.61509339999975	175.61509339999975	6.0	['6', 'return']	[9.181994500002475, 10.339853299999959]	7.98	5.58	2.0	20hz	low_pain	45.7			sub-027	250	27	45.7	47.8	COM11	COM16	COM3	2024-03-19_13h50.28.656	001-EEG_SVR_Officel	2022.2.5	144.48298929358614		5.581999999999994	0_sub-pilot027_SVR_EEG_block1-2.protocol.csv	step7	1528	152.228	STIMULATE	45.7	45.6	45.6	45.7	45.7	7	78.05700000000002
89.22	0	44610	wait	20	0	0	0	0	3.0	0.0	3.0	0.0						198.97183239999868	205.11133179999888	205.11133179999888	8.0	['8', 'return']	[6.300495000003139, 8.908935300001758]	6.13	5.92	3.0	40hz	high_pain	47.8			sub-027	250	27	45.7	47.8	COM11	COM16	COM3	2024-03-19_13h50.28.656	001-EEG_SVR_Officel	2022.2.5	144.48298929358614		17.786	0_sub-pilot027_SVR_EEG_block1-2.protocol.csv	step9	1828	182.011	STIMULATE	47.8	47.7	47.7	47.8	47.7	9	107.84
95.348	0	47674	40hz	9	0	0	0	0	3.0	0.0	3.0	0.0						198.97183239999868	205.11133179999888	205.11133179999888	8.0	['8', 'return']	[6.300495000003139, 8.908935300001758]	6.13	5.92	3.0	40hz	high_pain	47.8			sub-027	250	27	45.7	47.8	COM11	COM16	COM3	2024-03-19_13h50.28.656	001-EEG_SVR_Officel	2022.2.5	144.48298929358614		6.128	0_sub-pilot027_SVR_EEG_block1-2.protocol.csv	step9	1828	182.011	STIMULATE	47.8	47.7	47.7	47.8	47.7	9	107.84
102.02	0	51010	40/Hi	7	0	0	0	0	3.0	0.0	3.0	0.0						198.97183239999868	205.11133179999888	205.11133179999888	8.0	['8', 'return']	[6.300495000003139, 8.908935300001758]	6.13	5.92	3.0	40hz	high_pain	47.8			sub-027	250	27	45.7	47.8	COM11	COM16	COM3	2024-03-19_13h50.28.656	001-EEG_SVR_Officel	2022.2.5	144.48298929358614		5.921999999999997	0_sub-pilot027_SVR_EEG_block1-2.protocol.csv	step9	1828	182.011	STIMULATE	47.8	47.7	47.7	47.8	47.7	9	107.84
117.286	0	58643	wait	20	0	0	0	0	4.0	0.0	4.0	0.0						227.03768379999747	232.42712619999656	232.42712619999656	3.5	['3', 'a', '5', 'return']	[3.5287754999990284, 4.720978599998489, 4.993744100000185, 5.833440499998687]	5.38	5.24	0.0	40hz	low_pain	45.7			sub-027	250	27	45.7	47.8	COM11	COM16	COM3	2024-03-19_13h50.28.656	001-EEG_SVR_Officel	2022.2.5	144.48298929358614		16.016000000000005	0_sub-pilot027_SVR_EEG_block1-2.protocol.csv	step11	2096	208.66	STIMULATE	46.0	45.6	45.6	45.6	45.9	11	134.489
122.666	0	61333	40hz	9	0	0	0	0	4.0	0.0	4.0	0.0						227.03768379999747	232.42712619999656	232.42712619999656	3.5	['3', 'a', '5', 'return']	[3.5287754999990284, 4.720978599998489, 4.993744100000185, 5.833440499998687]	5.38	5.24	0.0	40hz	low_pain	45.7			sub-027	250	27	45.7	47.8	COM11	COM16	COM3	2024-03-19_13h50.28.656	001-EEG_SVR_Officel	2022.2.5	144.48298929358614		5.3799999999999955	0_sub-pilot027_SVR_EEG_block1-2.protocol.csv	step11	2096	208.66	STIMULATE	46.0	45.6	45.6	45.6	45.9	11	134.489
128.654	0	64327	40/Lo	8	0	0	0	0	4.0	0.0	4.0	0.0						227.03768379999747	232.42712619999656	232.42712619999656	3.5	['3', 'a', '5', 'return']	[3.5287754999990284, 4.720978599998489, 4.993744100000185, 5.833440499998687]	5.38	5.24	0.0	40hz	low_pain	45.7			sub-027	250	27	45.7	47.8	COM11	COM16	COM3	2024-03-19_13h50.28.656	001-EEG_SVR_Officel	2022.2.5	144.48298929358614		5.2379999999999995	0_sub-pilot027_SVR_EEG_block1-2.protocol.csv	step11	2096	208.66	STIMULATE	46.0	45.6	45.6	45.6	45.9	11	134.489
141.53	0	70765	wait	20	0	0	0	0	5.0	0.0	5.0	0.0						251.28361829999997	256.7008537999973	256.7008537999973	2.0	['2', 'return']	[5.046460999998089, 5.958168099998147]	5.41	6.45	1.0	20hz	low_pain	45.7			sub-027	250	27	45.7	47.8	COM11	COM16	COM3	2024-03-19_13h50.28.656	001-EEG_SVR_Officel	2022.2.5	144.48298929358614		13.626000000000005	0_sub-pilot027_SVR_EEG_block1-2.protocol.csv	step13	2354	234.22	STIMULATE	45.8	45.6	45.6	45.6	45.8	13	160.04899999999998
146.936	0	73468	20hz	6	0	0	0	0	5.0	0.0	5.0	0.0						251.28361829999997	256.7008537999973	256.7008537999973	2.0	['2', 'return']	[5.046460999998089, 5.958168099998147]	5.41	6.45	1.0	20hz	low_pain	45.7			sub-027	250	27	45.7	47.8	COM11	COM16	COM3	2024-03-19_13h50.28.656	001-EEG_SVR_Officel	2022.2.5	144.48298929358614		5.406000000000006	0_sub-pilot027_SVR_EEG_block1-2.protocol.csv	step13	2354	234.22	STIMULATE	45.8	45.6	45.6	45.6	45.8	13	160.04899999999998
154.136	0	77068	20/Lo	5	0	0	0	0	5.0	0.0	5.0	0.0						251.28361829999997	256.7008537999973	256.7008537999973	2.0	['2', 'return']	[5.046460999998089, 5.958168099998147]	5.41	6.45	1.0	20hz	low_pain	45.7			sub-027	250	27	45.7	47.8	COM11	COM16	COM3	2024-03-19_13h50.28.656	001-EEG_SVR_Officel	2022.2.5	144.48298929358614		6.449999999999989	0_sub-pilot027_SVR_EEG_block1-2.protocol.csv	step13	2354	234.22	STIMULATE	45.8	45.6	45.6	45.6	45.8	13	160.04899999999998
165.924	0	82962	wait	20	0	0	0	0	6.0	0.0	6.0	0.0						275.6758471999965	281.5029184999985	281.5029184999985	5.5	['5', 'a', '5', 'return']	[4.5492890999994415, 5.284514099999797, 5.516513300000952, 6.821569299998373]	5.82	6.2	2.0	40hz	low_pain	45.7			sub-027	250	27	45.7	47.8	COM11	COM16	COM3	2024-03-19_13h50.28.656	001-EEG_SVR_Officel	2022.2.5	144.48298929358614		12.538000000000011	0_sub-pilot027_SVR_EEG_block1-2.protocol.csv	step15	2600	258.609	STIMULATE	45.6	45.6	45.6	45.7	45.7	15	184.438
171.738	0	85869	40hz	9	0	0	0	0	6.0	0.0	6.0	0.0						275.6758471999965	281.5029184999985	281.5029184999985	5.5	['5', 'a', '5', 'return']	[4.5492890999994415, 5.284514099999797, 5.516513300000952, 6.821569299998373]	5.82	6.2	2.0	40hz	low_pain	45.7			sub-027	250	27	45.7	47.8	COM11	COM16	COM3	2024-03-19_13h50.28.656	001-EEG_SVR_Officel	2022.2.5	144.48298929358614		5.813999999999993	0_sub-pilot027_SVR_EEG_block1-2.protocol.csv	step15	2600	258.609	STIMULATE	45.6	45.6	45.6	45.7	45.7	15	184.438
178.688	0	89344	40/Lo	8	0	0	0	0	6.0	0.0	6.0	0.0						275.6758471999965	281.5029184999985	281.5029184999985	5.5	['5', 'a', '5', 'return']	[4.5492890999994415, 5.284514099999797, 5.516513300000952, 6.821569299998373]	5.82	6.2	2.0	40hz	low_pain	45.7			sub-027	250	27	45.7	47.8	COM11	COM16	COM3	2024-03-19_13h50.28.656	001-EEG_SVR_Officel	2022.2.5	144.48298929358614		6.199999999999989	0_sub-pilot027_SVR_EEG_block1-2.protocol.csv	step15	2600	258.609	STIMULATE	45.6	45.6	45.6	45.7	45.7	15	184.438
191.592	0	95796	wait	20	0	0	0	0	7.0	0.0	7.0	0.0						301.34522229999857	309.14472549999846	309.14472549999846	6.5	['6', 'a', '5', 'return']	[5.6351638000014646, 6.001715099999274, 6.25044600000183, 7.010596200001601]	7.79	5.41	3.0	controle	high_pain	47.8			sub-027	250	27	45.7	47.8	COM11	COM16	COM3	2024-03-19_13h50.28.656	001-EEG_SVR_Officel	2022.2.5	144.48298929358614		13.654000000000025	0_sub-pilot027_SVR_EEG_block1-2.protocol.csv	step17	2871	285.564	STIMULATE	47.8	47.8	47.8	47.7	47.8	17	211.39300000000003
199.38	0	99690	CNhz	12	0	0	0	0	7.0	0.0	7.0	0.0						301.34522229999857	309.14472549999846	309.14472549999846	6.5	['6', 'a', '5', 'return']	[5.6351638000014646, 6.001715099999274, 6.25044600000183, 7.010596200001601]	7.79	5.41	3.0	controle	high_pain	47.8			sub-027	250	27	45.7	47.8	COM11	COM16	COM3	2024-03-19_13h50.28.656	001-EEG_SVR_Officel	2022.2.5	144.48298929358614		7.7879999999999825	0_sub-pilot027_SVR_EEG_block1-2.protocol.csv	step17	2871	285.564	STIMULATE	47.8	47.8	47.8	47.7	47.8	17	211.39300000000003
205.538	0	102769	CN/Hi	10	0	0	0	0	7.0	0.0	7.0	0.0						301.34522229999857	309.14472549999846	309.14472549999846	6.5	['6', 'a', '5', 'return']	[5.6351638000014646, 6.001715099999274, 6.25044600000183, 7.010596200001601]	7.79	5.41	3.0	controle	high_pain	47.8			sub-027	250	27	45.7	47.8	COM11	COM16	COM3	2024-03-19_13h50.28.656	001-EEG_SVR_Officel	2022.2.5	144.48298929358614		5.4080000000000155	0_sub-pilot027_SVR_EEG_block1-2.protocol.csv	step17	2871	285.564	STIMULATE	47.8	47.8	47.8	47.7	47.8	17	211.39300000000003
219.414	0	109707	wait	20	0	0	0	0	8.0	0.0	8.0	0.0						329.1675077999971	336.4468889999989	336.4468889999989	6.5	['6', 'a', '5', 'return']	[6.0527968000023975, 6.26107630000115, 6.477459400000953, 7.701626500002021]	7.27	5.93	0.0	10hz	high_pain	47.8			sub-027	250	27	45.7	47.8	COM11	COM16	COM3	2024-03-19_13h50.28.656	001-EEG_SVR_Officel	2022.2.5	144.48298929358614		14.625999999999976	0_sub-pilot027_SVR_EEG_block1-2.protocol.csv	step19	3151	313.342	STIMULATE	48.1	47.8	47.8	47.8	48.1	19	239.171
226.682	0	113341	10hz	3	0	0	0	0	8.0	0.0	8.0	0.0						329.1675077999971	336.4468889999989	336.4468889999989	6.5	['6', 'a', '5', 'return']	[6.0527968000023975, 6.26107630000115, 6.477459400000953, 7.701626500002021]	7.27	5.93	0.0	10hz	high_pain	47.8			sub-027	250	27	45.7	47.8	COM11	COM16	COM3	2024-03-19_13h50.28.656	001-EEG_SVR_Officel	2022.2.5	144.48298929358614		7.268000000000001	0_sub-pilot027_SVR_EEG_block1-2.protocol.csv	step19	3151	313.342	STIMULATE	48.1	47.8	47.8	47.8	48.1	19	239.171
233.36	0	116680	10/Hi	1	0	0	0	0	8.0	0.0	8.0	0.0						329.1675077999971	336.4468889999989	336.4468889999989	6.5	['6', 'a', '5', 'return']	[6.0527968000023975, 6.26107630000115, 6.477459400000953, 7.701626500002021]	7.27	5.93	0.0	10hz	high_pain	47.8			sub-027	250	27	45.7	47.8	COM11	COM16	COM3	2024-03-19_13h50.28.656	001-EEG_SVR_Officel	2022.2.5	144.48298929358614		5.928000000000026	0_sub-pilot027_SVR_EEG_block1-2.protocol.csv	step19	3151	313.342	STIMULATE	48.1	47.8	47.8	47.8	48.1	19	239.171
247.404	0	123702	wait	20	0	0	0	0	9.0	0.0	9.0	0.0						357.15710189999663	364.0473017999975	364.0473017999975	5.8	['5', 'a', '8', 'return']	[4.836470599999302, 5.156083300000319, 5.523721800000203, 6.557219800000894]	6.88	5.8	1.0	40hz	low_pain	45.7			sub-027	250	27	45.7	47.8	COM11	COM16	COM3	2024-03-19_13h50.28.656	001-EEG_SVR_Officel	2022.2.5	144.48298929358614		14.793999999999983	0_sub-pilot027_SVR_EEG_block1-2.protocol.csv	step21	3428	340.898	STIMULATE	45.7	45.6	45.6	45.6	46.0	21	266.72700000000003
254.282	0	127141	40hz	9	0	0	0	0	9.0	0.0	9.0	0.0						357.15710189999663	364.0473017999975	364.0473017999975	5.8	['5', 'a', '8', 'return']	[4.836470599999302, 5.156083300000319, 5.523721800000203, 6.557219800000894]	6.88	5.8	1.0	40hz	low_pain	45.7			sub-027	250	27	45.7	47.8	COM11	COM16	COM3	2024-03-19_13h50.28.656	001-EEG_SVR_Officel	2022.2.5	144.48298929358614		6.878000000000014	0_sub-pilot027_SVR_EEG_block1-2.protocol.csv	step21	3428	340.898	STIMULATE	45.7	45.6	45.6	45.6	46.0	21	266.72700000000003
260.836	0	130418	40/Lo	8	0	0	0	0	9.0	0.0	9.0	0.0						357.15710189999663	364.0473017999975	364.0473017999975	5.8	['5', 'a', '8', 'return']	[4.836470599999302, 5.156083300000319, 5.523721800000203, 6.557219800000894]	6.88	5.8	1.0	40hz	low_pain	45.7			sub-027	250	27	45.7	47.8	COM11	COM16	COM3	2024-03-19_13h50.28.656	001-EEG_SVR_Officel	2022.2.5	144.48298929358614		5.804000000000002	0_sub-pilot027_SVR_EEG_block1-2.protocol.csv	step21	3428	340.898	STIMULATE	45.7	45.6	45.6	45.6	46.0	21	266.72700000000003
273.866	0	136933	wait	20	0	0	0	0	10.0	0.0	10.0	0.0						383.6184568999997	390.5364502999983	390.5364502999983	8.5	['8', 'a', '5', 'return']	[6.2268697999970755, 6.83501079999769, 7.162649599998986, 7.9386539999977686]	6.91	5.51	2.0	10hz	high_pain	47.8			sub-027	250	27	45.7	47.8	COM11	COM16	COM3	2024-03-19_13h50.28.656	001-EEG_SVR_Officel	2022.2.5	144.48298929358614		13.779999999999973	0_sub-pilot027_SVR_EEG_block1-2.protocol.csv	step23	3692	367.087	STIMULATE	47.9	47.8	47.8	47.8	47.8	23	292.916
280.77	0	140385	10hz	3	0	0	0	0	10.0	0.0	10.0	0.0						383.6184568999997	390.5364502999983	390.5364502999983	8.5	['8', 'a', '5', 'return']	[6.2268697999970755, 6.83501079999769, 7.162649599998986, 7.9386539999977686]	6.91	5.51	2.0	10hz	high_pain	47.8			sub-027	250	27	45.7	47.8	COM11	COM16	COM3	2024-03-19_13h50.28.656	001-EEG_SVR_Officel	2022.2.5	144.48298929358614		6.903999999999996	0_sub-pilot027_SVR_EEG_block1-2.protocol.csv	step23	3692	367.087	STIMULATE	47.9	47.8	47.8	47.8	47.8	23	292.916
287.034	0	143517	10/Hi	1	0	0	0	0	10.0	0.0	10.0	0.0						383.6184568999997	390.5364502999983	390.5364502999983	8.5	['8', 'a', '5', 'return']	[6.2268697999970755, 6.83501079999769, 7.162649599998986, 7.9386539999977686]	6.91	5.51	2.0	10hz	high_pain	47.8			sub-027	250	27	45.7	47.8	COM11	COM16	COM3	2024-03-19_13h50.28.656	001-EEG_SVR_Officel	2022.2.5	144.48298929358614		5.51400000000001	0_sub-pilot027_SVR_EEG_block1-2.protocol.csv	step23	3692	367.087	STIMULATE	47.9	47.8	47.8	47.8	47.8	23	292.916
301.744	0	150872	wait	20	0	0	0	0	11.0	0.0	11.0	0.0						411.4977469999976	418.13081149999925	418.13081149999925	7.5	['7', 'a', '5', 'return']	[3.9772172999983013, 4.433789999999135, 4.817134100001567, 6.9370587000012165]	6.62	5.54	3.0	20hz	high_pain	47.8			sub-027	250	27	45.7	47.8	COM11	COM16	COM3	2024-03-19_13h50.28.656	001-EEG_SVR_Officel	2022.2.5	144.48298929358614		15.460000000000036	0_sub-pilot027_SVR_EEG_block1-2.protocol.csv	step25	3970	394.645	STIMULATE	47.8	47.8	47.8	47.8	47.8	25	320.474
308.364	0	154182	20hz	6	0	0	0	0	11.0	0.0	11.0	0.0						411.4977469999976	418.13081149999925	418.13081149999925	7.5	['7', 'a', '5', 'return']	[3.9772172999983013, 4.433789999999135, 4.817134100001567, 6.9370587000012165]	6.62	5.54	3.0	20hz	high_pain	47.8			sub-027	250	27	45.7	47.8	COM11	COM16	COM3	2024-03-19_13h50.28.656	001-EEG_SVR_Officel	2022.2.5	144.48298929358614		6.619999999999948	0_sub-pilot027_SVR_EEG_block1-2.protocol.csv	step25	3970	394.645	STIMULATE	47.8	47.8	47.8	47.8	47.8	25	320.474
314.654	0	157327	20/Hi	4	0	0	0	0	11.0	0.0	11.0	0.0						411.4977469999976	418.13081149999925	418.13081149999925	7.5	['7', 'a', '5', 'return']	[3.9772172999983013, 4.433789999999135, 4.817134100001567, 6.9370587000012165]	6.62	5.54	3.0	20hz	high_pain	47.8			sub-027	250	27	45.7	47.8	COM11	COM16	COM3	2024-03-19_13h50.28.656	001-EEG_SVR_Officel	2022.2.5	144.48298929358614		5.5400000000000205	0_sub-pilot027_SVR_EEG_block1-2.protocol.csv	step25	3970	394.645	STIMULATE	47.8	47.8	47.8	47.8	47.8	25	320.474
328.33	0	164165	wait	20	0	0	0	0	12.0	0.0	12.0	0.0						438.0838288999985	443.563731899998	443.563731899998	3.0	['3', 'return']	[4.1441435999986425, 4.920188500000222]	5.47	5.99	0.0	controle	low_pain	45.7			sub-027	250	27	45.7	47.8	COM11	COM16	COM3	2024-03-19_13h50.28.656	001-EEG_SVR_Officel	2022.2.5	144.48298929358614		14.425999999999988	0_sub-pilot027_SVR_EEG_block1-2.protocol.csv	step27	4231	420.564	STIMULATE	46.0	45.6	45.6	45.6	45.8	27	346.39300000000003
333.798	0	166899	CNhz	12	0	0	0	0	12.0	0.0	12.0	0.0						438.0838288999985	443.563731899998	443.563731899998	3.0	['3', 'return']	[4.1441435999986425, 4.920188500000222]	5.47	5.99	0.0	controle	low_pain	45.7			sub-027	250	27	45.7	47.8	COM11	COM16	COM3	2024-03-19_13h50.28.656	001-EEG_SVR_Officel	2022.2.5	144.48298929358614		5.468000000000018	0_sub-pilot027_SVR_EEG_block1-2.protocol.csv	step27	4231	420.564	STIMULATE	46.0	45.6	45.6	45.6	45.8	27	346.39300000000003
340.54	0	170270	CN/Lo	11	0	0	0	0	12.0	0.0	12.0	0.0						438.0838288999985	443.563731899998	443.563731899998	3.0	['3', 'return']	[4.1441435999986425, 4.920188500000222]	5.47	5.99	0.0	controle	low_pain	45.7			sub-027	250	27	45.7	47.8	COM11	COM16	COM3	2024-03-19_13h50.28.656	001-EEG_SVR_Officel	2022.2.5	144.48298929358614		5.992000000000019	0_sub-pilot027_SVR_EEG_block1-2.protocol.csv	step27	4231	420.564	STIMULATE	46.0	45.6	45.6	45.6	45.8	27	346.39300000000003
351.75	0	175875	wait	20	0	0	0	0	13.0	0.0	13.0	0.0						461.5034297999992	469.3029508999971	469.3029508999971	7.5	['7', 'a', '5', 'return']	[4.2131396000004315, 4.764932199999748, 5.612558799999533, 6.453013499998633]	7.79	5.64	1.0	controle	high_pain	47.8			sub-027	250	27	45.7	47.8	COM11	COM16	COM3	2024-03-19_13h50.28.656	001-EEG_SVR_Officel	2022.2.5	144.48298929358614		11.95999999999998	0_sub-pilot027_SVR_EEG_block1-2.protocol.csv	step29	4487	445.972	STIMULATE	48.1	47.8	47.8	47.8	47.9	29	371.801
359.536	0	179768	CNhz	12	0	0	0	0	13.0	0.0	13.0	0.0						461.5034297999992	469.3029508999971	469.3029508999971	7.5	['7', 'a', '5', 'return']	[4.2131396000004315, 4.764932199999748, 5.612558799999533, 6.453013499998633]	7.79	5.64	1.0	controle	high_pain	47.8			sub-027	250	27	45.7	47.8	COM11	COM16	COM3	2024-03-19_13h50.28.656	001-EEG_SVR_Officel	2022.2.5	144.48298929358614		7.786000000000001	0_sub-pilot027_SVR_EEG_block1-2.protocol.csv	step29	4487	445.972	STIMULATE	48.1	47.8	47.8	47.8	47.9	29	371.801
365.932	0	182966	CN/Hi	10	0	0	0	0	13.0	0.0	13.0	0.0						461.5034297999992	469.3029508999971	469.3029508999971	7.5	['7', 'a', '5', 'return']	[4.2131396000004315, 4.764932199999748, 5.612558799999533, 6.453013499998633]	7.79	5.64	1.0	controle	high_pain	47.8			sub-027	250	27	45.7	47.8	COM11	COM16	COM3	2024-03-19_13h50.28.656	001-EEG_SVR_Officel	2022.2.5	144.48298929358614		5.646000000000015	0_sub-pilot027_SVR_EEG_block1-2.protocol.csv	step29	4487	445.972	STIMULATE	48.1	47.8	47.8	47.8	47.9	29	371.801
379.016	0	189508	wait	20	0	0	0	0	14.0	0.0	14.0	0.0						488.7701538999973	495.13933309999993	495.13933309999993	8.7	['8', 'a', '7', 'return']	[5.623635700001614, 6.328490200001397, 7.99978430000192, 8.759750799999892]	6.36	5.27	2.0	40hz	high_pain	47.8			sub-027	250	27	45.7	47.8	COM11	COM16	COM3	2024-03-19_13h50.28.656	001-EEG_SVR_Officel	2022.2.5	144.48298929358614		13.834000000000003	0_sub-pilot027_SVR_EEG_block1-2.protocol.csv	step31	4744	471.444	STIMULATE	47.8	47.8	47.8	47.8	47.9	31	397.273
385.374	0	192687	40hz	9	0	0	0	0	14.0	0.0	14.0	0.0						488.7701538999973	495.13933309999993	495.13933309999993	8.7	['8', 'a', '7', 'return']	[5.623635700001614, 6.328490200001397, 7.99978430000192, 8.759750799999892]	6.36	5.27	2.0	40hz	high_pain	47.8			sub-027	250	27	45.7	47.8	COM11	COM16	COM3	2024-03-19_13h50.28.656	001-EEG_SVR_Officel	2022.2.5	144.48298929358614		6.358000000000004	0_sub-pilot027_SVR_EEG_block1-2.protocol.csv	step31	4744	471.444	STIMULATE	47.8	47.8	47.8	47.8	47.9	31	397.273
391.394	0	195697	40/Hi	7	0	0	0	0	14.0	0.0	14.0	0.0						488.7701538999973	495.13933309999993	495.13933309999993	8.7	['8', 'a', '7', 'return']	[5.623635700001614, 6.328490200001397, 7.99978430000192, 8.759750799999892]	6.36	5.27	2.0	40hz	high_pain	47.8			sub-027	250	27	45.7	47.8	COM11	COM16	COM3	2024-03-19_13h50.28.656	001-EEG_SVR_Officel	2022.2.5	144.48298929358614		5.269999999999982	0_sub-pilot027_SVR_EEG_block1-2.protocol.csv	step31	4744	471.444	STIMULATE	47.8	47.8	47.8	47.8	47.9	31	397.273
407.166	0	203583	wait	20	0	0	0	0	15.0	0.0	15.0	0.0						516.9201490999985	523.1014392999969	523.1014392999969	5.5	['5', 'a', '5', 'return']	[5.862416100000701, 6.317207799998869, 6.781772199999978, 7.566260600000533]	6.17	5.35	3.0	20hz	low_pain	45.7			sub-027	250	27	45.7	47.8	COM11	COM16	COM3	2024-03-19_13h50.28.656	001-EEG_SVR_Officel	2022.2.5	144.48298929358614		16.52199999999999	0_sub-pilot027_SVR_EEG_block1-2.protocol.csv	step33	5026	499.504	STIMULATE	45.7	45.6	45.6	45.6	45.7	33	425.333
413.334	0	206667	20hz	6	0	0	0	0	15.0	0.0	15.0	0.0						516.9201490999985	523.1014392999969	523.1014392999969	5.5	['5', 'a', '5', 'return']	[5.862416100000701, 6.317207799998869, 6.781772199999978, 7.566260600000533]	6.17	5.35	3.0	20hz	low_pain	45.7			sub-027	250	27	45.7	47.8	COM11	COM16	COM3	2024-03-19_13h50.28.656	001-EEG_SVR_Officel	2022.2.5	144.48298929358614		6.168000000000006	0_sub-pilot027_SVR_EEG_block1-2.protocol.csv	step33	5026	499.504	STIMULATE	45.7	45.6	45.6	45.6	45.7	33	425.333
419.438	0	209719	20/Lo	5	0	0	0	0	15.0	0.0	15.0	0.0						516.9201490999985	523.1014392999969	523.1014392999969	5.5	['5', 'a', '5', 'return']	[5.862416100000701, 6.317207799998869, 6.781772199999978, 7.566260600000533]	6.17	5.35	3.0	20hz	low_pain	45.7			sub-027	250	27	45.7	47.8	COM11	COM16	COM3	2024-03-19_13h50.28.656	001-EEG_SVR_Officel	2022.2.5	144.48298929358614		5.353999999999985	0_sub-pilot027_SVR_EEG_block1-2.protocol.csv	step33	5026	499.504	STIMULATE	45.7	45.6	45.6	45.6	45.7	33	425.333
493.676	0	246838	wait	20	1	0	1	0	0.0	0.0	0.0	0.0				p	1.484119799999462	603.4301293999997	608.5420910999965	608.5420910999965	2.5	['2', 'a', '5', 'return']	[4.07790169999862, 4.4221660000002885, 4.661741600000823, 6.213196299999254]	5.1	5.93	0.0	20hz	low_pain	45.7			sub-027	250	27	45.7	47.8	COM11	COM16	COM3	2024-03-19_13h50.28.656	001-EEG_SVR_Officel	2022.2.5	144.48298929358614		74.988	0_sub-pilot027_SVR_EEG_block1-2.protocol.csv	step35	5889	585.592	STIMULATE	46.0	45.6	45.6	45.6	46.0	35	511.378
498.774	0	249387	20hz	6	1	0	1	0	0.0	0.0	0.0	0.0				p	1.484119799999462	603.4301293999997	608.5420910999965	608.5420910999965	2.5	['2', 'a', '5', 'return']	[4.07790169999862, 4.4221660000002885, 4.661741600000823, 6.213196299999254]	5.1	5.93	0.0	20hz	low_pain	45.7			sub-027	250	27	45.7	47.8	COM11	COM16	COM3	2024-03-19_13h50.28.656	001-EEG_SVR_Officel	2022.2.5	144.48298929358614		5.098000000000013	0_sub-pilot027_SVR_EEG_block1-2.protocol.csv	step35	5889	585.592	STIMULATE	46.0	45.6	45.6	45.6	46.0	35	511.378
505.454	0	252727	20/Lo	5	1	0	1	0	0.0	0.0	0.0	0.0				p	1.484119799999462	603.4301293999997	608.5420910999965	608.5420910999965	2.5	['2', 'a', '5', 'return']	[4.07790169999862, 4.4221660000002885, 4.661741600000823, 6.213196299999254]	5.1	5.93	0.0	20hz	low_pain	45.7			sub-027	250	27	45.7	47.8	COM11	COM16	COM3	2024-03-19_13h50.28.656	001-EEG_SVR_Officel	2022.2.5	144.48298929358614		5.930000000000007	0_sub-pilot027_SVR_EEG_block1-2.protocol.csv	step35	5889	585.592	STIMULATE	46.0	45.6	45.6	45.6	46.0	35	511.378
518.018	0	259009	wait	20	1	0	1	0	1.0	0.0	1.0	0.0						627.7737034999991	635.3024791999997	635.3024791999997	5.0	['5', 'return']	[6.125546399998711, 6.965273999998317]	7.52	6.12	1.0	10hz	high_pain	47.8			sub-027	250	27	45.7	47.8	COM11	COM16	COM3	2024-03-19_13h50.28.656	001-EEG_SVR_Officel	2022.2.5	144.48298929358614		13.314000000000021	0_sub-pilot027_SVR_EEG_block1-2.protocol.csv	step37	6160	612.448	STIMULATE	48.1	47.8	47.8	47.8	48.1	37	538.2339999999999
525.534	0	262767	10hz	3	1	0	1	0	1.0	0.0	1.0	0.0						627.7737034999991	635.3024791999997	635.3024791999997	5.0	['5', 'return']	[6.125546399998711, 6.965273999998317]	7.52	6.12	1.0	10hz	high_pain	47.8			sub-027	250	27	45.7	47.8	COM11	COM16	COM3	2024-03-19_13h50.28.656	001-EEG_SVR_Officel	2022.2.5	144.48298929358614		7.515999999999963	0_sub-pilot027_SVR_EEG_block1-2.protocol.csv	step37	6160	612.448	STIMULATE	48.1	47.8	47.8	47.8	48.1	37	538.2339999999999
532.41	0	266205	10/Hi	1	1	0	1	0	1.0	0.0	1.0	0.0						627.7737034999991	635.3024791999997	635.3024791999997	5.0	['5', 'return']	[6.125546399998711, 6.965273999998317]	7.52	6.12	1.0	10hz	high_pain	47.8			sub-027	250	27	45.7	47.8	COM11	COM16	COM3	2024-03-19_13h50.28.656	001-EEG_SVR_Officel	2022.2.5	144.48298929358614		6.125999999999976	0_sub-pilot027_SVR_EEG_block1-2.protocol.csv	step37	6160	612.448	STIMULATE	48.1	47.8	47.8	47.8	48.1	37	538.2339999999999
545.53	0	272765	wait	20	1	0	1	0	2.0	0.0	2.0	0.0						655.2844416999978	660.3748929999965	660.3748929999965	8.3	['8', 'a', '3', 'return']	[4.980381200002739, 5.469876099999965, 6.0210948000021745, 6.861089199999697]	5.08	6.02	2.0	controle	high_pain	47.8			sub-027	250	27	45.7	47.8	COM11	COM16	COM3	2024-03-19_13h50.28.656	001-EEG_SVR_Officel	2022.2.5	144.48298929358614		13.870000000000005	0_sub-pilot027_SVR_EEG_block1-2.protocol.csv	step39	6412	637.467	STIMULATE	47.9	47.8	47.8	47.8	48.0	39	563.2529999999999
550.608	0	275304	CNhz	12	1	0	1	0	2.0	0.0	2.0	0.0						655.2844416999978	660.3748929999965	660.3748929999965	8.3	['8', 'a', '3', 'return']	[4.980381200002739, 5.469876099999965, 6.0210948000021745, 6.861089199999697]	5.08	6.02	2.0	controle	high_pain	47.8			sub-027	250	27	45.7	47.8	COM11	COM16	COM3	2024-03-19_13h50.28.656	001-EEG_SVR_Officel	2022.2.5	144.48298929358614		5.0779999999999745	0_sub-pilot027_SVR_EEG_block1-2.protocol.csv	step39	6412	637.467	STIMULATE	47.9	47.8	47.8	47.8	48.0	39	563.2529999999999
557.376	0	278688	CN/Hi	10	1	0	1	0	2.0	0.0	2.0	0.0						655.2844416999978	660.3748929999965	660.3748929999965	8.3	['8', 'a', '3', 'return']	[4.980381200002739, 5.469876099999965, 6.0210948000021745, 6.861089199999697]	5.08	6.02	2.0	controle	high_pain	47.8			sub-027	250	27	45.7	47.8	COM11	COM16	COM3	2024-03-19_13h50.28.656	001-EEG_SVR_Officel	2022.2.5	144.48298929358614		6.018000000000029	0_sub-pilot027_SVR_EEG_block1-2.protocol.csv	step39	6412	637.467	STIMULATE	47.9	47.8	47.8	47.8	48.0	39	563.2529999999999
570.49	0	285245	wait	20	1	0	1	0	3.0	0.0	3.0	0.0						680.2444832999972	685.8915357999977	685.8915357999977	8.5	['8', 'a', '5', 'return']	[3.8000663999991957, 4.248353599999973, 4.727889499998128, 6.480466799999704]	5.64	5.43	3.0	10hz	high_pain	47.8			sub-027	250	27	45.7	47.8	COM11	COM16	COM3	2024-03-19_13h50.28.656	001-EEG_SVR_Officel	2022.2.5	144.48298929358614		13.864000000000033	0_sub-pilot027_SVR_EEG_block1-2.protocol.csv	step41	6663	662.331	STIMULATE	47.8	47.8	47.8	47.8	47.9	41	588.117
576.124	0	288062	10hz	3	1	0	1	0	3.0	0.0	3.0	0.0						680.2444832999972	685.8915357999977	685.8915357999977	8.5	['8', 'a', '5', 'return']	[3.8000663999991957, 4.248353599999973, 4.727889499998128, 6.480466799999704]	5.64	5.43	3.0	10hz	high_pain	47.8			sub-027	250	27	45.7	47.8	COM11	COM16	COM3	2024-03-19_13h50.28.656	001-EEG_SVR_Officel	2022.2.5	144.48298929358614		5.6340000000000146	0_sub-pilot027_SVR_EEG_block1-2.protocol.csv	step41	6663	662.331	STIMULATE	47.8	47.8	47.8	47.8	47.9	41	588.117
582.304	0	291152	10/Hi	1	1	0	1	0	3.0	0.0	3.0	0.0						680.2444832999972	685.8915357999977	685.8915357999977	8.5	['8', 'a', '5', 'return']	[3.8000663999991957, 4.248353599999973, 4.727889499998128, 6.480466799999704]	5.64	5.43	3.0	10hz	high_pain	47.8			sub-027	250	27	45.7	47.8	COM11	COM16	COM3	2024-03-19_13h50.28.656	001-EEG_SVR_Officel	2022.2.5	144.48298929358614		5.42999999999995	0_sub-pilot027_SVR_EEG_block1-2.protocol.csv	step41	6663	662.331	STIMULATE	47.8	47.8	47.8	47.8	47.9	41	588.117
595.64	0	297820	wait	20	1	0	1	0	4.0	0.0	4.0	0.0						705.3937962999989	710.5332896	710.5332896	2.0	['2', 'return']	[3.6777605999996013, 4.438527400001476]	5.13	6.41	0.0	10hz	low_pain	45.7			sub-027	250	27	45.7	47.8	COM11	COM16	COM3	2024-03-19_13h50.28.656	001-EEG_SVR_Officel	2022.2.5	144.48298929358614		14.086000000000013	0_sub-pilot027_SVR_EEG_block1-2.protocol.csv	step43	6921	687.953	STIMULATE	45.9	45.9	45.6	45.6	45.7	43	613.739
600.766	0	300383	10hz	3	1	0	1	0	4.0	0.0	4.0	0.0						705.3937962999989	710.5332896	710.5332896	2.0	['2', 'return']	[3.6777605999996013, 4.438527400001476]	5.13	6.41	0.0	10hz	low_pain	45.7			sub-027	250	27	45.7	47.8	COM11	COM16	COM3	2024-03-19_13h50.28.656	001-EEG_SVR_Officel	2022.2.5	144.48298929358614		5.125999999999976	0_sub-pilot027_SVR_EEG_block1-2.protocol.csv	step43	6921	687.953	STIMULATE	45.9	45.9	45.6	45.6	45.7	43	613.739
607.924	0	303962	10/Lo	2	1	0	1	0	4.0	0.0	4.0	0.0						705.3937962999989	710.5332896	710.5332896	2.0	['2', 'return']	[3.6777605999996013, 4.438527400001476]	5.13	6.41	0.0	10hz	low_pain	45.7			sub-027	250	27	45.7	47.8	COM11	COM16	COM3	2024-03-19_13h50.28.656	001-EEG_SVR_Officel	2022.2.5	144.48298929358614		6.4080000000000155	0_sub-pilot027_SVR_EEG_block1-2.protocol.csv	step43	6921	687.953	STIMULATE	45.9	45.9	45.6	45.6	45.7	43	613.739
618.238	0	309119	wait	20	1	0	1	0	5.0	0.0	5.0	0.0						727.9937463999995	734.4461286999976	734.4461286999976	4.0	['4', 'return']	[3.373797399999603, 4.198211899998569]	6.44	5.95	1.0	10hz	low_pain	45.7			sub-027	250	27	45.7	47.8	COM11	COM16	COM3	2024-03-19_13h50.28.656	001-EEG_SVR_Officel	2022.2.5	144.48298929358614		11.064000000000078	0_sub-pilot027_SVR_EEG_block1-2.protocol.csv	step45	7159	711.502	STIMULATE	45.9	45.6	45.6	45.6	45.8	45	637.288
624.678	0	312339	10hz	3	1	0	1	0	5.0	0.0	5.0	0.0						727.9937463999995	734.4461286999976	734.4461286999976	4.0	['4', 'return']	[3.373797399999603, 4.198211899998569]	6.44	5.95	1.0	10hz	low_pain	45.7			sub-027	250	27	45.7	47.8	COM11	COM16	COM3	2024-03-19_13h50.28.656	001-EEG_SVR_Officel	2022.2.5	144.48298929358614		6.439999999999941	0_sub-pilot027_SVR_EEG_block1-2.protocol.csv	step45	7159	711.502	STIMULATE	45.9	45.6	45.6	45.6	45.8	45	637.288
631.378	0	315689	10/Lo	2	1	0	1	0	5.0	0.0	5.0	0.0						727.9937463999995	734.4461286999976	734.4461286999976	4.0	['4', 'return']	[3.373797399999603, 4.198211899998569]	6.44	5.95	1.0	10hz	low_pain	45.7			sub-027	250	27	45.7	47.8	COM11	COM16	COM3	2024-03-19_13h50.28.656	001-EEG_SVR_Officel	2022.2.5	144.48298929358614		5.9500000000000455	0_sub-pilot027_SVR_EEG_block1-2.protocol.csv	step45	7159	711.502	STIMULATE	45.9	45.6	45.6	45.6	45.8	45	637.288
641.9	0	320950	wait	20	1	0	1	0	6.0	0.0	6.0	0.0						751.6562397999987	757.2684996999997	757.2684996999997	8.0	['8', 'return']	[3.5744168999990507, 4.670900500001153]	5.6	5.78	2.0	20hz	high_pain	47.8			sub-027	250	27	45.7	47.8	COM11	COM16	COM3	2024-03-19_13h50.28.656	001-EEG_SVR_Officel	2022.2.5	144.48298929358614		11.271999999999935	0_sub-pilot027_SVR_EEG_block1-2.protocol.csv	step47	7387	734.149	STIMULATE	47.8	47.7	47.8	47.8	47.8	47	659.935
647.5	0	323750	20hz	6	1	0	1	0	6.0	0.0	6.0	0.0						751.6562397999987	757.2684996999997	757.2684996999997	8.0	['8', 'return']	[3.5744168999990507, 4.670900500001153]	5.6	5.78	2.0	20hz	high_pain	47.8			sub-027	250	27	45.7	47.8	COM11	COM16	COM3	2024-03-19_13h50.28.656	001-EEG_SVR_Officel	2022.2.5	144.48298929358614		5.600000000000023	0_sub-pilot027_SVR_EEG_block1-2.protocol.csv	step47	7387	734.149	STIMULATE	47.8	47.7	47.8	47.8	47.8	47	659.935
654.034	0	327017	20/Hi	4	1	0	1	0	6.0	0.0	6.0	0.0						751.6562397999987	757.2684996999997	757.2684996999997	8.0	['8', 'return']	[3.5744168999990507, 4.670900500001153]	5.6	5.78	2.0	20hz	high_pain	47.8			sub-027	250	27	45.7	47.8	COM11	COM16	COM3	2024-03-19_13h50.28.656	001-EEG_SVR_Officel	2022.2.5	144.48298929358614		5.783999999999992	0_sub-pilot027_SVR_EEG_block1-2.protocol.csv	step47	7387	734.149	STIMULATE	47.8	47.7	47.8	47.8	47.8	47	659.935
665.202	0	332601	wait	20	1	0	1	0	7.0	0.0	7.0	0.0						774.958069999997	782.3892820999972	782.3892820999972	6.5	['6', 'a', '5', 'return']	[3.758384600001591, 4.318169500002114, 4.566794200000004, 5.2698076000015135]	7.42	5.4	3.0	40hz	low_pain	45.7			sub-027	250	27	45.7	47.8	COM11	COM16	COM3	2024-03-19_13h50.28.656	001-EEG_SVR_Officel	2022.2.5	144.48298929358614		11.918000000000006	0_sub-pilot027_SVR_EEG_block1-2.protocol.csv	step49	7636	758.852	STIMULATE	45.6	45.6	45.6	45.6	45.6	49	684.6379999999999
672.62	0	336310	40hz	9	1	0	1	0	7.0	0.0	7.0	0.0						774.958069999997	782.3892820999972	782.3892820999972	6.5	['6', 'a', '5', 'return']	[3.758384600001591, 4.318169500002114, 4.566794200000004, 5.2698076000015135]	7.42	5.4	3.0	40hz	low_pain	45.7			sub-027	250	27	45.7	47.8	COM11	COM16	COM3	2024-03-19_13h50.28.656	001-EEG_SVR_Officel	2022.2.5	144.48298929358614		7.418000000000006	0_sub-pilot027_SVR_EEG_block1-2.protocol.csv	step49	7636	758.852	STIMULATE	45.6	45.6	45.6	45.6	45.6	49	684.6379999999999
678.772	0	339386	40/Lo	8	1	0	1	0	7.0	0.0	7.0	0.0						774.958069999997	782.3892820999972	782.3892820999972	6.5	['6', 'a', '5', 'return']	[3.758384600001591, 4.318169500002114, 4.566794200000004, 5.2698076000015135]	7.42	5.4	3.0	40hz	low_pain	45.7			sub-027	250	27	45.7	47.8	COM11	COM16	COM3	2024-03-19_13h50.28.656	001-EEG_SVR_Officel	2022.2.5	144.48298929358614		5.402000000000044	0_sub-pilot027_SVR_EEG_block1-2.protocol.csv	step49	7636	758.852	STIMULATE	45.6	45.6	45.6	45.6	45.6	49	684.6379999999999
690.912	0	345456	wait	20	1	0	1	0	8.0	0.0	8.0	0.0						800.6686210999978	808.4756196999988	808.4756196999988	7.8	['7', 'a', '8', 'return']	[5.440063599999121, 6.184048199997051, 6.519696699997439, 7.433465799997066]	7.8	5.55	0.0	20hz	high_pain	47.8			sub-027	250	27	45.7	47.8	COM11	COM16	COM3	2024-03-19_13h50.28.656	001-EEG_SVR_Officel	2022.2.5	144.48298929358614		12.889999999999986	0_sub-pilot027_SVR_EEG_block1-2.protocol.csv	step51	7899	785.105	STIMULATE	48.2	47.8	47.8	47.8	47.9	51	710.8910000000001
698.708	0	349354	20hz	6	1	0	1	0	8.0	0.0	8.0	0.0						800.6686210999978	808.4756196999988	808.4756196999988	7.8	['7', 'a', '8', 'return']	[5.440063599999121, 6.184048199997051, 6.519696699997439, 7.433465799997066]	7.8	5.55	0.0	20hz	high_pain	47.8			sub-027	250	27	45.7	47.8	COM11	COM16	COM3	2024-03-19_13h50.28.656	001-EEG_SVR_Officel	2022.2.5	144.48298929358614		7.795999999999935	0_sub-pilot027_SVR_EEG_block1-2.protocol.csv	step51	7899	785.105	STIMULATE	48.2	47.8	47.8	47.8	47.9	51	710.8910000000001
705.012	0	352506	20/Hi	4	1	0	1	0	8.0	0.0	8.0	0.0						800.6686210999978	808.4756196999988	808.4756196999988	7.8	['7', 'a', '8', 'return']	[5.440063599999121, 6.184048199997051, 6.519696699997439, 7.433465799997066]	7.8	5.55	0.0	20hz	high_pain	47.8			sub-027	250	27	45.7	47.8	COM11	COM16	COM3	2024-03-19_13h50.28.656	001-EEG_SVR_Officel	2022.2.5	144.48298929358614		5.553999999999974	0_sub-pilot027_SVR_EEG_block1-2.protocol.csv	step51	7899	785.105	STIMULATE	48.2	47.8	47.8	47.8	47.9	51	710.8910000000001
719.174	0	359587	wait	20	1	0	1	0	9.0	0.0	9.0	0.0						828.929579399999	835.3955240999967	835.3955240999967	8.0	['8', 'return']	[6.80015049999929, 7.58349349999844]	6.46	5.87	1.0	20hz	high_pain	47.8			sub-027	250	27	45.7	47.8	COM11	COM16	COM3	2024-03-19_13h50.28.656	001-EEG_SVR_Officel	2022.2.5	144.48298929358614		14.912000000000035	0_sub-pilot027_SVR_EEG_block1-2.protocol.csv	step53	8165	812.355	STIMULATE	47.8	47.8	47.8	47.8	48.2	53	738.1410000000001
725.628	0	362814	20hz	6	1	0	1	0	9.0	0.0	9.0	0.0						828.929579399999	835.3955240999967	835.3955240999967	8.0	['8', 'return']	[6.80015049999929, 7.58349349999844]	6.46	5.87	1.0	20hz	high_pain	47.8			sub-027	250	27	45.7	47.8	COM11	COM16	COM3	2024-03-19_13h50.28.656	001-EEG_SVR_Officel	2022.2.5	144.48298929358614		6.454000000000065	0_sub-pilot027_SVR_EEG_block1-2.protocol.csv	step53	8165	812.355	STIMULATE	47.8	47.8	47.8	47.8	48.2	53	738.1410000000001
732.25	0	366125	20/Hi	4	1	0	1	0	9.0	0.0	9.0	0.0						828.929579399999	835.3955240999967	835.3955240999967	8.0	['8', 'return']	[6.80015049999929, 7.58349349999844]	6.46	5.87	1.0	20hz	high_pain	47.8			sub-027	250	27	45.7	47.8	COM11	COM16	COM3	2024-03-19_13h50.28.656	001-EEG_SVR_Officel	2022.2.5	144.48298929358614		5.871999999999957	0_sub-pilot027_SVR_EEG_block1-2.protocol.csv	step53	8165	812.355	STIMULATE	47.8	47.8	47.8	47.8	48.2	53	738.1410000000001
746.23	0	373115	wait	20	1	0	1	0	10.0	0.0	10.0	0.0						855.9873325999979	861.8639816999967	861.8639816999967	4.0	['4', 'return']	[3.9148320999993302, 4.523233399999299]	5.87	5.53	2.0	10hz	low_pain	45.7			sub-027	250	27	45.7	47.8	COM11	COM16	COM3	2024-03-19_13h50.28.656	001-EEG_SVR_Officel	2022.2.5	144.48298929358614		14.730000000000018	0_sub-pilot027_SVR_EEG_block1-2.protocol.csv	step55	8417	838.437	STIMULATE	45.6	45.6	45.6	45.7	45.9	55	764.223
752.096	0	376048	10hz	3	1	0	1	0	10.0	0.0	10.0	0.0						855.9873325999979	861.8639816999967	861.8639816999967	4.0	['4', 'return']	[3.9148320999993302, 4.523233399999299]	5.87	5.53	2.0	10hz	low_pain	45.7			sub-027	250	27	45.7	47.8	COM11	COM16	COM3	2024-03-19_13h50.28.656	001-EEG_SVR_Officel	2022.2.5	144.48298929358614		5.8659999999999854	0_sub-pilot027_SVR_EEG_block1-2.protocol.csv	step55	8417	838.437	STIMULATE	45.6	45.6	45.6	45.7	45.9	55	764.223
758.38	0	379190	10/Lo	2	1	0	1	0	10.0	0.0	10.0	0.0						855.9873325999979	861.8639816999967	861.8639816999967	4.0	['4', 'return']	[3.9148320999993302, 4.523233399999299]	5.87	5.53	2.0	10hz	low_pain	45.7			sub-027	250	27	45.7	47.8	COM11	COM16	COM3	2024-03-19_13h50.28.656	001-EEG_SVR_Officel	2022.2.5	144.48298929358614		5.533999999999992	0_sub-pilot027_SVR_EEG_block1-2.protocol.csv	step55	8417	838.437	STIMULATE	45.6	45.6	45.6	45.7	45.9	55	764.223
769.652	0	384826	wait	20	1	0	1	0	11.0	0.0	11.0	0.0						879.4085038999983	886.9507836999983	886.9507836999983	5.0	['5', 'return']	[5.501959199998964, 6.252902700001869]	7.53	6.02	3.0	10hz	low_pain	45.7			sub-027	250	27	45.7	47.8	COM11	COM16	COM3	2024-03-19_13h50.28.656	001-EEG_SVR_Officel	2022.2.5	144.48298929358614		12.022000000000048	0_sub-pilot027_SVR_EEG_block1-2.protocol.csv	step57	8662	864.15	STIMULATE	45.6	45.6	45.6	45.6	45.7	57	789.9359999999999
777.182	0	388591	10hz	3	1	0	1	0	11.0	0.0	11.0	0.0						879.4085038999983	886.9507836999983	886.9507836999983	5.0	['5', 'return']	[5.501959199998964, 6.252902700001869]	7.53	6.02	3.0	10hz	low_pain	45.7			sub-027	250	27	45.7	47.8	COM11	COM16	COM3	2024-03-19_13h50.28.656	001-EEG_SVR_Officel	2022.2.5	144.48298929358614		7.529999999999973	0_sub-pilot027_SVR_EEG_block1-2.protocol.csv	step57	8662	864.15	STIMULATE	45.6	45.6	45.6	45.6	45.7	57	789.9359999999999
783.952	0	391976	10/Lo	2	1	0	1	0	11.0	0.0	11.0	0.0						879.4085038999983	886.9507836999983	886.9507836999983	5.0	['5', 'return']	[5.501959199998964, 6.252902700001869]	7.53	6.02	3.0	10hz	low_pain	45.7			sub-027	250	27	45.7	47.8	COM11	COM16	COM3	2024-03-19_13h50.28.656	001-EEG_SVR_Officel	2022.2.5	144.48298929358614		6.019999999999982	0_sub-pilot027_SVR_EEG_block1-2.protocol.csv	step57	8662	864.15	STIMULATE	45.6	45.6	45.6	45.6	45.7	57	789.9359999999999
796.46	0	398230	wait	20	1	0	1	0	12.0	0.0	12.0	0.0						906.2169657999984	914.1480499999998	914.1480499999998	8.3	['8', 'a', '3', 'return']	[4.704144300001644, 5.255017200001021, 5.7749864000033995, 6.591371000002255]	7.92	5.33	0.0	controle	high_pain	47.8			sub-027	250	27	45.7	47.8	COM11	COM16	COM3	2024-03-19_13h50.28.656	001-EEG_SVR_Officel	2022.2.5	144.48298929358614		13.258000000000038	0_sub-pilot027_SVR_EEG_block1-2.protocol.csv	step59	8911	890.566	STIMULATE	47.9	47.8	47.8	47.8	48.1	59	816.3520000000001
804.38	0	402190	CNhz	12	1	0	1	0	12.0	0.0	12.0	0.0						906.2169657999984	914.1480499999998	914.1480499999998	8.3	['8', 'a', '3', 'return']	[4.704144300001644, 5.255017200001021, 5.7749864000033995, 6.591371000002255]	7.92	5.33	0.0	controle	high_pain	47.8			sub-027	250	27	45.7	47.8	COM11	COM16	COM3	2024-03-19_13h50.28.656	001-EEG_SVR_Officel	2022.2.5	144.48298929358614		7.919999999999959	0_sub-pilot027_SVR_EEG_block1-2.protocol.csv	step59	8911	890.566	STIMULATE	47.9	47.8	47.8	47.8	48.1	59	816.3520000000001
810.462	0	405231	CN/Hi	10	1	0	1	0	12.0	0.0	12.0	0.0						906.2169657999984	914.1480499999998	914.1480499999998	8.3	['8', 'a', '3', 'return']	[4.704144300001644, 5.255017200001021, 5.7749864000033995, 6.591371000002255]	7.92	5.33	0.0	controle	high_pain	47.8			sub-027	250	27	45.7	47.8	COM11	COM16	COM3	2024-03-19_13h50.28.656	001-EEG_SVR_Officel	2022.2.5	144.48298929358614		5.331999999999994	0_sub-pilot027_SVR_EEG_block1-2.protocol.csv	step59	8911	890.566	STIMULATE	47.9	47.8	47.8	47.8	48.1	59	816.3520000000001
823.998	0	411999	wait	20	1	0	1	0	13.0	0.0	13.0	0.0						933.7545436	941.6930313999984	941.6930313999984	5.0	['5', 'return']	[3.8136688000013237, 4.478659800002788]	7.93	6.02	1.0	controle	low_pain	45.7			sub-027	250	27	45.7	47.8	COM11	COM16	COM3	2024-03-19_13h50.28.656	001-EEG_SVR_Officel	2022.2.5	144.48298929358614		14.286000000000058	0_sub-pilot027_SVR_EEG_block1-2.protocol.csv	step61	9175	918.808	STIMULATE	45.7	45.6	45.6	45.6	46.0	61	844.594
831.924	0	415962	CNhz	12	1	0	1	0	13.0	0.0	13.0	0.0						933.7545436	941.6930313999984	941.6930313999984	5.0	['5', 'return']	[3.8136688000013237, 4.478659800002788]	7.93	6.02	1.0	controle	low_pain	45.7			sub-027	250	27	45.7	47.8	COM11	COM16	COM3	2024-03-19_13h50.28.656	001-EEG_SVR_Officel	2022.2.5	144.48298929358614		7.925999999999931	0_sub-pilot027_SVR_EEG_block1-2.protocol.csv	step61	9175	918.808	STIMULATE	45.7	45.6	45.6	45.6	46.0	61	844.594
838.694	0	419347	CN/Lo	11	1	0	1	0	13.0	0.0	13.0	0.0						933.7545436	941.6930313999984	941.6930313999984	5.0	['5', 'return']	[3.8136688000013237, 4.478659800002788]	7.93	6.02	1.0	controle	low_pain	45.7			sub-027	250	27	45.7	47.8	COM11	COM16	COM3	2024-03-19_13h50.28.656	001-EEG_SVR_Officel	2022.2.5	144.48298929358614		6.019999999999982	0_sub-pilot027_SVR_EEG_block1-2.protocol.csv	step61	9175	918.808	STIMULATE	45.7	45.6	45.6	45.6	46.0	61	844.594
849.432	0	424716	wait	20	1	0	1	0	14.0	0.0	14.0	0.0						959.188345399998	966.9948380999996	966.9948380999996	7.0	['7', 'return']	[3.2641518999989785, 3.7751467999987653]	7.8	5.59	2.0	controle	low_pain	45.7			sub-027	250	27	45.7	47.8	COM11	COM16	COM3	2024-03-19_13h50.28.656	001-EEG_SVR_Officel	2022.2.5	144.48298929358614		11.488000000000056	0_sub-pilot027_SVR_EEG_block1-2.protocol.csv	step63	9405	943.684	STIMULATE	45.8	45.6	45.6	45.6	45.7	63	869.47
857.226	0	428613	CNhz	12	1	0	1	0	14.0	0.0	14.0	0.0						959.188345399998	966.9948380999996	966.9948380999996	7.0	['7', 'return']	[3.2641518999989785, 3.7751467999987653]	7.8	5.59	2.0	controle	low_pain	45.7			sub-027	250	27	45.7	47.8	COM11	COM16	COM3	2024-03-19_13h50.28.656	001-EEG_SVR_Officel	2022.2.5	144.48298929358614		7.793999999999983	0_sub-pilot027_SVR_EEG_block1-2.protocol.csv	step63	9405	943.684	STIMULATE	45.8	45.6	45.6	45.6	45.7	63	869.47
863.564	0	431782	CN/Lo	11	1	0	1	0	14.0	0.0	14.0	0.0						959.188345399998	966.9948380999996	966.9948380999996	7.0	['7', 'return']	[3.2641518999989785, 3.7751467999987653]	7.8	5.59	2.0	controle	low_pain	45.7			sub-027	250	27	45.7	47.8	COM11	COM16	COM3	2024-03-19_13h50.28.656	001-EEG_SVR_Officel	2022.2.5	144.48298929358614		5.587999999999965	0_sub-pilot027_SVR_EEG_block1-2.protocol.csv	step63	9405	943.684	STIMULATE	45.8	45.6	45.6	45.6	45.7	63	869.47
874.024	0	437012	wait	20	1	0	1	0	15.0	0.0	15.0	0.0						983.7809501999982	989.7335276999984	989.7335276999984	4.0	['4', 'return']	[3.3914727000010316, 4.607111699999223]	5.94	6.08	3.0	controle	low_pain	45.7			sub-027	250	27	45.7	47.8	COM11	COM16	COM3	2024-03-19_13h50.28.656	001-EEG_SVR_Officel	2022.2.5	144.48298929358614		11.210000000000036	0_sub-pilot027_SVR_EEG_block1-2.protocol.csv	step65	9619	967.007	STIMULATE	45.7	45.6	45.6	45.6	45.7	65	892.7929999999999
879.964	0	439982	CNhz	12	1	0	1	0	15.0	0.0	15.0	0.0						983.7809501999982	989.7335276999984	989.7335276999984	4.0	['4', 'return']	[3.3914727000010316, 4.607111699999223]	5.94	6.08	3.0	controle	low_pain	45.7			sub-027	250	27	45.7	47.8	COM11	COM16	COM3	2024-03-19_13h50.28.656	001-EEG_SVR_Officel	2022.2.5	144.48298929358614		5.940000000000055	0_sub-pilot027_SVR_EEG_block1-2.protocol.csv	step65	9619	967.007	STIMULATE	45.7	45.6	45.6	45.6	45.7	65	892.7929999999999
886.796	0	443398	CN/Lo	11	1	0	1	0	15.0	0.0	15.0	0.0						983.7809501999982	989.7335276999984	989.7335276999984	4.0	['4', 'return']	[3.3914727000010316, 4.607111699999223]	5.94	6.08	3.0	controle	low_pain	45.7			sub-027	250	27	45.7	47.8	COM11	COM16	COM3	2024-03-19_13h50.28.656	001-EEG_SVR_Officel	2022.2.5	144.48298929358614		6.081999999999994	0_sub-pilot027_SVR_EEG_block1-2.protocol.csv	step65	9619	967.007	STIMULATE	45.7	45.6	45.6	45.6	45.7	65	892.7929999999999
959.548	0	479774	wait	20	2	0	2	0	0.0	0.0	0.0	0.0				p	1.8292275999992853	1069.3056744999994	1074.6951397999983	1074.6951397999983	3.0	['3', 'return']	[3.908278800001426, 4.468587400002434]	5.38	5.96	0.0	10hz	low_pain	45.7			sub-027	250	27	45.7	47.8	COM11	COM16	COM3	2024-03-19_13h50.28.656	001-EEG_SVR_Officel	2022.2.5	144.48298929358614		73.50199999999995	1_sub-pilot027_SVR_EEG_block3-4.protocol.csv	step3	714	71.219	STIMULATE	45.7	45.6	45.6	45.6	45.9	3	977.4399999999999
964.926	0	482463	10hz	3	2	0	2	0	0.0	0.0	0.0	0.0				p	1.8292275999992853	1069.3056744999994	1074.6951397999983	1074.6951397999983	3.0	['3', 'return']	[3.908278800001426, 4.468587400002434]	5.38	5.96	0.0	10hz	low_pain	45.7			sub-027	250	27	45.7	47.8	COM11	COM16	COM3	2024-03-19_13h50.28.656	001-EEG_SVR_Officel	2022.2.5	144.48298929358614		5.378000000000043	1_sub-pilot027_SVR_EEG_block3-4.protocol.csv	step3	714	71.219	STIMULATE	45.7	45.6	45.6	45.6	45.9	3	977.4399999999999
971.64	0	485820	10/Lo	2	2	0	2	0	0.0	0.0	0.0	0.0				p	1.8292275999992853	1069.3056744999994	1074.6951397999983	1074.6951397999983	3.0	['3', 'return']	[3.908278800001426, 4.468587400002434]	5.38	5.96	0.0	10hz	low_pain	45.7			sub-027	250	27	45.7	47.8	COM11	COM16	COM3	2024-03-19_13h50.28.656	001-EEG_SVR_Officel	2022.2.5	144.48298929358614		5.963999999999942	1_sub-pilot027_SVR_EEG_block3-4.protocol.csv	step3	714	71.219	STIMULATE	45.7	45.6	45.6	45.6	45.9	3	977.4399999999999
982.426	0	491213	wait	20	2	0	2	0	1.0	0.0	1.0	0.0						1092.1833742999988	1099.2329182999963	1099.2329182999963	1.5	['1', 'a', '5', 'return']	[4.395459499999561, 4.795016599997325, 5.010751399997389, 6.0276654999979655]	7.04	5.2	1.0	20hz	low_pain	45.7			sub-027	250	27	45.7	47.8	COM11	COM16	COM3	2024-03-19_13h50.28.656	001-EEG_SVR_Officel	2022.2.5	144.48298929358614		11.536000000000058	1_sub-pilot027_SVR_EEG_block3-4.protocol.csv	step5	954	95.036	STIMULATE	45.8	45.6	45.6	45.6	45.9	5	1001.257
989.464	0	494732	20hz	6	2	0	2	0	1.0	0.0	1.0	0.0						1092.1833742999988	1099.2329182999963	1099.2329182999963	1.5	['1', 'a', '5', 'return']	[4.395459499999561, 4.795016599997325, 5.010751399997389, 6.0276654999979655]	7.04	5.2	1.0	20hz	low_pain	45.7			sub-027	250	27	45.7	47.8	COM11	COM16	COM3	2024-03-19_13h50.28.656	001-EEG_SVR_Officel	2022.2.5	144.48298929358614		7.038000000000011	1_sub-pilot027_SVR_EEG_block3-4.protocol.csv	step5	954	95.036	STIMULATE	45.8	45.6	45.6	45.6	45.9	5	1001.257
995.414	0	497707	20/Lo	5	2	0	2	0	1.0	0.0	1.0	0.0						1092.1833742999988	1099.2329182999963	1099.2329182999963	1.5	['1', 'a', '5', 'return']	[4.395459499999561, 4.795016599997325, 5.010751399997389, 6.0276654999979655]	7.04	5.2	1.0	20hz	low_pain	45.7			sub-027	250	27	45.7	47.8	COM11	COM16	COM3	2024-03-19_13h50.28.656	001-EEG_SVR_Officel	2022.2.5	144.48298929358614		5.199999999999932	1_sub-pilot027_SVR_EEG_block3-4.protocol.csv	step5	954	95.036	STIMULATE	45.8	45.6	45.6	45.6	45.9	5	1001.257
1008.518	0	504259	wait	20	2	0	2	0	2.0	0.0	2.0	0.0						1118.2767656999968	1125.534548599997	1125.534548599997	8.5	['8', 'a', '5', 'return']	[4.43727299999955, 4.909240900000441, 5.069251200002327, 6.053620200000296]	7.25	5.6	2.0	controle	high_pain	47.8			sub-027	250	27	45.7	47.8	COM11	COM16	COM3	2024-03-19_13h50.28.656	001-EEG_SVR_Officel	2022.2.5	144.48298929358614		13.854000000000042	1_sub-pilot027_SVR_EEG_block3-4.protocol.csv	step7	1224	121.802	STIMULATE	47.8	47.7	47.8	47.8	48.1	7	1028.023
1015.764	0	507882	CNhz	12	2	0	2	0	2.0	0.0	2.0	0.0						1118.2767656999968	1125.534548599997	1125.534548599997	8.5	['8', 'a', '5', 'return']	[4.43727299999955, 4.909240900000441, 5.069251200002327, 6.053620200000296]	7.25	5.6	2.0	controle	high_pain	47.8			sub-027	250	27	45.7	47.8	COM11	COM16	COM3	2024-03-19_13h50.28.656	001-EEG_SVR_Officel	2022.2.5	144.48298929358614		7.245999999999981	1_sub-pilot027_SVR_EEG_block3-4.protocol.csv	step7	1224	121.802	STIMULATE	47.8	47.7	47.8	47.8	48.1	7	1028.023
1022.118	0	511059	CN/Hi	10	2	0	2	0	2.0	0.0	2.0	0.0						1118.2767656999968	1125.534548599997	1125.534548599997	8.5	['8', 'a', '5', 'return']	[4.43727299999955, 4.909240900000441, 5.069251200002327, 6.053620200000296]	7.25	5.6	2.0	controle	high_pain	47.8			sub-027	250	27	45.7	47.8	COM11	COM16	COM3	2024-03-19_13h50.28.656	001-EEG_SVR_Officel	2022.2.5	144.48298929358614		5.604000000000042	1_sub-pilot027_SVR_EEG_block3-4.protocol.csv	step7	1224	121.802	STIMULATE	47.8	47.7	47.8	47.8	48.1	7	1028.023
1034.848	0	517424	wait	20	2	0	2	0	3.0	0.0	3.0	0.0						1144.6064209999968	1150.3987965999986	1150.3987965999986	3.0	['3', 'return']	[4.572556999999506, 5.372607599998446]	5.78	5.4	3.0	controle	low_pain	45.7			sub-027	250	27	45.7	47.8	COM11	COM16	COM3	2024-03-19_13h50.28.656	001-EEG_SVR_Officel	2022.2.5	144.48298929358614		13.479999999999905	1_sub-pilot027_SVR_EEG_block3-4.protocol.csv	step9	1471	146.313	STIMULATE	45.7	45.6	45.6	45.6	45.6	9	1052.5339999999999
1040.628	0	520313	CNhz	12	2	0	2	0	3.0	0.0	3.0	0.0						1144.6064209999968	1150.3987965999986	1150.3987965999986	3.0	['3', 'return']	[4.572556999999506, 5.372607599998446]	5.78	5.4	3.0	controle	low_pain	45.7			sub-027	250	27	45.7	47.8	COM11	COM16	COM3	2024-03-19_13h50.28.656	001-EEG_SVR_Officel	2022.2.5	144.48298929358614		5.779999999999973	1_sub-pilot027_SVR_EEG_block3-4.protocol.csv	step9	1471	146.313	STIMULATE	45.7	45.6	45.6	45.6	45.6	9	1052.5339999999999
1046.78	0	523390	CN/Lo	11	2	0	2	0	3.0	0.0	3.0	0.0						1144.6064209999968	1150.3987965999986	1150.3987965999986	3.0	['3', 'return']	[4.572556999999506, 5.372607599998446]	5.78	5.4	3.0	controle	low_pain	45.7			sub-027	250	27	45.7	47.8	COM11	COM16	COM3	2024-03-19_13h50.28.656	001-EEG_SVR_Officel	2022.2.5	144.48298929358614		5.402000000000044	1_sub-pilot027_SVR_EEG_block3-4.protocol.csv	step9	1471	146.313	STIMULATE	45.7	45.6	45.6	45.6	45.6	9	1052.5339999999999
1059.032	0	529516	wait	20	2	0	2	0	4.0	0.0	4.0	0.0						1168.7898188	1176.58943	1176.58943	6.0	['6', 'return']	[3.758275899999717, 4.295089399998687]	7.79	5.0	0.0	controle	low_pain	45.7			sub-027	250	27	45.7	47.8	COM11	COM16	COM3	2024-03-19_13h50.28.656	001-EEG_SVR_Officel	2022.2.5	144.48298929358614		13.001999999999953	1_sub-pilot027_SVR_EEG_block3-4.protocol.csv	step11	1732	172.234	STIMULATE	45.7	45.6	45.6	45.6	45.8	11	1078.455
1066.818	0	533409	CNhz	12	2	0	2	0	4.0	0.0	4.0	0.0						1168.7898188	1176.58943	1176.58943	6.0	['6', 'return']	[3.758275899999717, 4.295089399998687]	7.79	5.0	0.0	controle	low_pain	45.7			sub-027	250	27	45.7	47.8	COM11	COM16	COM3	2024-03-19_13h50.28.656	001-EEG_SVR_Officel	2022.2.5	144.48298929358614		7.786000000000058	1_sub-pilot027_SVR_EEG_block3-4.protocol.csv	step11	1732	172.234	STIMULATE	45.7	45.6	45.6	45.6	45.8	11	1078.455
1072.568	0	536284	CN/Lo	11	2	0	2	0	4.0	0.0	4.0	0.0						1168.7898188	1176.58943	1176.58943	6.0	['6', 'return']	[3.758275899999717, 4.295089399998687]	7.79	5.0	0.0	controle	low_pain	45.7			sub-027	250	27	45.7	47.8	COM11	COM16	COM3	2024-03-19_13h50.28.656	001-EEG_SVR_Officel	2022.2.5	144.48298929358614		5.0	1_sub-pilot027_SVR_EEG_block3-4.protocol.csv	step11	1732	172.234	STIMULATE	45.7	45.6	45.6	45.6	45.8	11	1078.455
1084.138	0	542069	wait	20	2	0	2	0	5.0	0.0	5.0	0.0						1193.8965652999975	1200.8770216999983	1200.8770216999983	8.8	['8', 'a', '8', 'return']	[5.525603300000512, 6.052601600000344, 7.109686100000545, 7.910020699997403]	6.97	5.94	1.0	40hz	high_pain	47.8			sub-027	250	27	45.7	47.8	COM11	COM16	COM3	2024-03-19_13h50.28.656	001-EEG_SVR_Officel	2022.2.5	144.48298929358614		12.319999999999936	1_sub-pilot027_SVR_EEG_block3-4.protocol.csv	step13	1987	197.535	STIMULATE	47.8	47.8	47.8	47.8	47.9	13	1103.7559999999999
1091.106	0	545553	40hz	9	2	0	2	0	5.0	0.0	5.0	0.0						1193.8965652999975	1200.8770216999983	1200.8770216999983	8.8	['8', 'a', '8', 'return']	[5.525603300000512, 6.052601600000344, 7.109686100000545, 7.910020699997403]	6.97	5.94	1.0	40hz	high_pain	47.8			sub-027	250	27	45.7	47.8	COM11	COM16	COM3	2024-03-19_13h50.28.656	001-EEG_SVR_Officel	2022.2.5	144.48298929358614		6.968000000000075	1_sub-pilot027_SVR_EEG_block3-4.protocol.csv	step13	1987	197.535	STIMULATE	47.8	47.8	47.8	47.8	47.9	13	1103.7559999999999
1097.8	0	548900	40/Hi	7	2	0	2	0	5.0	0.0	5.0	0.0						1193.8965652999975	1200.8770216999983	1200.8770216999983	8.8	['8', 'a', '8', 'return']	[5.525603300000512, 6.052601600000344, 7.109686100000545, 7.910020699997403]	6.97	5.94	1.0	40hz	high_pain	47.8			sub-027	250	27	45.7	47.8	COM11	COM16	COM3	2024-03-19_13h50.28.656	001-EEG_SVR_Officel	2022.2.5	144.48298929358614		5.94399999999996	1_sub-pilot027_SVR_EEG_block3-4.protocol.csv	step13	1987	197.535	STIMULATE	47.8	47.8	47.8	47.8	47.9	13	1103.7559999999999
1112.044	0	556022	wait	20	2	0	2	0	6.0	0.0	6.0	0.0						1221.8026720999987	1227.3386092999972	1227.3386092999972	5.5	['5', 'a', '5', 'return']	[4.544966799996473, 4.953430199999275, 5.114003999999113, 6.0164254999981495]	5.53	5.25	2.0	controle	low_pain	45.7			sub-027	250	27	45.7	47.8	COM11	COM16	COM3	2024-03-19_13h50.28.656	001-EEG_SVR_Officel	2022.2.5	144.48298929358614		14.994000000000142	1_sub-pilot027_SVR_EEG_block3-4.protocol.csv	step15	2246	223.248	STIMULATE	45.6	45.6	45.6	45.6	45.7	15	1129.469
1117.568	0	558784	CNhz	12	2	0	2	0	6.0	0.0	6.0	0.0						1221.8026720999987	1227.3386092999972	1227.3386092999972	5.5	['5', 'a', '5', 'return']	[4.544966799996473, 4.953430199999275, 5.114003999999113, 6.0164254999981495]	5.53	5.25	2.0	controle	low_pain	45.7			sub-027	250	27	45.7	47.8	COM11	COM16	COM3	2024-03-19_13h50.28.656	001-EEG_SVR_Officel	2022.2.5	144.48298929358614		5.523999999999887	1_sub-pilot027_SVR_EEG_block3-4.protocol.csv	step15	2246	223.248	STIMULATE	45.6	45.6	45.6	45.6	45.7	15	1129.469
1123.568	0	561784	CN/Lo	11	2	0	2	0	6.0	0.0	6.0	0.0						1221.8026720999987	1227.3386092999972	1227.3386092999972	5.5	['5', 'a', '5', 'return']	[4.544966799996473, 4.953430199999275, 5.114003999999113, 6.0164254999981495]	5.53	5.25	2.0	controle	low_pain	45.7			sub-027	250	27	45.7	47.8	COM11	COM16	COM3	2024-03-19_13h50.28.656	001-EEG_SVR_Officel	2022.2.5	144.48298929358614		5.25	1_sub-pilot027_SVR_EEG_block3-4.protocol.csv	step15	2246	223.248	STIMULATE	45.6	45.6	45.6	45.6	45.7	15	1129.469
1136.618	0	568309	wait	20	2	0	2	0	7.0	0.0	7.0	0.0						1246.3762111999968	1251.932149999997	1251.932149999997	8.0	['8', 'return']	[3.0485813000013877, 4.007714499999565]	5.55	6.21	3.0	20hz	high_pain	47.8			sub-027	250	27	45.7	47.8	COM11	COM16	COM3	2024-03-19_13h50.28.656	001-EEG_SVR_Officel	2022.2.5	144.48298929358614		13.799999999999955	1_sub-pilot027_SVR_EEG_block3-4.protocol.csv	step17	2503	248.774	STIMULATE	47.8	47.8	47.8	47.8	47.8	17	1154.995
1142.162	0	571081	20hz	6	2	0	2	0	7.0	0.0	7.0	0.0						1246.3762111999968	1251.932149999997	1251.932149999997	8.0	['8', 'return']	[3.0485813000013877, 4.007714499999565]	5.55	6.21	3.0	20hz	high_pain	47.8			sub-027	250	27	45.7	47.8	COM11	COM16	COM3	2024-03-19_13h50.28.656	001-EEG_SVR_Officel	2022.2.5	144.48298929358614		5.544000000000096	1_sub-pilot027_SVR_EEG_block3-4.protocol.csv	step17	2503	248.774	STIMULATE	47.8	47.8	47.8	47.8	47.8	17	1154.995
1149.126	0	574563	20/Hi	4	2	0	2	0	7.0	0.0	7.0	0.0						1246.3762111999968	1251.932149999997	1251.932149999997	8.0	['8', 'return']	[3.0485813000013877, 4.007714499999565]	5.55	6.21	3.0	20hz	high_pain	47.8			sub-027	250	27	45.7	47.8	COM11	COM16	COM3	2024-03-19_13h50.28.656	001-EEG_SVR_Officel	2022.2.5	144.48298929358614		6.213999999999942	1_sub-pilot027_SVR_EEG_block3-4.protocol.csv	step17	2503	248.774	STIMULATE	47.8	47.8	47.8	47.8	47.8	17	1154.995
1159.202	0	579601	wait	20	2	0	2	0	8.0	0.0	8.0	0.0						1268.961684599999	1276.601371599998	1276.601371599998	3.0	['3', 'return']	[4.594472600001609, 5.282204200000706]	7.63	6.18	0.0	20hz	low_pain	45.7			sub-027	250	27	45.7	47.8	COM11	COM16	COM3	2024-03-19_13h50.28.656	001-EEG_SVR_Officel	2022.2.5	144.48298929358614		10.826000000000022	1_sub-pilot027_SVR_EEG_block3-4.protocol.csv	step19	2752	273.424	STIMULATE	45.8	45.6	45.6	45.6	45.7	19	1179.645
1166.83	0	583415	20hz	6	2	0	2	0	8.0	0.0	8.0	0.0						1268.961684599999	1276.601371599998	1276.601371599998	3.0	['3', 'return']	[4.594472600001609, 5.282204200000706]	7.63	6.18	0.0	20hz	low_pain	45.7			sub-027	250	27	45.7	47.8	COM11	COM16	COM3	2024-03-19_13h50.28.656	001-EEG_SVR_Officel	2022.2.5	144.48298929358614		7.627999999999929	1_sub-pilot027_SVR_EEG_block3-4.protocol.csv	step19	2752	273.424	STIMULATE	45.8	45.6	45.6	45.6	45.7	19	1179.645
1173.76	0	586880	20/Lo	5	2	0	2	0	8.0	0.0	8.0	0.0						1268.961684599999	1276.601371599998	1276.601371599998	3.0	['3', 'return']	[4.594472600001609, 5.282204200000706]	7.63	6.18	0.0	20hz	low_pain	45.7			sub-027	250	27	45.7	47.8	COM11	COM16	COM3	2024-03-19_13h50.28.656	001-EEG_SVR_Officel	2022.2.5	144.48298929358614		6.180000000000064	1_sub-pilot027_SVR_EEG_block3-4.protocol.csv	step19	2752	273.424	STIMULATE	45.8	45.6	45.6	45.6	45.7	19	1179.645
1185.142	0	592571	wait	20	2	0	2	0	9.0	0.0	9.0	0.0						1294.9022254999982	1302.6323872999965	1302.6323872999965	8.0	['8', 'return']	[3.243741599999339, 4.250801900001534]	7.72	5.22	1.0	controle	low_pain	45.7			sub-027	250	27	45.7	47.8	COM11	COM16	COM3	2024-03-19_13h50.28.656	001-EEG_SVR_Officel	2022.2.5	144.48298929358614		12.132000000000062	1_sub-pilot027_SVR_EEG_block3-4.protocol.csv	step21	3005	298.561	STIMULATE	45.6	45.6	45.6	45.6	46.0	21	1204.782
1192.86	0	596430	CNhz	12	2	0	2	0	9.0	0.0	9.0	0.0						1294.9022254999982	1302.6323872999965	1302.6323872999965	8.0	['8', 'return']	[3.243741599999339, 4.250801900001534]	7.72	5.22	1.0	controle	low_pain	45.7			sub-027	250	27	45.7	47.8	COM11	COM16	COM3	2024-03-19_13h50.28.656	001-EEG_SVR_Officel	2022.2.5	144.48298929358614		7.717999999999847	1_sub-pilot027_SVR_EEG_block3-4.protocol.csv	step21	3005	298.561	STIMULATE	45.6	45.6	45.6	45.6	46.0	21	1204.782
1198.832	0	599416	CN/Lo	11	2	0	2	0	9.0	0.0	9.0	0.0						1294.9022254999982	1302.6323872999965	1302.6323872999965	8.0	['8', 'return']	[3.243741599999339, 4.250801900001534]	7.72	5.22	1.0	controle	low_pain	45.7			sub-027	250	27	45.7	47.8	COM11	COM16	COM3	2024-03-19_13h50.28.656	001-EEG_SVR_Officel	2022.2.5	144.48298929358614		5.222000000000207	1_sub-pilot027_SVR_EEG_block3-4.protocol.csv	step21	3005	298.561	STIMULATE	45.6	45.6	45.6	45.6	46.0	21	1204.782
1210.146	0	605073	wait	20	2	0	2	0	10.0	0.0	10.0	0.0						1319.905316299999	1326.4338309999985	1326.4338309999985	8.8	['8', 'a', '8', 'return']	[5.331294999999955, 5.730894600001193, 5.899566899999627, 6.874241599998641]	6.52	6.08	2.0	40hz	high_pain	47.8			sub-027	250	27	45.7	47.8	COM11	COM16	COM3	2024-03-19_13h50.28.656	001-EEG_SVR_Officel	2022.2.5	144.48298929358614		12.06399999999985	1_sub-pilot027_SVR_EEG_block3-4.protocol.csv	step23	3253	323.144	STIMULATE	47.8	47.8	47.8	47.8	47.8	23	1229.365
1216.662	0	608331	40hz	9	2	0	2	0	10.0	0.0	10.0	0.0						1319.905316299999	1326.4338309999985	1326.4338309999985	8.8	['8', 'a', '8', 'return']	[5.331294999999955, 5.730894600001193, 5.899566899999627, 6.874241599998641]	6.52	6.08	2.0	40hz	high_pain	47.8			sub-027	250	27	45.7	47.8	COM11	COM16	COM3	2024-03-19_13h50.28.656	001-EEG_SVR_Officel	2022.2.5	144.48298929358614		6.516000000000076	1_sub-pilot027_SVR_EEG_block3-4.protocol.csv	step23	3253	323.144	STIMULATE	47.8	47.8	47.8	47.8	47.8	23	1229.365
1223.494	0	611747	40/Hi	7	2	0	2	0	10.0	0.0	10.0	0.0						1319.905316299999	1326.4338309999985	1326.4338309999985	8.8	['8', 'a', '8', 'return']	[5.331294999999955, 5.730894600001193, 5.899566899999627, 6.874241599998641]	6.52	6.08	2.0	40hz	high_pain	47.8			sub-027	250	27	45.7	47.8	COM11	COM16	COM3	2024-03-19_13h50.28.656	001-EEG_SVR_Officel	2022.2.5	144.48298929358614		6.08199999999988	1_sub-pilot027_SVR_EEG_block3-4.protocol.csv	step23	3253	323.144	STIMULATE	47.8	47.8	47.8	47.8	47.8	23	1229.365
1236.556	0	618278	wait	20	2	0	2	0	11.0	0.0	11.0	0.0						1346.3173411999996	1353.048462499999	1353.048462499999	6.0	['6', 'return']	[3.6034264999980223, 4.378895699999703]	6.72	5.32	3.0	40hz	low_pain	45.7			sub-027	250	27	45.7	47.8	COM11	COM16	COM3	2024-03-19_13h50.28.656	001-EEG_SVR_Officel	2022.2.5	144.48298929358614		13.812000000000126	1_sub-pilot027_SVR_EEG_block3-4.protocol.csv	step25	3514	349.053	STIMULATE	45.7	45.6	45.6	45.6	45.6	25	1255.274
1243.278	0	621639	40hz	9	2	0	2	0	11.0	0.0	11.0	0.0						1346.3173411999996	1353.048462499999	1353.048462499999	6.0	['6', 'return']	[3.6034264999980223, 4.378895699999703]	6.72	5.32	3.0	40hz	low_pain	45.7			sub-027	250	27	45.7	47.8	COM11	COM16	COM3	2024-03-19_13h50.28.656	001-EEG_SVR_Officel	2022.2.5	144.48298929358614		6.72199999999998	1_sub-pilot027_SVR_EEG_block3-4.protocol.csv	step25	3514	349.053	STIMULATE	45.7	45.6	45.6	45.6	45.6	25	1255.274
1249.346	0	624673	40/Lo	8	2	0	2	0	11.0	0.0	11.0	0.0						1346.3173411999996	1353.048462499999	1353.048462499999	6.0	['6', 'return']	[3.6034264999980223, 4.378895699999703]	6.72	5.32	3.0	40hz	low_pain	45.7			sub-027	250	27	45.7	47.8	COM11	COM16	COM3	2024-03-19_13h50.28.656	001-EEG_SVR_Officel	2022.2.5	144.48298929358614		5.317999999999984	1_sub-pilot027_SVR_EEG_block3-4.protocol.csv	step25	3514	349.053	STIMULATE	45.7	45.6	45.6	45.6	45.6	25	1255.274
1260.686	0	630343	wait	20	2	0	2	0	12.0	0.0	12.0	0.0						1370.4464971999987	1377.176457599999	1377.176457599999	7.8	['7', 'a', '8', 'return']	[4.108292000000802, 4.835752899998624, 5.012889800000266, 5.980857800001104]	6.72	5.91	0.0	10hz	high_pain	47.8			sub-027	250	27	45.7	47.8	COM11	COM16	COM3	2024-03-19_13h50.28.656	001-EEG_SVR_Officel	2022.2.5	144.48298929358614		12.089999999999918	1_sub-pilot027_SVR_EEG_block3-4.protocol.csv	step27	3762	373.697	STIMULATE	47.8	47.7	47.8	47.8	48.0	27	1279.9180000000001
1267.404	0	633702	10hz	3	2	0	2	0	12.0	0.0	12.0	0.0						1370.4464971999987	1377.176457599999	1377.176457599999	7.8	['7', 'a', '8', 'return']	[4.108292000000802, 4.835752899998624, 5.012889800000266, 5.980857800001104]	6.72	5.91	0.0	10hz	high_pain	47.8			sub-027	250	27	45.7	47.8	COM11	COM16	COM3	2024-03-19_13h50.28.656	001-EEG_SVR_Officel	2022.2.5	144.48298929358614		6.718000000000075	1_sub-pilot027_SVR_EEG_block3-4.protocol.csv	step27	3762	373.697	STIMULATE	47.8	47.7	47.8	47.8	48.0	27	1279.9180000000001
1274.07	0	637035	10/Hi	1	2	0	2	0	12.0	0.0	12.0	0.0						1370.4464971999987	1377.176457599999	1377.176457599999	7.8	['7', 'a', '8', 'return']	[4.108292000000802, 4.835752899998624, 5.012889800000266, 5.980857800001104]	6.72	5.91	0.0	10hz	high_pain	47.8			sub-027	250	27	45.7	47.8	COM11	COM16	COM3	2024-03-19_13h50.28.656	001-EEG_SVR_Officel	2022.2.5	144.48298929358614		5.91599999999994	1_sub-pilot027_SVR_EEG_block3-4.protocol.csv	step27	3762	373.697	STIMULATE	47.8	47.7	47.8	47.8	48.0	27	1279.9180000000001
1286.418	0	643209	wait	20	2	0	2	0	13.0	0.0	13.0	0.0						1396.1783856999973	1403.1306759	1403.1306759	8.5	['8', 'a', '5', 'return']	[4.119666299997334, 4.503301299999293, 4.791035899997951, 5.671748499997193]	6.94	5.95	1.0	20hz	high_pain	47.8			sub-027	250	27	45.7	47.8	COM11	COM16	COM3	2024-03-19_13h50.28.656	001-EEG_SVR_Officel	2022.2.5	144.48298929358614		13.097999999999956	1_sub-pilot027_SVR_EEG_block3-4.protocol.csv	step29	4025	399.747	STIMULATE	48.2	47.8	47.7	47.8	47.9	29	1305.968
1293.358	0	646679	20hz	6	2	0	2	0	13.0	0.0	13.0	0.0						1396.1783856999973	1403.1306759	1403.1306759	8.5	['8', 'a', '5', 'return']	[4.119666299997334, 4.503301299999293, 4.791035899997951, 5.671748499997193]	6.94	5.95	1.0	20hz	high_pain	47.8			sub-027	250	27	45.7	47.8	COM11	COM16	COM3	2024-03-19_13h50.28.656	001-EEG_SVR_Officel	2022.2.5	144.48298929358614		6.940000000000055	1_sub-pilot027_SVR_EEG_block3-4.protocol.csv	step29	4025	399.747	STIMULATE	48.2	47.8	47.7	47.8	47.9	29	1305.968
1300.06	0	650030	20/Hi	4	2	0	2	0	13.0	0.0	13.0	0.0						1396.1783856999973	1403.1306759	1403.1306759	8.5	['8', 'a', '5', 'return']	[4.119666299997334, 4.503301299999293, 4.791035899997951, 5.671748499997193]	6.94	5.95	1.0	20hz	high_pain	47.8			sub-027	250	27	45.7	47.8	COM11	COM16	COM3	2024-03-19_13h50.28.656	001-EEG_SVR_Officel	2022.2.5	144.48298929358614		5.951999999999998	1_sub-pilot027_SVR_EEG_block3-4.protocol.csv	step29	4025	399.747	STIMULATE	48.2	47.8	47.7	47.8	47.9	29	1305.968
1312.054	0	656027	wait	20	2	0	2	0	14.0	0.0	14.0	0.0						1421.812758699998	1428.598949299998	1428.598949299998	7.0	['7', 'return']	[3.7728759000019636, 5.030403900000238]	6.78	5.08	2.0	10hz	low_pain	45.7			sub-027	250	27	45.7	47.8	COM11	COM16	COM3	2024-03-19_13h50.28.656	001-EEG_SVR_Officel	2022.2.5	144.48298929358614		12.744000000000142	1_sub-pilot027_SVR_EEG_block3-4.protocol.csv	step31	4273	424.378	STIMULATE	45.9	45.6	45.6	45.6	45.7	31	1330.599
1318.826	0	659413	10hz	3	2	0	2	0	14.0	0.0	14.0	0.0						1421.812758699998	1428.598949299998	1428.598949299998	7.0	['7', 'return']	[3.7728759000019636, 5.030403900000238]	6.78	5.08	2.0	10hz	low_pain	45.7			sub-027	250	27	45.7	47.8	COM11	COM16	COM3	2024-03-19_13h50.28.656	001-EEG_SVR_Officel	2022.2.5	144.48298929358614		6.7719999999999345	1_sub-pilot027_SVR_EEG_block3-4.protocol.csv	step31	4273	424.378	STIMULATE	45.9	45.6	45.6	45.6	45.7	31	1330.599
1324.658	0	662329	10/Lo	2	2	0	2	0	14.0	0.0	14.0	0.0						1421.812758699998	1428.598949299998	1428.598949299998	7.0	['7', 'return']	[3.7728759000019636, 5.030403900000238]	6.78	5.08	2.0	10hz	low_pain	45.7			sub-027	250	27	45.7	47.8	COM11	COM16	COM3	2024-03-19_13h50.28.656	001-EEG_SVR_Officel	2022.2.5	144.48298929358614		5.08199999999988	1_sub-pilot027_SVR_EEG_block3-4.protocol.csv	step31	4273	424.378	STIMULATE	45.9	45.6	45.6	45.6	45.7	31	1330.599
1336.882	0	668441	wait	20	2	0	2	0	15.0	0.0	15.0	0.0						1446.642358899997	1451.8794774999988	1451.8794774999988	8.5	['8', 'a', '5', 'return']	[4.815037599997595, 5.446994899997662, 5.727101299999049, 6.495292999999947]	5.23	5.89	3.0	40hz	high_pain	47.8			sub-027	250	27	45.7	47.8	COM11	COM16	COM3	2024-03-19_13h50.28.656	001-EEG_SVR_Officel	2022.2.5	144.48298929358614		12.97400000000016	1_sub-pilot027_SVR_EEG_block3-4.protocol.csv	step33	4515	448.396	STIMULATE	47.8	47.8	47.8	47.8	47.7	33	1354.617
1342.108	0	671054	40hz	9	2	0	2	0	15.0	0.0	15.0	0.0						1446.642358899997	1451.8794774999988	1451.8794774999988	8.5	['8', 'a', '5', 'return']	[4.815037599997595, 5.446994899997662, 5.727101299999049, 6.495292999999947]	5.23	5.89	3.0	40hz	high_pain	47.8			sub-027	250	27	45.7	47.8	COM11	COM16	COM3	2024-03-19_13h50.28.656	001-EEG_SVR_Officel	2022.2.5	144.48298929358614		5.225999999999885	1_sub-pilot027_SVR_EEG_block3-4.protocol.csv	step33	4515	448.396	STIMULATE	47.8	47.8	47.8	47.8	47.7	33	1354.617
1348.752	0	674376	40/Hi	7	2	0	2	0	15.0	0.0	15.0	0.0						1446.642358899997	1451.8794774999988	1451.8794774999988	8.5	['8', 'a', '5', 'return']	[4.815037599997595, 5.446994899997662, 5.727101299999049, 6.495292999999947]	5.23	5.89	3.0	40hz	high_pain	47.8			sub-027	250	27	45.7	47.8	COM11	COM16	COM3	2024-03-19_13h50.28.656	001-EEG_SVR_Officel	2022.2.5	144.48298929358614		5.8940000000000055	1_sub-pilot027_SVR_EEG_block3-4.protocol.csv	step33	4515	448.396	STIMULATE	47.8	47.8	47.8	47.8	47.7	33	1354.617
1421.788	0	710894	wait	20	3	0	3	0	0.0	0.0	0.0	0.0				p	0.4373435000015888	1531.5487168	1538.924622399998	1538.924622399998	7.5	['7', 'a', '5', 'return']	[3.8069045999982336, 4.432162399996741, 4.65488059999916, 5.583368399999017]	7.37	5.57	0.0	20hz	high_pain	47.8			sub-027	250	27	45.7	47.8	COM11	COM16	COM3	2024-03-19_13h50.28.656	001-EEG_SVR_Officel	2022.2.5	144.48298929358614		73.78600000000006	1_sub-pilot027_SVR_EEG_block3-4.protocol.csv	step35	5386	535.252	STIMULATE	47.9	47.8	47.7	47.8	48.2	35	1441.3899999999999
1429.152	0	714576	20hz	6	3	0	3	0	0.0	0.0	0.0	0.0				p	0.4373435000015888	1531.5487168	1538.924622399998	1538.924622399998	7.5	['7', 'a', '5', 'return']	[3.8069045999982336, 4.432162399996741, 4.65488059999916, 5.583368399999017]	7.37	5.57	0.0	20hz	high_pain	47.8			sub-027	250	27	45.7	47.8	COM11	COM16	COM3	2024-03-19_13h50.28.656	001-EEG_SVR_Officel	2022.2.5	144.48298929358614		7.364000000000033	1_sub-pilot027_SVR_EEG_block3-4.protocol.csv	step35	5386	535.252	STIMULATE	47.9	47.8	47.7	47.8	48.2	35	1441.3899999999999
1435.478	0	717739	20/Hi	4	3	0	3	0	0.0	0.0	0.0	0.0				p	0.4373435000015888	1531.5487168	1538.924622399998	1538.924622399998	7.5	['7', 'a', '5', 'return']	[3.8069045999982336, 4.432162399996741, 4.65488059999916, 5.583368399999017]	7.37	5.57	0.0	20hz	high_pain	47.8			sub-027	250	27	45.7	47.8	COM11	COM16	COM3	2024-03-19_13h50.28.656	001-EEG_SVR_Officel	2022.2.5	144.48298929358614		5.576000000000022	1_sub-pilot027_SVR_EEG_block3-4.protocol.csv	step35	5386	535.252	STIMULATE	47.9	47.8	47.7	47.8	48.2	35	1441.3899999999999
1447.756	0	723878	wait	20	3	0	3	0	1.0	0.0	1.0	0.0						1557.5171582999974	1563.399892699999	1563.399892699999	8.5	['8', 'a', '5', 'return']	[4.63554060000024, 5.092490999999427, 5.323772400002781, 5.995716500001436]	5.87	5.19	1.0	10hz	high_pain	47.8			sub-027	250	27	45.7	47.8	COM11	COM16	COM3	2024-03-19_13h50.28.656	001-EEG_SVR_Officel	2022.2.5	144.48298929358614		13.02800000000002	1_sub-pilot027_SVR_EEG_block3-4.protocol.csv	step37	5628	559.246	STIMULATE	47.8	47.8	47.8	47.8	48.0	37	1465.384
1453.626	0	726813	10hz	3	3	0	3	0	1.0	0.0	1.0	0.0						1557.5171582999974	1563.399892699999	1563.399892699999	8.5	['8', 'a', '5', 'return']	[4.63554060000024, 5.092490999999427, 5.323772400002781, 5.995716500001436]	5.87	5.19	1.0	10hz	high_pain	47.8			sub-027	250	27	45.7	47.8	COM11	COM16	COM3	2024-03-19_13h50.28.656	001-EEG_SVR_Officel	2022.2.5	144.48298929358614		5.869999999999891	1_sub-pilot027_SVR_EEG_block3-4.protocol.csv	step37	5628	559.246	STIMULATE	47.8	47.8	47.8	47.8	48.0	37	1465.384
1459.57	0	729785	10/Hi	1	3	0	3	0	1.0	0.0	1.0	0.0						1557.5171582999974	1563.399892699999	1563.399892699999	8.5	['8', 'a', '5', 'return']	[4.63554060000024, 5.092490999999427, 5.323772400002781, 5.995716500001436]	5.87	5.19	1.0	10hz	high_pain	47.8			sub-027	250	27	45.7	47.8	COM11	COM16	COM3	2024-03-19_13h50.28.656	001-EEG_SVR_Officel	2022.2.5	144.48298929358614		5.19399999999996	1_sub-pilot027_SVR_EEG_block3-4.protocol.csv	step37	5628	559.246	STIMULATE	47.8	47.8	47.8	47.8	48.0	37	1465.384
1472.648	0	736324	wait	20	3	0	3	0	2.0	0.0	2.0	0.0						1582.4089931999988	1590.1879001999987	1590.1879001999987	6.0	['6', 'return']	[3.2521675000025425, 4.1006311000019195]	7.77	5.35	2.0	40hz	low_pain	45.7			sub-027	250	27	45.7	47.8	COM11	COM16	COM3	2024-03-19_13h50.28.656	001-EEG_SVR_Officel	2022.2.5	144.48298929358614		13.827999999999975	1_sub-pilot027_SVR_EEG_block3-4.protocol.csv	step39	5899	586.165	STIMULATE	45.7	45.6	45.6	45.6	45.7	39	1492.3029999999999
1480.416	0	740208	40hz	9	3	0	3	0	2.0	0.0	2.0	0.0						1582.4089931999988	1590.1879001999987	1590.1879001999987	6.0	['6', 'return']	[3.2521675000025425, 4.1006311000019195]	7.77	5.35	2.0	40hz	low_pain	45.7			sub-027	250	27	45.7	47.8	COM11	COM16	COM3	2024-03-19_13h50.28.656	001-EEG_SVR_Officel	2022.2.5	144.48298929358614		7.768000000000029	1_sub-pilot027_SVR_EEG_block3-4.protocol.csv	step39	5899	586.165	STIMULATE	45.7	45.6	45.6	45.6	45.7	39	1492.3029999999999
1486.518	0	743259	40/Lo	8	3	0	3	0	2.0	0.0	2.0	0.0						1582.4089931999988	1590.1879001999987	1590.1879001999987	6.0	['6', 'return']	[3.2521675000025425, 4.1006311000019195]	7.77	5.35	2.0	40hz	low_pain	45.7			sub-027	250	27	45.7	47.8	COM11	COM16	COM3	2024-03-19_13h50.28.656	001-EEG_SVR_Officel	2022.2.5	144.48298929358614		5.352000000000089	1_sub-pilot027_SVR_EEG_block3-4.protocol.csv	step39	5899	586.165	STIMULATE	45.7	45.6	45.6	45.6	45.7	39	1492.3029999999999
1497.546	0	748773	wait	20	3	0	3	0	3.0	0.0	3.0	0.0						1607.3080009999976	1613.926681099998	1613.926681099998	8.8	['8', 'a', '8', 'return']	[5.621181399998022, 6.156676700000389, 6.660333299998456, 7.605594500000734]	6.61	5.86	3.0	controle	high_pain	47.8			sub-027	250	27	45.7	47.8	COM11	COM16	COM3	2024-03-19_13h50.28.656	001-EEG_SVR_Officel	2022.2.5	144.48298929358614		11.77800000000002	1_sub-pilot027_SVR_EEG_block3-4.protocol.csv	step41	6144	610.48	STIMULATE	47.8	47.8	47.8	47.8	47.8	41	1516.618
1504.154	0	752077	CNhz	12	3	0	3	0	3.0	0.0	3.0	0.0						1607.3080009999976	1613.926681099998	1613.926681099998	8.8	['8', 'a', '8', 'return']	[5.621181399998022, 6.156676700000389, 6.660333299998456, 7.605594500000734]	6.61	5.86	3.0	controle	high_pain	47.8			sub-027	250	27	45.7	47.8	COM11	COM16	COM3	2024-03-19_13h50.28.656	001-EEG_SVR_Officel	2022.2.5	144.48298929358614		6.607999999999947	1_sub-pilot027_SVR_EEG_block3-4.protocol.csv	step41	6144	610.48	STIMULATE	47.8	47.8	47.8	47.8	47.8	41	1516.618
1510.764	0	755382	CN/Hi	10	3	0	3	0	3.0	0.0	3.0	0.0						1607.3080009999976	1613.926681099998	1613.926681099998	8.8	['8', 'a', '8', 'return']	[5.621181399998022, 6.156676700000389, 6.660333299998456, 7.605594500000734]	6.61	5.86	3.0	controle	high_pain	47.8			sub-027	250	27	45.7	47.8	COM11	COM16	COM3	2024-03-19_13h50.28.656	001-EEG_SVR_Officel	2022.2.5	144.48298929358614		5.8599999999999	1_sub-pilot027_SVR_EEG_block3-4.protocol.csv	step41	6144	610.48	STIMULATE	47.8	47.8	47.8	47.8	47.8	41	1516.618
1524.792	0	762396	wait	20	3	0	3	0	4.0	0.0	4.0	0.0						1634.5541760999986	1641.645345099998	1641.645345099998	8.0	['8', 'return']	[4.222502900000109, 5.446724399997038]	7.08	5.06	0.0	controle	high_pain	47.8			sub-027	250	27	45.7	47.8	COM11	COM16	COM3	2024-03-19_13h50.28.656	001-EEG_SVR_Officel	2022.2.5	144.48298929358614		14.77800000000002	1_sub-pilot027_SVR_EEG_block3-4.protocol.csv	step43	6416	637.497	STIMULATE	47.9	47.7	47.8	47.8	48.0	43	1543.635
1531.872	0	765936	CNhz	12	3	0	3	0	4.0	0.0	4.0	0.0						1634.5541760999986	1641.645345099998	1641.645345099998	8.0	['8', 'return']	[4.222502900000109, 5.446724399997038]	7.08	5.06	0.0	controle	high_pain	47.8			sub-027	250	27	45.7	47.8	COM11	COM16	COM3	2024-03-19_13h50.28.656	001-EEG_SVR_Officel	2022.2.5	144.48298929358614		7.080000000000155	1_sub-pilot027_SVR_EEG_block3-4.protocol.csv	step43	6416	637.497	STIMULATE	47.9	47.7	47.8	47.8	48.0	43	1543.635
1537.682	0	768841	CN/Hi	10	3	0	3	0	4.0	0.0	4.0	0.0						1634.5541760999986	1641.645345099998	1641.645345099998	8.0	['8', 'return']	[4.222502900000109, 5.446724399997038]	7.08	5.06	0.0	controle	high_pain	47.8			sub-027	250	27	45.7	47.8	COM11	COM16	COM3	2024-03-19_13h50.28.656	001-EEG_SVR_Officel	2022.2.5	144.48298929358614		5.059999999999945	1_sub-pilot027_SVR_EEG_block3-4.protocol.csv	step43	6416	637.497	STIMULATE	47.9	47.7	47.8	47.8	48.0	43	1543.635
1550.344	0	775172	wait	20	3	0	3	0	5.0	0.0	5.0	0.0						1660.1059451999972	1667.9540554999985	1667.9540554999985	1.5	['1', 'a', '5', 'return']	[6.5217837000018335, 7.057620900002803, 7.226073800000449, 8.418342799999664]	7.84	5.08	1.0	40hz	low_pain	45.7			sub-027	250	27	45.7	47.8	COM11	COM16	COM3	2024-03-19_13h50.28.656	001-EEG_SVR_Officel	2022.2.5	144.48298929358614		13.412000000000035	1_sub-pilot027_SVR_EEG_block3-4.protocol.csv	step45	6681	663.73	STIMULATE	45.7	45.6	45.6	45.6	45.8	45	1569.868
1558.18	0	779090	40hz	9	3	0	3	0	5.0	0.0	5.0	0.0						1660.1059451999972	1667.9540554999985	1667.9540554999985	1.5	['1', 'a', '5', 'return']	[6.5217837000018335, 7.057620900002803, 7.226073800000449, 8.418342799999664]	7.84	5.08	1.0	40hz	low_pain	45.7			sub-027	250	27	45.7	47.8	COM11	COM16	COM3	2024-03-19_13h50.28.656	001-EEG_SVR_Officel	2022.2.5	144.48298929358614		7.836000000000013	1_sub-pilot027_SVR_EEG_block3-4.protocol.csv	step45	6681	663.73	STIMULATE	45.7	45.6	45.6	45.6	45.8	45	1569.868
1564.012	0	782006	40/Lo	8	3	0	3	0	5.0	0.0	5.0	0.0						1660.1059451999972	1667.9540554999985	1667.9540554999985	1.5	['1', 'a', '5', 'return']	[6.5217837000018335, 7.057620900002803, 7.226073800000449, 8.418342799999664]	7.84	5.08	1.0	40hz	low_pain	45.7			sub-027	250	27	45.7	47.8	COM11	COM16	COM3	2024-03-19_13h50.28.656	001-EEG_SVR_Officel	2022.2.5	144.48298929358614		5.08199999999988	1_sub-pilot027_SVR_EEG_block3-4.protocol.csv	step45	6681	663.73	STIMULATE	45.7	45.6	45.6	45.6	45.8	45	1569.868
1579.632	0	789816	wait	20	3	0	3	0	6.0	0.0	6.0	0.0						1689.3940924999988	1696.2213360999997	1696.2213360999997	6.0	['6', 'return']	[3.2063921999979357, 4.094528499997978]	6.82	6.39	2.0	20hz	low_pain	45.7			sub-027	250	27	45.7	47.8	COM11	COM16	COM3	2024-03-19_13h50.28.656	001-EEG_SVR_Officel	2022.2.5	144.48298929358614		16.37000000000012	1_sub-pilot027_SVR_EEG_block3-4.protocol.csv	step47	6979	693.368	STIMULATE	45.7	45.6	45.6	45.6	45.7	47	1599.506
1586.448	0	793224	20hz	6	3	0	3	0	6.0	0.0	6.0	0.0						1689.3940924999988	1696.2213360999997	1696.2213360999997	6.0	['6', 'return']	[3.2063921999979357, 4.094528499997978]	6.82	6.39	2.0	20hz	low_pain	45.7			sub-027	250	27	45.7	47.8	COM11	COM16	COM3	2024-03-19_13h50.28.656	001-EEG_SVR_Officel	2022.2.5	144.48298929358614		6.816000000000031	1_sub-pilot027_SVR_EEG_block3-4.protocol.csv	step47	6979	693.368	STIMULATE	45.7	45.6	45.6	45.6	45.7	47	1599.506
1593.592	0	796796	20/Lo	5	3	0	3	0	6.0	0.0	6.0	0.0						1689.3940924999988	1696.2213360999997	1696.2213360999997	6.0	['6', 'return']	[3.2063921999979357, 4.094528499997978]	6.82	6.39	2.0	20hz	low_pain	45.7			sub-027	250	27	45.7	47.8	COM11	COM16	COM3	2024-03-19_13h50.28.656	001-EEG_SVR_Officel	2022.2.5	144.48298929358614		6.3940000000000055	1_sub-pilot027_SVR_EEG_block3-4.protocol.csv	step47	6979	693.368	STIMULATE	45.7	45.6	45.6	45.6	45.7	47	1599.506
1603.572	0	801786	wait	20	3	0	3	0	7.0	0.0	7.0	0.0						1713.3349675999998	1720.5510614999985	1720.5510614999985	7.5	['7', 'a', '5', 'return']	[4.094120399997337, 4.724595899999258, 4.884251999999833, 5.5721134999985225]	7.21	5.78	3.0	20hz	low_pain	45.7			sub-027	250	27	45.7	47.8	COM11	COM16	COM3	2024-03-19_13h50.28.656	001-EEG_SVR_Officel	2022.2.5	144.48298929358614		10.72999999999979	1_sub-pilot027_SVR_EEG_block3-4.protocol.csv	step49	7219	717.139	STIMULATE	45.6	45.6	45.6	45.6	45.7	49	1623.277
1610.778	0	805389	20hz	6	3	0	3	0	7.0	0.0	7.0	0.0						1713.3349675999998	1720.5510614999985	1720.5510614999985	7.5	['7', 'a', '5', 'return']	[4.094120399997337, 4.724595899999258, 4.884251999999833, 5.5721134999985225]	7.21	5.78	3.0	20hz	low_pain	45.7			sub-027	250	27	45.7	47.8	COM11	COM16	COM3	2024-03-19_13h50.28.656	001-EEG_SVR_Officel	2022.2.5	144.48298929358614		7.206000000000131	1_sub-pilot027_SVR_EEG_block3-4.protocol.csv	step49	7219	717.139	STIMULATE	45.6	45.6	45.6	45.6	45.7	49	1623.277
1617.312	0	808656	20/Lo	5	3	0	3	0	7.0	0.0	7.0	0.0						1713.3349675999998	1720.5510614999985	1720.5510614999985	7.5	['7', 'a', '5', 'return']	[4.094120399997337, 4.724595899999258, 4.884251999999833, 5.5721134999985225]	7.21	5.78	3.0	20hz	low_pain	45.7			sub-027	250	27	45.7	47.8	COM11	COM16	COM3	2024-03-19_13h50.28.656	001-EEG_SVR_Officel	2022.2.5	144.48298929358614		5.783999999999878	1_sub-pilot027_SVR_EEG_block3-4.protocol.csv	step49	7219	717.139	STIMULATE	45.6	45.6	45.6	45.6	45.7	49	1623.277
1629.382	0	814691	wait	20	3	0	3	0	8.0	0.0	8.0	0.0						1739.1435143999988	1746.449740199998	1746.449740199998	7.5	['7', 'a', '5', 'return']	[4.082152399998449, 4.68956099999923, 4.8901522000014666, 5.579078800001298]	7.3	5.43	0.0	40hz	high_pain	47.8			sub-027	250	27	45.7	47.8	COM11	COM16	COM3	2024-03-19_13h50.28.656	001-EEG_SVR_Officel	2022.2.5	144.48298929358614		12.820000000000164	1_sub-pilot027_SVR_EEG_block3-4.protocol.csv	step51	7475	742.61	STIMULATE	47.8	47.8	47.8	47.8	48.1	51	1648.748
1636.676	0	818338	40hz	9	3	0	3	0	8.0	0.0	8.0	0.0						1739.1435143999988	1746.449740199998	1746.449740199998	7.5	['7', 'a', '5', 'return']	[4.082152399998449, 4.68956099999923, 4.8901522000014666, 5.579078800001298]	7.3	5.43	0.0	40hz	high_pain	47.8			sub-027	250	27	45.7	47.8	COM11	COM16	COM3	2024-03-19_13h50.28.656	001-EEG_SVR_Officel	2022.2.5	144.48298929358614		7.293999999999869	1_sub-pilot027_SVR_EEG_block3-4.protocol.csv	step51	7475	742.61	STIMULATE	47.8	47.8	47.8	47.8	48.1	51	1648.748
1642.854	0	821427	40/Hi	7	3	0	3	0	8.0	0.0	8.0	0.0						1739.1435143999988	1746.449740199998	1746.449740199998	7.5	['7', 'a', '5', 'return']	[4.082152399998449, 4.68956099999923, 4.8901522000014666, 5.579078800001298]	7.3	5.43	0.0	40hz	high_pain	47.8			sub-027	250	27	45.7	47.8	COM11	COM16	COM3	2024-03-19_13h50.28.656	001-EEG_SVR_Officel	2022.2.5	144.48298929358614		5.428000000000111	1_sub-pilot027_SVR_EEG_block3-4.protocol.csv	step51	7475	742.61	STIMULATE	47.8	47.8	47.8	47.8	48.1	51	1648.748
1655.288	0	827644	wait	20	3	0	3	0	9.0	0.0	9.0	0.0						1765.049082999998	1772.5917330999982	1772.5917330999982	7.5	['7', 'a', '5', 'return']	[6.259427799999685, 6.716987599997083, 7.0514729999995325, 7.844512899999245]	7.53	5.25	1.0	controle	high_pain	47.8			sub-027	250	27	45.7	47.8	COM11	COM16	COM3	2024-03-19_13h50.28.656	001-EEG_SVR_Officel	2022.2.5	144.48298929358614		13.183999999999969	1_sub-pilot027_SVR_EEG_block3-4.protocol.csv	step53	7735	768.585	STIMULATE	47.9	47.8	47.8	47.8	47.8	53	1674.723
1662.818	0	831409	CNhz	12	3	0	3	0	9.0	0.0	9.0	0.0						1765.049082999998	1772.5917330999982	1772.5917330999982	7.5	['7', 'a', '5', 'return']	[6.259427799999685, 6.716987599997083, 7.0514729999995325, 7.844512899999245]	7.53	5.25	1.0	controle	high_pain	47.8			sub-027	250	27	45.7	47.8	COM11	COM16	COM3	2024-03-19_13h50.28.656	001-EEG_SVR_Officel	2022.2.5	144.48298929358614		7.529999999999973	1_sub-pilot027_SVR_EEG_block3-4.protocol.csv	step53	7735	768.585	STIMULATE	47.9	47.8	47.8	47.8	47.8	53	1674.723
1668.816	0	834408	CN/Hi	10	3	0	3	0	9.0	0.0	9.0	0.0						1765.049082999998	1772.5917330999982	1772.5917330999982	7.5	['7', 'a', '5', 'return']	[6.259427799999685, 6.716987599997083, 7.0514729999995325, 7.844512899999245]	7.53	5.25	1.0	controle	high_pain	47.8			sub-027	250	27	45.7	47.8	COM11	COM16	COM3	2024-03-19_13h50.28.656	001-EEG_SVR_Officel	2022.2.5	144.48298929358614		5.248000000000047	1_sub-pilot027_SVR_EEG_block3-4.protocol.csv	step53	7735	768.585	STIMULATE	47.9	47.8	47.8	47.8	47.8	53	1674.723
1683.692	0	841846	wait	20	3	0	3	0	10.0	0.0	10.0	0.0						1793.4552955	1799.1642888999995	1799.1642888999995	8.5	['8', 'a', '5', 'return']	[3.2477376999995613, 3.8549686999976984, 3.9831623999998556, 4.848897699997906]	5.7	5.74	2.0	20hz	high_pain	47.8			sub-027	250	27	45.7	47.8	COM11	COM16	COM3	2024-03-19_13h50.28.656	001-EEG_SVR_Officel	2022.2.5	144.48298929358614		15.625999999999976	1_sub-pilot027_SVR_EEG_block3-4.protocol.csv	step55	7999	795.715	STIMULATE	47.8	47.8	47.8	47.8	47.8	55	1701.853
1689.39	0	844695	20hz	6	3	0	3	0	10.0	0.0	10.0	0.0						1793.4552955	1799.1642888999995	1799.1642888999995	8.5	['8', 'a', '5', 'return']	[3.2477376999995613, 3.8549686999976984, 3.9831623999998556, 4.848897699997906]	5.7	5.74	2.0	20hz	high_pain	47.8			sub-027	250	27	45.7	47.8	COM11	COM16	COM3	2024-03-19_13h50.28.656	001-EEG_SVR_Officel	2022.2.5	144.48298929358614		5.698000000000093	1_sub-pilot027_SVR_EEG_block3-4.protocol.csv	step55	7999	795.715	STIMULATE	47.8	47.8	47.8	47.8	47.8	55	1701.853
1695.882	0	847941	20/Hi	4	3	0	3	0	10.0	0.0	10.0	0.0						1793.4552955	1799.1642888999995	1799.1642888999995	8.5	['8', 'a', '5', 'return']	[3.2477376999995613, 3.8549686999976984, 3.9831623999998556, 4.848897699997906]	5.7	5.74	2.0	20hz	high_pain	47.8			sub-027	250	27	45.7	47.8	COM11	COM16	COM3	2024-03-19_13h50.28.656	001-EEG_SVR_Officel	2022.2.5	144.48298929358614		5.741999999999962	1_sub-pilot027_SVR_EEG_block3-4.protocol.csv	step55	7999	795.715	STIMULATE	47.8	47.8	47.8	47.8	47.8	55	1701.853
1707.264	0	853632	wait	20	3	0	3	0	11.0	0.0	11.0	0.0						1817.0271017999985	1823.2993843999973	1823.2993843999973	6.0	['6', 'return']	[3.6885801999997057, 4.393796399999701]	6.26	5.77	3.0	10hz	low_pain	45.7			sub-027	250	27	45.7	47.8	COM11	COM16	COM3	2024-03-19_13h50.28.656	001-EEG_SVR_Officel	2022.2.5	144.48298929358614		12.131999999999834	1_sub-pilot027_SVR_EEG_block3-4.protocol.csv	step57	8230	819.756	STIMULATE	45.6	45.6	45.6	45.7	45.7	57	1725.894
1713.524	0	856762	10hz	3	3	0	3	0	11.0	0.0	11.0	0.0						1817.0271017999985	1823.2993843999973	1823.2993843999973	6.0	['6', 'return']	[3.6885801999997057, 4.393796399999701]	6.26	5.77	3.0	10hz	low_pain	45.7			sub-027	250	27	45.7	47.8	COM11	COM16	COM3	2024-03-19_13h50.28.656	001-EEG_SVR_Officel	2022.2.5	144.48298929358614		6.259999999999991	1_sub-pilot027_SVR_EEG_block3-4.protocol.csv	step57	8230	819.756	STIMULATE	45.6	45.6	45.6	45.7	45.7	57	1725.894
1720.044	0	860022	10/Lo	2	3	0	3	0	11.0	0.0	11.0	0.0						1817.0271017999985	1823.2993843999973	1823.2993843999973	6.0	['6', 'return']	[3.6885801999997057, 4.393796399999701]	6.26	5.77	3.0	10hz	low_pain	45.7			sub-027	250	27	45.7	47.8	COM11	COM16	COM3	2024-03-19_13h50.28.656	001-EEG_SVR_Officel	2022.2.5	144.48298929358614		5.770000000000209	1_sub-pilot027_SVR_EEG_block3-4.protocol.csv	step57	8230	819.756	STIMULATE	45.6	45.6	45.6	45.7	45.7	57	1725.894
1730.942	0	865471	wait	20	3	0	3	0	12.0	0.0	12.0	0.0						1840.703608599997	1848.4410660999963	1848.4410660999963	5.0	['5', 'return']	[6.026966000001266, 7.276003599999967]	7.73	5.27	0.0	40hz	low_pain	45.7			sub-027	250	27	45.7	47.8	COM11	COM16	COM3	2024-03-19_13h50.28.656	001-EEG_SVR_Officel	2022.2.5	144.48298929358614		11.64799999999991	1_sub-pilot027_SVR_EEG_block3-4.protocol.csv	step59	8465	844.438	STIMULATE	45.8	45.6	45.6	45.6	45.7	59	1750.576
1738.668	0	869334	40hz	9	3	0	3	0	12.0	0.0	12.0	0.0						1840.703608599997	1848.4410660999963	1848.4410660999963	5.0	['5', 'return']	[6.026966000001266, 7.276003599999967]	7.73	5.27	0.0	40hz	low_pain	45.7			sub-027	250	27	45.7	47.8	COM11	COM16	COM3	2024-03-19_13h50.28.656	001-EEG_SVR_Officel	2022.2.5	144.48298929358614		7.725999999999885	1_sub-pilot027_SVR_EEG_block3-4.protocol.csv	step59	8465	844.438	STIMULATE	45.8	45.6	45.6	45.6	45.7	59	1750.576
1744.686	0	872343	40/Lo	8	3	0	3	0	12.0	0.0	12.0	0.0						1840.703608599997	1848.4410660999963	1848.4410660999963	5.0	['5', 'return']	[6.026966000001266, 7.276003599999967]	7.73	5.27	0.0	40hz	low_pain	45.7			sub-027	250	27	45.7	47.8	COM11	COM16	COM3	2024-03-19_13h50.28.656	001-EEG_SVR_Officel	2022.2.5	144.48298929358614		5.268000000000029	1_sub-pilot027_SVR_EEG_block3-4.protocol.csv	step59	8465	844.438	STIMULATE	45.8	45.6	45.6	45.6	45.7	59	1750.576
1758.972	0	879486	wait	20	3	0	3	0	13.0	0.0	13.0	0.0						1868.7352064999975	1874.6247840999968	1874.6247840999968	6.0	['6', 'return']	[4.43421170000147, 5.07510209999964]	5.88	5.24	1.0	10hz	low_pain	45.7			sub-027	250	27	45.7	47.8	COM11	COM16	COM3	2024-03-19_13h50.28.656	001-EEG_SVR_Officel	2022.2.5	144.48298929358614		15.036000000000058	1_sub-pilot027_SVR_EEG_block3-4.protocol.csv	step61	8712	870.651	STIMULATE	45.7	45.6	45.6	45.6	45.8	61	1776.789
1764.85	0	882425	10hz	3	3	0	3	0	13.0	0.0	13.0	0.0						1868.7352064999975	1874.6247840999968	1874.6247840999968	6.0	['6', 'return']	[4.43421170000147, 5.07510209999964]	5.88	5.24	1.0	10hz	low_pain	45.7			sub-027	250	27	45.7	47.8	COM11	COM16	COM3	2024-03-19_13h50.28.656	001-EEG_SVR_Officel	2022.2.5	144.48298929358614		5.877999999999929	1_sub-pilot027_SVR_EEG_block3-4.protocol.csv	step61	8712	870.651	STIMULATE	45.7	45.6	45.6	45.6	45.8	61	1776.789
1770.842	0	885421	10/Lo	2	3	0	3	0	13.0	0.0	13.0	0.0						1868.7352064999975	1874.6247840999968	1874.6247840999968	6.0	['6', 'return']	[4.43421170000147, 5.07510209999964]	5.88	5.24	1.0	10hz	low_pain	45.7			sub-027	250	27	45.7	47.8	COM11	COM16	COM3	2024-03-19_13h50.28.656	001-EEG_SVR_Officel	2022.2.5	144.48298929358614		5.242000000000189	1_sub-pilot027_SVR_EEG_block3-4.protocol.csv	step61	8712	870.651	STIMULATE	45.7	45.6	45.6	45.6	45.8	61	1776.789
1782.946	0	891473	wait	20	3	0	3	0	14.0	0.0	14.0	0.0						1892.7094046999991	1897.7597558999987	1897.7597558999987	8.8	['8', 'a', '8', 'return']	[3.5560168999982125, 3.8692947999988974, 4.044675900000584, 4.795979700000316]	5.04	5.05	2.0	10hz	high_pain	47.8			sub-027	250	27	45.7	47.8	COM11	COM16	COM3	2024-03-19_13h50.28.656	001-EEG_SVR_Officel	2022.2.5	144.48298929358614		12.853999999999814	1_sub-pilot027_SVR_EEG_block3-4.protocol.csv	step63	8926	893.52	STIMULATE	48.0	47.8	47.8	47.8	47.8	63	1799.658
1787.984	0	893992	10hz	3	3	0	3	0	14.0	0.0	14.0	0.0						1892.7094046999991	1897.7597558999987	1897.7597558999987	8.8	['8', 'a', '8', 'return']	[3.5560168999982125, 3.8692947999988974, 4.044675900000584, 4.795979700000316]	5.04	5.05	2.0	10hz	high_pain	47.8			sub-027	250	27	45.7	47.8	COM11	COM16	COM3	2024-03-19_13h50.28.656	001-EEG_SVR_Officel	2022.2.5	144.48298929358614		5.038000000000011	1_sub-pilot027_SVR_EEG_block3-4.protocol.csv	step63	8926	893.52	STIMULATE	48.0	47.8	47.8	47.8	47.8	63	1799.658
1793.788	0	896894	10/Hi	1	3	0	3	0	14.0	0.0	14.0	0.0						1892.7094046999991	1897.7597558999987	1897.7597558999987	8.8	['8', 'a', '8', 'return']	[3.5560168999982125, 3.8692947999988974, 4.044675900000584, 4.795979700000316]	5.04	5.05	2.0	10hz	high_pain	47.8			sub-027	250	27	45.7	47.8	COM11	COM16	COM3	2024-03-19_13h50.28.656	001-EEG_SVR_Officel	2022.2.5	144.48298929358614		5.054000000000087	1_sub-pilot027_SVR_EEG_block3-4.protocol.csv	step63	8926	893.52	STIMULATE	48.0	47.8	47.8	47.8	47.8	63	1799.658
1805.812	0	902906	wait	20	3	0	3	0	15.0	0.0	15.0	0.0						1915.574569999997	1923.3320677999984	1923.3320677999984	8.0	['8', 'return']	[4.039601100001164, 4.729161100000056]	7.75	5.14	3.0	10hz	high_pain	47.8			sub-027	250	27	45.7	47.8	COM11	COM16	COM3	2024-03-19_13h50.28.656	001-EEG_SVR_Officel	2022.2.5	144.48298929358614		12.773999999999887	1_sub-pilot027_SVR_EEG_block3-4.protocol.csv	step65	9164	919.162	STIMULATE	47.8	47.7	47.8	47.8	47.8	65	1825.3000000000002
1813.556	0	906778	10hz	3	3	0	3	0	15.0	0.0	15.0	0.0						1915.574569999997	1923.3320677999984	1923.3320677999984	8.0	['8', 'return']	[4.039601100001164, 4.729161100000056]	7.75	5.14	3.0	10hz	high_pain	47.8			sub-027	250	27	45.7	47.8	COM11	COM16	COM3	2024-03-19_13h50.28.656	001-EEG_SVR_Officel	2022.2.5	144.48298929358614		7.744000000000142	1_sub-pilot027_SVR_EEG_block3-4.protocol.csv	step65	9164	919.162	STIMULATE	47.8	47.7	47.8	47.8	47.8	65	1825.3000000000002
1819.452	0	909726	10/Hi	1	3	0	3	0	15.0	0.0	15.0	0.0						1915.574569999997	1923.3320677999984	1923.3320677999984	8.0	['8', 'return']	[4.039601100001164, 4.729161100000056]	7.75	5.14	3.0	10hz	high_pain	47.8			sub-027	250	27	45.7	47.8	COM11	COM16	COM3	2024-03-19_13h50.28.656	001-EEG_SVR_Officel	2022.2.5	144.48298929358614		5.145999999999958	1_sub-pilot027_SVR_EEG_block3-4.protocol.csv	step65	9164	919.162	STIMULATE	47.8	47.7	47.8	47.8	47.8	65	1825.3000000000002
1893.446	0	946723	wait	20	4	0	4	0	0.0	0.0	0.0	0.0				p	1.606367799999134	2003.2099552	2008.9465375	2008.9465375	2.5	['2', 'a', '5', 'return']	[3.914070399998309, 4.361063500000455, 4.529657600000064, 5.4017796000007365]	5.73	5.32	0.0	40hz	low_pain	45.7			sub-027	250	27	45.7	47.8	COM11	COM16	COM3	2024-03-19_13h50.28.656	001-EEG_SVR_Officel	2022.2.5	144.48298929358614		74.74399999999991	2_sub-pilot027_SVR_EEG_block5-6.protocol.csv	step3	731	72.901	STIMULATE	45.9	45.7	45.6	45.7	45.9	3	1911.021
1899.17	0	949585	40hz	9	4	0	4	0	0.0	0.0	0.0	0.0				p	1.606367799999134	2003.2099552	2008.9465375	2008.9465375	2.5	['2', 'a', '5', 'return']	[3.914070399998309, 4.361063500000455, 4.529657600000064, 5.4017796000007365]	5.73	5.32	0.0	40hz	low_pain	45.7			sub-027	250	27	45.7	47.8	COM11	COM16	COM3	2024-03-19_13h50.28.656	001-EEG_SVR_Officel	2022.2.5	144.48298929358614		5.72400000000016	2_sub-pilot027_SVR_EEG_block5-6.protocol.csv	step3	731	72.901	STIMULATE	45.9	45.7	45.6	45.7	45.9	3	1911.021
1905.24	0	952620	40/Lo	8	4	0	4	0	0.0	0.0	0.0	0.0				p	1.606367799999134	2003.2099552	2008.9465375	2008.9465375	2.5	['2', 'a', '5', 'return']	[3.914070399998309, 4.361063500000455, 4.529657600000064, 5.4017796000007365]	5.73	5.32	0.0	40hz	low_pain	45.7			sub-027	250	27	45.7	47.8	COM11	COM16	COM3	2024-03-19_13h50.28.656	001-EEG_SVR_Officel	2022.2.5	144.48298929358614		5.319999999999936	2_sub-pilot027_SVR_EEG_block5-6.protocol.csv	step3	731	72.901	STIMULATE	45.9	45.7	45.6	45.7	45.9	3	1911.021
1917.596	0	958798	wait	20	4	0	4	0	1.0	0.0	1.0	0.0						2027.3585301999992	2035.2900379999992	2035.2900379999992	7.8	['7', 'a', '8', 'return']	[4.761403299999074, 5.2027356999969925, 5.402041699999245, 6.618748799999594]	7.92	6.39	1.0	40hz	high_pain	47.8			sub-027	250	27	45.7	47.8	COM11	COM16	COM3	2024-03-19_13h50.28.656	001-EEG_SVR_Officel	2022.2.5	144.48298929358614		13.105999999999995	2_sub-pilot027_SVR_EEG_block5-6.protocol.csv	step5	1008	100.428	STIMULATE	47.9	47.8	47.8	47.8	47.9	5	1938.548
1925.514	0	962757	40hz	9	4	0	4	0	1.0	0.0	1.0	0.0						2027.3585301999992	2035.2900379999992	2035.2900379999992	7.8	['7', 'a', '8', 'return']	[4.761403299999074, 5.2027356999969925, 5.402041699999245, 6.618748799999594]	7.92	6.39	1.0	40hz	high_pain	47.8			sub-027	250	27	45.7	47.8	COM11	COM16	COM3	2024-03-19_13h50.28.656	001-EEG_SVR_Officel	2022.2.5	144.48298929358614		7.917999999999893	2_sub-pilot027_SVR_EEG_block5-6.protocol.csv	step5	1008	100.428	STIMULATE	47.9	47.8	47.8	47.8	47.9	5	1938.548
1932.658	0	966329	40/Hi	7	4	0	4	0	1.0	0.0	1.0	0.0						2027.3585301999992	2035.2900379999992	2035.2900379999992	7.8	['7', 'a', '8', 'return']	[4.761403299999074, 5.2027356999969925, 5.402041699999245, 6.618748799999594]	7.92	6.39	1.0	40hz	high_pain	47.8			sub-027	250	27	45.7	47.8	COM11	COM16	COM3	2024-03-19_13h50.28.656	001-EEG_SVR_Officel	2022.2.5	144.48298929358614		6.3940000000000055	2_sub-pilot027_SVR_EEG_block5-6.protocol.csv	step5	1008	100.428	STIMULATE	47.9	47.8	47.8	47.8	47.9	5	1938.548
1945.152	0	972576	wait	20	4	0	4	0	2.0	0.0	2.0	0.0						2054.9164509999973	2060.695915999997	2060.695915999997	6.0	['6', 'return']	[4.123807299998589, 4.828464399997756]	5.77	5.17	2.0	20hz	low_pain	45.7			sub-027	250	27	45.7	47.8	COM11	COM16	COM3	2024-03-19_13h50.28.656	001-EEG_SVR_Officel	2022.2.5	144.48298929358614		13.244000000000142	2_sub-pilot027_SVR_EEG_block5-6.protocol.csv	step7	1251	124.543	STIMULATE	45.6	45.6	45.6	45.6	45.7	7	1962.663
1950.92	0	975460	20hz	6	4	0	4	0	2.0	0.0	2.0	0.0						2054.9164509999973	2060.695915999997	2060.695915999997	6.0	['6', 'return']	[4.123807299998589, 4.828464399997756]	5.77	5.17	2.0	20hz	low_pain	45.7			sub-027	250	27	45.7	47.8	COM11	COM16	COM3	2024-03-19_13h50.28.656	001-EEG_SVR_Officel	2022.2.5	144.48298929358614		5.768000000000029	2_sub-pilot027_SVR_EEG_block5-6.protocol.csv	step7	1251	124.543	STIMULATE	45.6	45.6	45.6	45.6	45.7	7	1962.663
1956.842	0	978421	20/Lo	5	4	0	4	0	2.0	0.0	2.0	0.0						2054.9164509999973	2060.695915999997	2060.695915999997	6.0	['6', 'return']	[4.123807299998589, 4.828464399997756]	5.77	5.17	2.0	20hz	low_pain	45.7			sub-027	250	27	45.7	47.8	COM11	COM16	COM3	2024-03-19_13h50.28.656	001-EEG_SVR_Officel	2022.2.5	144.48298929358614		5.1720000000000255	2_sub-pilot027_SVR_EEG_block5-6.protocol.csv	step7	1251	124.543	STIMULATE	45.6	45.6	45.6	45.6	45.7	7	1962.663
1968.782	0	984391	wait	20	4	0	4	0	3.0	0.0	3.0	0.0						2078.545665999998	2086.303771799998	2086.303771799998	8.5	['8', 'a', '5', 'return']	[3.7475000000013097, 4.636987000001682, 4.9967584000005445, 5.693257300001278]	7.75	6.46	3.0	10hz	high_pain	47.8			sub-027	250	27	45.7	47.8	COM11	COM16	COM3	2024-03-19_13h50.28.656	001-EEG_SVR_Officel	2022.2.5	144.48298929358614		12.689999999999827	2_sub-pilot027_SVR_EEG_block5-6.protocol.csv	step9	1522	151.429	STIMULATE	47.8	47.8	47.7	47.7	47.8	9	1989.549
1976.526	0	988263	10hz	3	4	0	4	0	3.0	0.0	3.0	0.0						2078.545665999998	2086.303771799998	2086.303771799998	8.5	['8', 'a', '5', 'return']	[3.7475000000013097, 4.636987000001682, 4.9967584000005445, 5.693257300001278]	7.75	6.46	3.0	10hz	high_pain	47.8			sub-027	250	27	45.7	47.8	COM11	COM16	COM3	2024-03-19_13h50.28.656	001-EEG_SVR_Officel	2022.2.5	144.48298929358614		7.744000000000142	2_sub-pilot027_SVR_EEG_block5-6.protocol.csv	step9	1522	151.429	STIMULATE	47.8	47.8	47.7	47.7	47.8	9	1989.549
1983.742	0	991871	10/Hi	1	4	0	4	0	3.0	0.0	3.0	0.0						2078.545665999998	2086.303771799998	2086.303771799998	8.5	['8', 'a', '5', 'return']	[3.7475000000013097, 4.636987000001682, 4.9967584000005445, 5.693257300001278]	7.75	6.46	3.0	10hz	high_pain	47.8			sub-027	250	27	45.7	47.8	COM11	COM16	COM3	2024-03-19_13h50.28.656	001-EEG_SVR_Officel	2022.2.5	144.48298929358614		6.4659999999998945	2_sub-pilot027_SVR_EEG_block5-6.protocol.csv	step9	1522	151.429	STIMULATE	47.8	47.8	47.7	47.7	47.8	9	1989.549
1995.25	0	997625	wait	20	4	0	4	0	4.0	0.0	4.0	0.0						2105.0136066999985	2111.910283199999	2111.910283199999	8.0	['8', 'return']	[3.126688700001978, 3.5666061000010814]	6.89	5.01	0.0	controle	high_pain	47.8			sub-027	250	27	45.7	47.8	COM11	COM16	COM3	2024-03-19_13h50.28.656	001-EEG_SVR_Officel	2022.2.5	144.48298929358614		12.258000000000038	2_sub-pilot027_SVR_EEG_block5-6.protocol.csv	step11	1766	175.623	STIMULATE	47.8	47.7	47.8	47.8	48.1	11	2013.743
2002.134	0	1001067	CNhz	12	4	0	4	0	4.0	0.0	4.0	0.0						2105.0136066999985	2111.910283199999	2111.910283199999	8.0	['8', 'return']	[3.126688700001978, 3.5666061000010814]	6.89	5.01	0.0	controle	high_pain	47.8			sub-027	250	27	45.7	47.8	COM11	COM16	COM3	2024-03-19_13h50.28.656	001-EEG_SVR_Officel	2022.2.5	144.48298929358614		6.8840000000000146	2_sub-pilot027_SVR_EEG_block5-6.protocol.csv	step11	1766	175.623	STIMULATE	47.8	47.7	47.8	47.8	48.1	11	2013.743
2007.896	0	1003948	CN/Hi	10	4	0	4	0	4.0	0.0	4.0	0.0						2105.0136066999985	2111.910283199999	2111.910283199999	8.0	['8', 'return']	[3.126688700001978, 3.5666061000010814]	6.89	5.01	0.0	controle	high_pain	47.8			sub-027	250	27	45.7	47.8	COM11	COM16	COM3	2024-03-19_13h50.28.656	001-EEG_SVR_Officel	2022.2.5	144.48298929358614		5.011999999999944	2_sub-pilot027_SVR_EEG_block5-6.protocol.csv	step11	1766	175.623	STIMULATE	47.8	47.7	47.8	47.8	48.1	11	2013.743
