onset	duration	sample	trial_type	value	block.thisRepN	block.thisTrialN	block.thisN	block.thisIndex	reps.thisRepN	reps.thisTrialN	reps.thisN	reps.thisIndex	afrec_start	rec_start	rec_start_egi	key_resp.keys	key_resp.rt	wait_time_text.started	wait_time_text.stopped	therm_loca_text.started	subResponse	keyResp.keys	keyResp.rt	ITI_wait	wait_trigger	loca_thermode	Hz_condition	temp_condition	temp_valeur	text.started	text.stopped	participant	brightness	num_part	low	high	com_svr	com_thermode	com_eeg	date	expName	psychopyVersion	frameRate	Unnamed: 39	distance_from_previous	file	step	index	time	type	temp1	temp2	temp3	temp4	temp5	step_num	time_sync
70.974	0	35487	wait	20	0	0	0	0	0.0	0.0	0.0	0.0	68.97682389999682	68.78761869999289	1699029309.6613402	p	70.74204240000108	139.76109759999963	144.89361810000264	144.89361810000264	8.0	['8', 'return']	[2.86572359999991, 3.6332010999904014]	5.12	5.33	0.0	40hz	high_pain	45.5			sub-pilot014	250	14	43	45.5	COM11	COM7	COM3	2023-11-03_12h34.28.818	001-EEG_SVR_Officel	2022.2.5	142.64561978702923		70.974	0_sub-pilot014_SVR_EEG_block1-2.protocol.csv	step3	1205	120.317	STIMULATE	45.6	45.4	45.4	45.4	45.5	3	88.04599999999999
76.094	0	38047	40hz	9	0	0	0	0	0.0	0.0	0.0	0.0	68.97682389999682	68.78761869999289	1699029309.6613402	p	70.74204240000108	139.76109759999963	144.89361810000264	144.89361810000264	8.0	['8', 'return']	[2.86572359999991, 3.6332010999904014]	5.12	5.33	0.0	40hz	high_pain	45.5			sub-pilot014	250	14	43	45.5	COM11	COM7	COM3	2023-11-03_12h34.28.818	001-EEG_SVR_Officel	2022.2.5	142.64561978702923		5.11999999999999	0_sub-pilot014_SVR_EEG_block1-2.protocol.csv	step3	1205	120.317	STIMULATE	45.6	45.4	45.4	45.4	45.5	3	88.04599999999999
82.178	0	41089	40/Hi	7	0	0	0	0	0.0	0.0	0.0	0.0	68.97682389999682	68.78761869999289	1699029309.6613402	p	70.74204240000108	139.76109759999963	144.89361810000264	144.89361810000264	8.0	['8', 'return']	[2.86572359999991, 3.6332010999904014]	5.12	5.33	0.0	40hz	high_pain	45.5			sub-pilot014	250	14	43	45.5	COM11	COM7	COM3	2023-11-03_12h34.28.818	001-EEG_SVR_Officel	2022.2.5	142.64561978702923		5.334000000000003	0_sub-pilot014_SVR_EEG_block1-2.protocol.csv	step3	1205	120.317	STIMULATE	45.6	45.4	45.4	45.4	45.5	3	88.04599999999999
92.762	0	46381	wait	20	0	0	0	0	1.0	0.0	1.0	0.0						161.54848359999596	169.42439719999675	169.42439719999675	4.0	['4', 'return']	[3.3594523999927333, 4.063584899995476]	7.87	5.4	1.0	20hz	low_pain	43.0			sub-pilot014	250	14	43	45.5	COM11	COM7	COM3	2023-11-03_12h34.28.818	001-EEG_SVR_Officel	2022.2.5	142.64561978702923		11.334000000000003	0_sub-pilot014_SVR_EEG_block1-2.protocol.csv	step5	1453	144.901	STIMULATE	43.1	42.9	42.9	42.9	42.9	5	112.63000000000001
100.626	0	50313	20hz	6	0	0	0	0	1.0	0.0	1.0	0.0						161.54848359999596	169.42439719999675	169.42439719999675	4.0	['4', 'return']	[3.3594523999927333, 4.063584899995476]	7.87	5.4	1.0	20hz	low_pain	43.0			sub-pilot014	250	14	43	45.5	COM11	COM7	COM3	2023-11-03_12h34.28.818	001-EEG_SVR_Officel	2022.2.5	142.64561978702923		7.864000000000004	0_sub-pilot014_SVR_EEG_block1-2.protocol.csv	step5	1453	144.901	STIMULATE	43.1	42.9	42.9	42.9	42.9	5	112.63000000000001
106.778	0	53389	20/Lo	5	0	0	0	0	1.0	0.0	1.0	0.0						161.54848359999596	169.42439719999675	169.42439719999675	4.0	['4', 'return']	[3.3594523999927333, 4.063584899995476]	7.87	5.4	1.0	20hz	low_pain	43.0			sub-pilot014	250	14	43	45.5	COM11	COM7	COM3	2023-11-03_12h34.28.818	001-EEG_SVR_Officel	2022.2.5	142.64561978702923		5.402000000000001	0_sub-pilot014_SVR_EEG_block1-2.protocol.csv	step5	1453	144.901	STIMULATE	43.1	42.9	42.9	42.9	42.9	5	112.63000000000001
117.722	0	58861	wait	20	0	0	0	0	2.0	0.0	2.0	0.0						186.50991419999627	194.0390808999946	194.0390808999946	5.0	['5', 'return']	[3.4485043000022415, 4.289050400009728]	7.52	6.09	2.0	10hz	low_pain	43.0			sub-pilot014	250	14	43	45.5	COM11	COM7	COM3	2023-11-03_12h34.28.818	001-EEG_SVR_Officel	2022.2.5	142.64561978702923		11.693999999999988	0_sub-pilot014_SVR_EEG_block1-2.protocol.csv	step7	1707	170.113	STIMULATE	43.0	42.9	42.9	42.9	43.0	7	137.84199999999998
125.24	0	62620	10hz	3	0	0	0	0	2.0	0.0	2.0	0.0						186.50991419999627	194.0390808999946	194.0390808999946	5.0	['5', 'return']	[3.4485043000022415, 4.289050400009728]	7.52	6.09	2.0	10hz	low_pain	43.0			sub-pilot014	250	14	43	45.5	COM11	COM7	COM3	2023-11-03_12h34.28.818	001-EEG_SVR_Officel	2022.2.5	142.64561978702923		7.518000000000001	0_sub-pilot014_SVR_EEG_block1-2.protocol.csv	step7	1707	170.113	STIMULATE	43.0	42.9	42.9	42.9	43.0	7	137.84199999999998
132.078	0	66039	10/Lo	2	0	0	0	0	2.0	0.0	2.0	0.0						186.50991419999627	194.0390808999946	194.0390808999946	5.0	['5', 'return']	[3.4485043000022415, 4.289050400009728]	7.52	6.09	2.0	10hz	low_pain	43.0			sub-pilot014	250	14	43	45.5	COM11	COM7	COM3	2023-11-03_12h34.28.818	001-EEG_SVR_Officel	2022.2.5	142.64561978702923		6.088000000000008	0_sub-pilot014_SVR_EEG_block1-2.protocol.csv	step7	1707	170.113	STIMULATE	43.0	42.9	42.9	42.9	43.0	7	137.84199999999998
142.56	0	71280	wait	20	0	0	0	0	3.0	0.0	3.0	0.0						211.34663329999603	216.6176122999896	216.6176122999896	9.0	['9', 'return']	[2.997332400002051, 3.5742740999994567]	5.26	5.12	3.0	controle	high_pain	45.5			sub-pilot014	250	14	43	45.5	COM11	COM7	COM3	2023-11-03_12h34.28.818	001-EEG_SVR_Officel	2022.2.5	142.64561978702923		11.232	0_sub-pilot014_SVR_EEG_block1-2.protocol.csv	step9	1926	191.818	STIMULATE	45.6	45.4	45.4	45.5	45.5	9	159.54700000000003
147.818	0	73909	CNhz	12	0	0	0	0	3.0	0.0	3.0	0.0						211.34663329999603	216.6176122999896	216.6176122999896	9.0	['9', 'return']	[2.997332400002051, 3.5742740999994567]	5.26	5.12	3.0	controle	high_pain	45.5			sub-pilot014	250	14	43	45.5	COM11	COM7	COM3	2023-11-03_12h34.28.818	001-EEG_SVR_Officel	2022.2.5	142.64561978702923		5.25800000000001	0_sub-pilot014_SVR_EEG_block1-2.protocol.csv	step9	1926	191.818	STIMULATE	45.6	45.4	45.4	45.5	45.5	9	159.54700000000003
153.692	0	76846	CN/Hi	10	0	0	0	0	3.0	0.0	3.0	0.0						211.34663329999603	216.6176122999896	216.6176122999896	9.0	['9', 'return']	[2.997332400002051, 3.5742740999994567]	5.26	5.12	3.0	controle	high_pain	45.5			sub-pilot014	250	14	43	45.5	COM11	COM7	COM3	2023-11-03_12h34.28.818	001-EEG_SVR_Officel	2022.2.5	142.64561978702923		5.123999999999995	0_sub-pilot014_SVR_EEG_block1-2.protocol.csv	step9	1926	191.818	STIMULATE	45.6	45.4	45.4	45.5	45.5	9	159.54700000000003
164.416	0	82208	wait	20	0	0	0	0	4.0	0.0	4.0	0.0						233.20232569999644	240.46079479999025	240.46079479999025	5.0	['5', 'return']	[2.9622213000111515, 3.4824124000006123]	7.25	5.32	0.0	20hz	high_pain	45.5			sub-pilot014	250	14	43	45.5	COM11	COM7	COM3	2023-11-03_12h34.28.818	001-EEG_SVR_Officel	2022.2.5	142.64561978702923		11.47399999999999	0_sub-pilot014_SVR_EEG_block1-2.protocol.csv	step11	2168	215.849	STIMULATE	45.7	45.4	45.4	45.5	45.5	11	183.57799999999997
171.662	0	85831	20hz	6	0	0	0	0	4.0	0.0	4.0	0.0						233.20232569999644	240.46079479999025	240.46079479999025	5.0	['5', 'return']	[2.9622213000111515, 3.4824124000006123]	7.25	5.32	0.0	20hz	high_pain	45.5			sub-pilot014	250	14	43	45.5	COM11	COM7	COM3	2023-11-03_12h34.28.818	001-EEG_SVR_Officel	2022.2.5	142.64561978702923		7.246000000000009	0_sub-pilot014_SVR_EEG_block1-2.protocol.csv	step11	2168	215.849	STIMULATE	45.7	45.4	45.4	45.5	45.5	11	183.57799999999997
177.73	0	88865	20/Hi	4	0	0	0	0	4.0	0.0	4.0	0.0						233.20232569999644	240.46079479999025	240.46079479999025	5.0	['5', 'return']	[2.9622213000111515, 3.4824124000006123]	7.25	5.32	0.0	20hz	high_pain	45.5			sub-pilot014	250	14	43	45.5	COM11	COM7	COM3	2023-11-03_12h34.28.818	001-EEG_SVR_Officel	2022.2.5	142.64561978702923		5.317999999999984	0_sub-pilot014_SVR_EEG_block1-2.protocol.csv	step11	2168	215.849	STIMULATE	45.7	45.4	45.4	45.5	45.5	11	183.57799999999997
188.176	0	94088	wait	20	0	0	0	0	5.0	0.0	5.0	0.0						256.96291969998856	264.3041222999891	264.3041222999891	1.0	['1', 'return']	[3.8628802000021096, 4.638693600005354]	7.33	5.83	1.0	40hz	low_pain	43.0			sub-pilot014	250	14	43	45.5	COM11	COM7	COM3	2023-11-03_12h34.28.818	001-EEG_SVR_Officel	2022.2.5	142.64561978702923		11.195999999999998	0_sub-pilot014_SVR_EEG_block1-2.protocol.csv	step13	2413	240.166	STIMULATE	43.1	42.9	42.9	42.9	42.9	13	207.89499999999998
195.504	0	97752	40hz	9	0	0	0	0	5.0	0.0	5.0	0.0						256.96291969998856	264.3041222999891	264.3041222999891	1.0	['1', 'return']	[3.8628802000021096, 4.638693600005354]	7.33	5.83	1.0	40hz	low_pain	43.0			sub-pilot014	250	14	43	45.5	COM11	COM7	COM3	2023-11-03_12h34.28.818	001-EEG_SVR_Officel	2022.2.5	142.64561978702923		7.328000000000003	0_sub-pilot014_SVR_EEG_block1-2.protocol.csv	step13	2413	240.166	STIMULATE	43.1	42.9	42.9	42.9	42.9	13	207.89499999999998
202.086	0	101043	40/Lo	8	0	0	0	0	5.0	0.0	5.0	0.0						256.96291969998856	264.3041222999891	264.3041222999891	1.0	['1', 'return']	[3.8628802000021096, 4.638693600005354]	7.33	5.83	1.0	40hz	low_pain	43.0			sub-pilot014	250	14	43	45.5	COM11	COM7	COM3	2023-11-03_12h34.28.818	001-EEG_SVR_Officel	2022.2.5	142.64561978702923		5.832000000000022	0_sub-pilot014_SVR_EEG_block1-2.protocol.csv	step13	2413	240.166	STIMULATE	43.1	42.9	42.9	42.9	42.9	13	207.89499999999998
213.164	0	106582	wait	20	0	0	0	0	6.0	0.0	6.0	0.0						281.9514552999899	287.13334990000294	287.13334990000294	0.5	['a', '5', 'return']	[4.121323100000154, 4.529361900000367, 8.618517900002189]	5.17	5.9	2.0	20hz	low_pain	43.0			sub-pilot014	250	14	43	45.5	COM11	COM7	COM3	2023-11-03_12h34.28.818	001-EEG_SVR_Officel	2022.2.5	142.64561978702923		11.827999999999975	0_sub-pilot014_SVR_EEG_block1-2.protocol.csv	step15	2644	263.057	STIMULATE	43.1	42.9	42.9	42.9	43.0	15	230.786
218.334	0	109167	20hz	6	0	0	0	0	6.0	0.0	6.0	0.0						281.9514552999899	287.13334990000294	287.13334990000294	0.5	['a', '5', 'return']	[4.121323100000154, 4.529361900000367, 8.618517900002189]	5.17	5.9	2.0	20hz	low_pain	43.0			sub-pilot014	250	14	43	45.5	COM11	COM7	COM3	2023-11-03_12h34.28.818	001-EEG_SVR_Officel	2022.2.5	142.64561978702923		5.170000000000016	0_sub-pilot014_SVR_EEG_block1-2.protocol.csv	step15	2644	263.057	STIMULATE	43.1	42.9	42.9	42.9	43.0	15	230.786
224.986	0	112493	20/Lo	5	0	0	0	0	6.0	0.0	6.0	0.0						281.9514552999899	287.13334990000294	287.13334990000294	0.5	['a', '5', 'return']	[4.121323100000154, 4.529361900000367, 8.618517900002189]	5.17	5.9	2.0	20hz	low_pain	43.0			sub-pilot014	250	14	43	45.5	COM11	COM7	COM3	2023-11-03_12h34.28.818	001-EEG_SVR_Officel	2022.2.5	142.64561978702923		5.901999999999987	0_sub-pilot014_SVR_EEG_block1-2.protocol.csv	step15	2644	263.057	STIMULATE	43.1	42.9	42.9	42.9	43.0	15	230.786
239.98	0	119990	wait	20	0	0	0	0	7.0	0.0	7.0	0.0						308.76807789999293	314.8248206999997	314.8248206999997	6.0	['6', 'return']	[2.662813900009496, 3.254257200009306]	6.05	6.05	3.0	10hz	high_pain	45.5			sub-pilot014	250	14	43	45.5	COM11	COM7	COM3	2023-11-03_12h34.28.818	001-EEG_SVR_Officel	2022.2.5	142.64561978702923		15.744	0_sub-pilot014_SVR_EEG_block1-2.protocol.csv	step17	2925	290.944	STIMULATE	45.5	45.4	45.4	45.5	45.5	17	258.673
246.024	0	123012	10hz	3	0	0	0	0	7.0	0.0	7.0	0.0						308.76807789999293	314.8248206999997	314.8248206999997	6.0	['6', 'return']	[2.662813900009496, 3.254257200009306]	6.05	6.05	3.0	10hz	high_pain	45.5			sub-pilot014	250	14	43	45.5	COM11	COM7	COM3	2023-11-03_12h34.28.818	001-EEG_SVR_Officel	2022.2.5	142.64561978702923		6.044000000000011	0_sub-pilot014_SVR_EEG_block1-2.protocol.csv	step17	2925	290.944	STIMULATE	45.5	45.4	45.4	45.5	45.5	17	258.673
252.828	0	126414	10/Hi	1	0	0	0	0	7.0	0.0	7.0	0.0						308.76807789999293	314.8248206999997	314.8248206999997	6.0	['6', 'return']	[2.662813900009496, 3.254257200009306]	6.05	6.05	3.0	10hz	high_pain	45.5			sub-pilot014	250	14	43	45.5	COM11	COM7	COM3	2023-11-03_12h34.28.818	001-EEG_SVR_Officel	2022.2.5	142.64561978702923		6.054000000000002	0_sub-pilot014_SVR_EEG_block1-2.protocol.csv	step17	2925	290.944	STIMULATE	45.5	45.4	45.4	45.5	45.5	17	258.673
262.302	0	131151	wait	20	0	0	0	0	8.0	0.0	8.0	0.0						331.0897543000028	338.47998799999186	338.47998799999186	2.0	['2', 'return']	[2.1673852000094485, 2.799020800011931]	7.38	5.57	0.0	controle	low_pain	43.0			sub-pilot014	250	14	43	45.5	COM11	COM7	COM3	2023-11-03_12h34.28.818	001-EEG_SVR_Officel	2022.2.5	142.64561978702923		10.224000000000018	0_sub-pilot014_SVR_EEG_block1-2.protocol.csv	step19	3159	314.19	STIMULATE	43.0	42.9	42.9	42.9	42.9	19	281.919
269.68	0	134840	CNhz	12	0	0	0	0	8.0	0.0	8.0	0.0						331.0897543000028	338.47998799999186	338.47998799999186	2.0	['2', 'return']	[2.1673852000094485, 2.799020800011931]	7.38	5.57	0.0	controle	low_pain	43.0			sub-pilot014	250	14	43	45.5	COM11	COM7	COM3	2023-11-03_12h34.28.818	001-EEG_SVR_Officel	2022.2.5	142.64561978702923		7.377999999999986	0_sub-pilot014_SVR_EEG_block1-2.protocol.csv	step19	3159	314.19	STIMULATE	43.0	42.9	42.9	42.9	42.9	19	281.919
275.998	0	137999	CN/Lo	11	0	0	0	0	8.0	0.0	8.0	0.0						331.0897543000028	338.47998799999186	338.47998799999186	2.0	['2', 'return']	[2.1673852000094485, 2.799020800011931]	7.38	5.57	0.0	controle	low_pain	43.0			sub-pilot014	250	14	43	45.5	COM11	COM7	COM3	2023-11-03_12h34.28.818	001-EEG_SVR_Officel	2022.2.5	142.64561978702923		5.567999999999984	0_sub-pilot014_SVR_EEG_block1-2.protocol.csv	step19	3159	314.19	STIMULATE	43.0	42.9	42.9	42.9	42.9	19	281.919
285.514	0	142757	wait	20	0	0	0	0	9.0	0.0	9.0	0.0						354.3013341999904	360.5588170999981	360.5588170999981	5.0	['5', 'return']	[2.712496599997394, 3.416505099987262]	6.25	5.31	1.0	20hz	high_pain	45.5			sub-pilot014	250	14	43	45.5	COM11	COM7	COM3	2023-11-03_12h34.28.818	001-EEG_SVR_Officel	2022.2.5	142.64561978702923		10.26600000000002	0_sub-pilot014_SVR_EEG_block1-2.protocol.csv	step21	3379	335.949	STIMULATE	45.6	45.4	45.4	45.5	45.5	21	303.678
291.758	0	145879	20hz	6	0	0	0	0	9.0	0.0	9.0	0.0						354.3013341999904	360.5588170999981	360.5588170999981	5.0	['5', 'return']	[2.712496599997394, 3.416505099987262]	6.25	5.31	1.0	20hz	high_pain	45.5			sub-pilot014	250	14	43	45.5	COM11	COM7	COM3	2023-11-03_12h34.28.818	001-EEG_SVR_Officel	2022.2.5	142.64561978702923		6.243999999999971	0_sub-pilot014_SVR_EEG_block1-2.protocol.csv	step21	3379	335.949	STIMULATE	45.6	45.4	45.4	45.5	45.5	21	303.678
297.82	0	148910	20/Hi	4	0	0	0	0	9.0	0.0	9.0	0.0						354.3013341999904	360.5588170999981	360.5588170999981	5.0	['5', 'return']	[2.712496599997394, 3.416505099987262]	6.25	5.31	1.0	20hz	high_pain	45.5			sub-pilot014	250	14	43	45.5	COM11	COM7	COM3	2023-11-03_12h34.28.818	001-EEG_SVR_Officel	2022.2.5	142.64561978702923		5.312000000000012	0_sub-pilot014_SVR_EEG_block1-2.protocol.csv	step21	3379	335.949	STIMULATE	45.6	45.4	45.4	45.5	45.5	21	303.678
308.202	0	154101	wait	20	0	0	0	0	10.0	0.0	10.0	0.0						376.9914246999979	384.17298999999184	384.17298999999184	8.5	['8', 'a', '5', 'return']	[2.3951379000063753, 2.849693299998762, 3.122355500003323, 4.058471399999689]	7.17	5.35	2.0	20hz	high_pain	45.5			sub-pilot014	250	14	43	45.5	COM11	COM7	COM3	2023-11-03_12h34.28.818	001-EEG_SVR_Officel	2022.2.5	142.64561978702923		11.132000000000005	0_sub-pilot014_SVR_EEG_block1-2.protocol.csv	step23	3618	359.637	STIMULATE	45.7	45.4	45.4	45.5	45.5	23	327.366
315.372	0	157686	20hz	6	0	0	0	0	10.0	0.0	10.0	0.0						376.9914246999979	384.17298999999184	384.17298999999184	8.5	['8', 'a', '5', 'return']	[2.3951379000063753, 2.849693299998762, 3.122355500003323, 4.058471399999689]	7.17	5.35	2.0	20hz	high_pain	45.5			sub-pilot014	250	14	43	45.5	COM11	COM7	COM3	2023-11-03_12h34.28.818	001-EEG_SVR_Officel	2022.2.5	142.64561978702923		7.170000000000016	0_sub-pilot014_SVR_EEG_block1-2.protocol.csv	step23	3618	359.637	STIMULATE	45.7	45.4	45.4	45.5	45.5	23	327.366
321.476	0	160738	20/Hi	4	0	0	0	0	10.0	0.0	10.0	0.0						376.9914246999979	384.17298999999184	384.17298999999184	8.5	['8', 'a', '5', 'return']	[2.3951379000063753, 2.849693299998762, 3.122355500003323, 4.058471399999689]	7.17	5.35	2.0	20hz	high_pain	45.5			sub-pilot014	250	14	43	45.5	COM11	COM7	COM3	2023-11-03_12h34.28.818	001-EEG_SVR_Officel	2022.2.5	142.64561978702923		5.353999999999985	0_sub-pilot014_SVR_EEG_block1-2.protocol.csv	step23	3618	359.637	STIMULATE	45.7	45.4	45.4	45.5	45.5	23	327.366
332.456	0	166228	wait	20	0	0	0	0	11.0	0.0	11.0	0.0						401.2440934999904	408.8215578999952	408.8215578999952	3.0	['3', 'return']	[2.76119240000844, 3.409975000002305]	7.57	5.45	3.0	controle	low_pain	43.0			sub-pilot014	250	14	43	45.5	COM11	COM7	COM3	2023-11-03_12h34.28.818	001-EEG_SVR_Officel	2022.2.5	142.64561978702923		11.730000000000018	0_sub-pilot014_SVR_EEG_block1-2.protocol.csv	step25	3867	384.34	STIMULATE	43.0	42.9	42.9	42.9	42.9	25	352.06899999999996
340.02	0	170010	CNhz	12	0	0	0	0	11.0	0.0	11.0	0.0						401.2440934999904	408.8215578999952	408.8215578999952	3.0	['3', 'return']	[2.76119240000844, 3.409975000002305]	7.57	5.45	3.0	controle	low_pain	43.0			sub-pilot014	250	14	43	45.5	COM11	COM7	COM3	2023-11-03_12h34.28.818	001-EEG_SVR_Officel	2022.2.5	142.64561978702923		7.5639999999999645	0_sub-pilot014_SVR_EEG_block1-2.protocol.csv	step25	3867	384.34	STIMULATE	43.0	42.9	42.9	42.9	42.9	25	352.06899999999996
346.222	0	173111	CN/Lo	11	0	0	0	0	11.0	0.0	11.0	0.0						401.2440934999904	408.8215578999952	408.8215578999952	3.0	['3', 'return']	[2.76119240000844, 3.409975000002305]	7.57	5.45	3.0	controle	low_pain	43.0			sub-pilot014	250	14	43	45.5	COM11	COM7	COM3	2023-11-03_12h34.28.818	001-EEG_SVR_Officel	2022.2.5	142.64561978702923		5.451999999999998	0_sub-pilot014_SVR_EEG_block1-2.protocol.csv	step25	3867	384.34	STIMULATE	43.0	42.9	42.9	42.9	42.9	25	352.06899999999996
356.45	0	178225	wait	20	0	0	0	0	12.0	0.0	12.0	0.0						425.2394103999977	430.6299624999956	430.6299624999956	0.5	['0', 'a', '5', 'return']	[2.320664400001988, 3.2337002999993274, 3.608682599995518, 5.082260900002439]	5.38	5.15	0.0	40hz	low_pain	43.0			sub-pilot014	250	14	43	45.5	COM11	COM7	COM3	2023-11-03_12h34.28.818	001-EEG_SVR_Officel	2022.2.5	142.64561978702923		10.978000000000009	0_sub-pilot014_SVR_EEG_block1-2.protocol.csv	step27	4084	405.829	STIMULATE	43.0	42.9	42.9	42.9	42.9	27	373.558
361.828	0	180914	40hz	9	0	0	0	0	12.0	0.0	12.0	0.0						425.2394103999977	430.6299624999956	430.6299624999956	0.5	['0', 'a', '5', 'return']	[2.320664400001988, 3.2337002999993274, 3.608682599995518, 5.082260900002439]	5.38	5.15	0.0	40hz	low_pain	43.0			sub-pilot014	250	14	43	45.5	COM11	COM7	COM3	2023-11-03_12h34.28.818	001-EEG_SVR_Officel	2022.2.5	142.64561978702923		5.377999999999986	0_sub-pilot014_SVR_EEG_block1-2.protocol.csv	step27	4084	405.829	STIMULATE	43.0	42.9	42.9	42.9	42.9	27	373.558
367.73	0	183865	40/Lo	8	0	0	0	0	12.0	0.0	12.0	0.0						425.2394103999977	430.6299624999956	430.6299624999956	0.5	['0', 'a', '5', 'return']	[2.320664400001988, 3.2337002999993274, 3.608682599995518, 5.082260900002439]	5.38	5.15	0.0	40hz	low_pain	43.0			sub-pilot014	250	14	43	45.5	COM11	COM7	COM3	2023-11-03_12h34.28.818	001-EEG_SVR_Officel	2022.2.5	142.64561978702923		5.152000000000044	0_sub-pilot014_SVR_EEG_block1-2.protocol.csv	step27	4084	405.829	STIMULATE	43.0	42.9	42.9	42.9	42.9	27	373.558
379.94	0	189970	wait	20	0	0	0	0	13.0	0.0	13.0	0.0						448.7294727999979	455.5077058999887	455.5077058999887	7.5	['7', 'a', '5', 'return']	[2.099877700005891, 2.61250590000418, 2.7719038000068394, 3.6832987000088906]	6.77	5.33	1.0	controle	high_pain	45.5			sub-pilot014	250	14	43	45.5	COM11	COM7	COM3	2023-11-03_12h34.28.818	001-EEG_SVR_Officel	2022.2.5	142.64561978702923		12.95999999999998	0_sub-pilot014_SVR_EEG_block1-2.protocol.csv	step29	4337	430.948	STIMULATE	45.6	45.4	45.4	45.5	45.6	29	398.67699999999996
386.708	0	193354	CNhz	12	0	0	0	0	13.0	0.0	13.0	0.0						448.7294727999979	455.5077058999887	455.5077058999887	7.5	['7', 'a', '5', 'return']	[2.099877700005891, 2.61250590000418, 2.7719038000068394, 3.6832987000088906]	6.77	5.33	1.0	controle	high_pain	45.5			sub-pilot014	250	14	43	45.5	COM11	COM7	COM3	2023-11-03_12h34.28.818	001-EEG_SVR_Officel	2022.2.5	142.64561978702923		6.768000000000029	0_sub-pilot014_SVR_EEG_block1-2.protocol.csv	step29	4337	430.948	STIMULATE	45.6	45.4	45.4	45.5	45.6	29	398.67699999999996
392.788	0	196394	CN/Hi	10	0	0	0	0	13.0	0.0	13.0	0.0						448.7294727999979	455.5077058999887	455.5077058999887	7.5	['7', 'a', '5', 'return']	[2.099877700005891, 2.61250590000418, 2.7719038000068394, 3.6832987000088906]	6.77	5.33	1.0	controle	high_pain	45.5			sub-pilot014	250	14	43	45.5	COM11	COM7	COM3	2023-11-03_12h34.28.818	001-EEG_SVR_Officel	2022.2.5	142.64561978702923		5.329999999999984	0_sub-pilot014_SVR_EEG_block1-2.protocol.csv	step29	4337	430.948	STIMULATE	45.6	45.4	45.4	45.5	45.6	29	398.67699999999996
403.414	0	201707	wait	20	0	0	0	0	14.0	0.0	14.0	0.0						472.20348299999023	478.1631883999944	478.1631883999944	1.0	['1', 'return']	[2.045124099997338, 2.9318783000053372]	5.95	5.17	2.0	40hz	low_pain	43.0			sub-pilot014	250	14	43	45.5	COM11	COM7	COM3	2023-11-03_12h34.28.818	001-EEG_SVR_Officel	2022.2.5	142.64561978702923		11.375999999999976	0_sub-pilot014_SVR_EEG_block1-2.protocol.csv	step31	4564	453.486	STIMULATE	43.0	42.9	42.9	42.9	43.0	31	421.215
409.362	0	204681	40hz	9	0	0	0	0	14.0	0.0	14.0	0.0						472.20348299999023	478.1631883999944	478.1631883999944	1.0	['1', 'return']	[2.045124099997338, 2.9318783000053372]	5.95	5.17	2.0	40hz	low_pain	43.0			sub-pilot014	250	14	43	45.5	COM11	COM7	COM3	2023-11-03_12h34.28.818	001-EEG_SVR_Officel	2022.2.5	142.64561978702923		5.948000000000036	0_sub-pilot014_SVR_EEG_block1-2.protocol.csv	step31	4564	453.486	STIMULATE	43.0	42.9	42.9	42.9	43.0	31	421.215
415.284	0	207642	40/Lo	8	0	0	0	0	14.0	0.0	14.0	0.0						472.20348299999023	478.1631883999944	478.1631883999944	1.0	['1', 'return']	[2.045124099997338, 2.9318783000053372]	5.95	5.17	2.0	40hz	low_pain	43.0			sub-pilot014	250	14	43	45.5	COM11	COM7	COM3	2023-11-03_12h34.28.818	001-EEG_SVR_Officel	2022.2.5	142.64561978702923		5.171999999999969	0_sub-pilot014_SVR_EEG_block1-2.protocol.csv	step31	4564	453.486	STIMULATE	43.0	42.9	42.9	42.9	43.0	31	421.215
425.32	0	212660	wait	20	0	0	0	0	15.0	0.0	15.0	0.0						494.10880239999096	500.8811358999956	500.8811358999956	6.5	['6', 'a', '5', 'return']	[2.028937800001586, 2.3733777000015834, 2.525371700001415, 3.1337129000021378]	6.76	5.58	3.0	20hz	high_pain	45.5			sub-pilot014	250	14	43	45.5	COM11	COM7	COM3	2023-11-03_12h34.28.818	001-EEG_SVR_Officel	2022.2.5	142.64561978702923		10.786000000000001	0_sub-pilot014_SVR_EEG_block1-2.protocol.csv	step33	4797	476.523	STIMULATE	45.5	45.4	45.4	45.4	45.5	33	444.252
432.08	0	216040	20hz	6	0	0	0	0	15.0	0.0	15.0	0.0						494.10880239999096	500.8811358999956	500.8811358999956	6.5	['6', 'a', '5', 'return']	[2.028937800001586, 2.3733777000015834, 2.525371700001415, 3.1337129000021378]	6.76	5.58	3.0	20hz	high_pain	45.5			sub-pilot014	250	14	43	45.5	COM11	COM7	COM3	2023-11-03_12h34.28.818	001-EEG_SVR_Officel	2022.2.5	142.64561978702923		6.759999999999991	0_sub-pilot014_SVR_EEG_block1-2.protocol.csv	step33	4797	476.523	STIMULATE	45.5	45.4	45.4	45.4	45.5	33	444.252
438.412	0	219206	20/Hi	4	0	0	0	0	15.0	0.0	15.0	0.0						494.10880239999096	500.8811358999956	500.8811358999956	6.5	['6', 'a', '5', 'return']	[2.028937800001586, 2.3733777000015834, 2.525371700001415, 3.1337129000021378]	6.76	5.58	3.0	20hz	high_pain	45.5			sub-pilot014	250	14	43	45.5	COM11	COM7	COM3	2023-11-03_12h34.28.818	001-EEG_SVR_Officel	2022.2.5	142.64561978702923		5.581999999999994	0_sub-pilot014_SVR_EEG_block1-2.protocol.csv	step33	4797	476.523	STIMULATE	45.5	45.4	45.4	45.4	45.5	33	444.252
509.802	0	254901	wait	20	1	0	1	0	0.0	0.0	0.0	0.0				p	0.6527390999981435	578.5919015999971	583.9607041999989	583.9607041999989	7.5	['7', 'a', '5', 'return']	[2.085649000000558, 2.670332399997278, 2.8055288000032306, 3.6946173000033014]	5.36	5.14	0.0	controle	high_pain	45.5			sub-pilot014	250	14	43	45.5	COM11	COM7	COM3	2023-11-03_12h34.28.818	001-EEG_SVR_Officel	2022.2.5	142.64561978702923		72.14000000000004	0_sub-pilot014_SVR_EEG_block1-2.protocol.csv	step35	5626	559.244	STIMULATE	45.5	45.4	45.4	45.4	45.6	35	526.945
515.158	0	257579	CNhz	12	1	0	1	0	0.0	0.0	0.0	0.0				p	0.6527390999981435	578.5919015999971	583.9607041999989	583.9607041999989	7.5	['7', 'a', '5', 'return']	[2.085649000000558, 2.670332399997278, 2.8055288000032306, 3.6946173000033014]	5.36	5.14	0.0	controle	high_pain	45.5			sub-pilot014	250	14	43	45.5	COM11	COM7	COM3	2023-11-03_12h34.28.818	001-EEG_SVR_Officel	2022.2.5	142.64561978702923		5.3559999999999945	0_sub-pilot014_SVR_EEG_block1-2.protocol.csv	step35	5626	559.244	STIMULATE	45.5	45.4	45.4	45.4	45.6	35	526.945
521.054	0	260527	CN/Hi	10	1	0	1	0	0.0	0.0	0.0	0.0				p	0.6527390999981435	578.5919015999971	583.9607041999989	583.9607041999989	7.5	['7', 'a', '5', 'return']	[2.085649000000558, 2.670332399997278, 2.8055288000032306, 3.6946173000033014]	5.36	5.14	0.0	controle	high_pain	45.5			sub-pilot014	250	14	43	45.5	COM11	COM7	COM3	2023-11-03_12h34.28.818	001-EEG_SVR_Officel	2022.2.5	142.64561978702923		5.145999999999958	0_sub-pilot014_SVR_EEG_block1-2.protocol.csv	step35	5626	559.244	STIMULATE	45.5	45.4	45.4	45.4	45.6	35	526.945
531.874	0	265937	wait	20	1	0	1	0	1.0	0.0	1.0	0.0						600.6639582999924	607.9843120000005	607.9843120000005	1.0	['1', 'return']	[2.0540770000079647, 2.911171600004309]	7.31	6.13	1.0	controle	low_pain	43.0			sub-pilot014	250	14	43	45.5	COM11	COM7	COM3	2023-11-03_12h34.28.818	001-EEG_SVR_Officel	2022.2.5	142.64561978702923		11.57000000000005	0_sub-pilot014_SVR_EEG_block1-2.protocol.csv	step37	5879	584.313	STIMULATE	42.9	42.9	42.9	42.9	43.1	37	552.014
539.184	0	269592	CNhz	12	1	0	1	0	1.0	0.0	1.0	0.0						600.6639582999924	607.9843120000005	607.9843120000005	1.0	['1', 'return']	[2.0540770000079647, 2.911171600004309]	7.31	6.13	1.0	controle	low_pain	43.0			sub-pilot014	250	14	43	45.5	COM11	COM7	COM3	2023-11-03_12h34.28.818	001-EEG_SVR_Officel	2022.2.5	142.64561978702923		7.309999999999945	0_sub-pilot014_SVR_EEG_block1-2.protocol.csv	step37	5879	584.313	STIMULATE	42.9	42.9	42.9	42.9	43.1	37	552.014
546.064	0	273032	CN/Lo	11	1	0	1	0	1.0	0.0	1.0	0.0						600.6639582999924	607.9843120000005	607.9843120000005	1.0	['1', 'return']	[2.0540770000079647, 2.911171600004309]	7.31	6.13	1.0	controle	low_pain	43.0			sub-pilot014	250	14	43	45.5	COM11	COM7	COM3	2023-11-03_12h34.28.818	001-EEG_SVR_Officel	2022.2.5	142.64561978702923		6.1299999999999955	0_sub-pilot014_SVR_EEG_block1-2.protocol.csv	step37	5879	584.313	STIMULATE	42.9	42.9	42.9	42.9	43.1	37	552.014
555.128	0	277564	wait	20	1	0	1	0	2.0	0.0	2.0	0.0						623.9168363999925	630.0495752999996	630.0495752999996	1.0	['1', 'return']	[1.9091710000066087, 2.7814775000006193]	6.12	5.81	2.0	controle	low_pain	43.0			sub-pilot014	250	14	43	45.5	COM11	COM7	COM3	2023-11-03_12h34.28.818	001-EEG_SVR_Officel	2022.2.5	142.64561978702923		9.814000000000078	0_sub-pilot014_SVR_EEG_block1-2.protocol.csv	step39	6098	606.069	STIMULATE	42.9	42.9	42.9	42.9	43.1	39	573.77
561.248	0	280624	CNhz	12	1	0	1	0	2.0	0.0	2.0	0.0						623.9168363999925	630.0495752999996	630.0495752999996	1.0	['1', 'return']	[1.9091710000066087, 2.7814775000006193]	6.12	5.81	2.0	controle	low_pain	43.0			sub-pilot014	250	14	43	45.5	COM11	COM7	COM3	2023-11-03_12h34.28.818	001-EEG_SVR_Officel	2022.2.5	142.64561978702923		6.1200000000000045	0_sub-pilot014_SVR_EEG_block1-2.protocol.csv	step39	6098	606.069	STIMULATE	42.9	42.9	42.9	42.9	43.1	39	573.77
567.81	0	283905	CN/Lo	11	1	0	1	0	2.0	0.0	2.0	0.0						623.9168363999925	630.0495752999996	630.0495752999996	1.0	['1', 'return']	[1.9091710000066087, 2.7814775000006193]	6.12	5.81	2.0	controle	low_pain	43.0			sub-pilot014	250	14	43	45.5	COM11	COM7	COM3	2023-11-03_12h34.28.818	001-EEG_SVR_Officel	2022.2.5	142.64561978702923		5.811999999999898	0_sub-pilot014_SVR_EEG_block1-2.protocol.csv	step39	6098	606.069	STIMULATE	42.9	42.9	42.9	42.9	43.1	39	573.77
577.052	0	288526	wait	20	1	0	1	0	3.0	0.0	3.0	0.0						645.8430580999993	651.843825399992	651.843825399992	4.0	['4', 'return']	[2.0444960000022547, 2.595320799999172]	5.99	5.4	3.0	40hz	high_pain	45.5			sub-pilot014	250	14	43	45.5	COM11	COM7	COM3	2023-11-03_12h34.28.818	001-EEG_SVR_Officel	2022.2.5	142.64561978702923		9.992000000000075	0_sub-pilot014_SVR_EEG_block1-2.protocol.csv	step41	6313	627.321	STIMULATE	45.4	45.4	45.4	45.5	45.6	41	595.022
583.042	0	291521	40hz	9	1	0	1	0	3.0	0.0	3.0	0.0						645.8430580999993	651.843825399992	651.843825399992	4.0	['4', 'return']	[2.0444960000022547, 2.595320799999172]	5.99	5.4	3.0	40hz	high_pain	45.5			sub-pilot014	250	14	43	45.5	COM11	COM7	COM3	2023-11-03_12h34.28.818	001-EEG_SVR_Officel	2022.2.5	142.64561978702923		5.990000000000009	0_sub-pilot014_SVR_EEG_block1-2.protocol.csv	step41	6313	627.321	STIMULATE	45.4	45.4	45.4	45.5	45.6	41	595.022
589.194	0	294597	40/Hi	7	1	0	1	0	3.0	0.0	3.0	0.0						645.8430580999993	651.843825399992	651.843825399992	4.0	['4', 'return']	[2.0444960000022547, 2.595320799999172]	5.99	5.4	3.0	40hz	high_pain	45.5			sub-pilot014	250	14	43	45.5	COM11	COM7	COM3	2023-11-03_12h34.28.818	001-EEG_SVR_Officel	2022.2.5	142.64561978702923		5.40199999999993	0_sub-pilot014_SVR_EEG_block1-2.protocol.csv	step41	6313	627.321	STIMULATE	45.4	45.4	45.4	45.5	45.6	41	595.022
598.674	0	299337	wait	20	1	0	1	0	4.0	0.0	4.0	0.0						667.464126299994	672.8333052999951	672.8333052999951	0.0	['0', 'return']	[2.758526699995855, 4.566324200000963]	5.36	6.05	0.0	20hz	low_pain	43.0			sub-pilot014	250	14	43	45.5	COM11	COM7	COM3	2023-11-03_12h34.28.818	001-EEG_SVR_Officel	2022.2.5	142.64561978702923		10.230000000000018	0_sub-pilot014_SVR_EEG_block1-2.protocol.csv	step43	6532	649.025	STIMULATE	42.9	42.9	42.9	42.9	43.0	43	616.726
604.032	0	302016	20hz	6	1	0	1	0	4.0	0.0	4.0	0.0						667.464126299994	672.8333052999951	672.8333052999951	0.0	['0', 'return']	[2.758526699995855, 4.566324200000963]	5.36	6.05	0.0	20hz	low_pain	43.0			sub-pilot014	250	14	43	45.5	COM11	COM7	COM3	2023-11-03_12h34.28.818	001-EEG_SVR_Officel	2022.2.5	142.64561978702923		5.358000000000061	0_sub-pilot014_SVR_EEG_block1-2.protocol.csv	step43	6532	649.025	STIMULATE	42.9	42.9	42.9	42.9	43.0	43	616.726
610.836	0	305418	20/Lo	5	1	0	1	0	4.0	0.0	4.0	0.0						667.464126299994	672.8333052999951	672.8333052999951	0.0	['0', 'return']	[2.758526699995855, 4.566324200000963]	5.36	6.05	0.0	20hz	low_pain	43.0			sub-pilot014	250	14	43	45.5	COM11	COM7	COM3	2023-11-03_12h34.28.818	001-EEG_SVR_Officel	2022.2.5	142.64561978702923		6.053999999999974	0_sub-pilot014_SVR_EEG_block1-2.protocol.csv	step43	6532	649.025	STIMULATE	42.9	42.9	42.9	42.9	43.0	43	616.726
621.628	0	310814	wait	20	1	0	1	0	5.0	0.0	5.0	0.0						690.4186887999967	695.4471461999929	695.4471461999929	8.0	['8', 'return']	[2.1613036999915494, 2.8344597999966936]	5.02	6.28	1.0	40hz	high_pain	45.5			sub-pilot014	250	14	43	45.5	COM11	COM7	COM3	2023-11-03_12h34.28.818	001-EEG_SVR_Officel	2022.2.5	142.64561978702923		11.54200000000003	0_sub-pilot014_SVR_EEG_block1-2.protocol.csv	step45	6763	671.919	STIMULATE	45.5	45.4	45.4	45.4	45.5	45	639.62
626.644	0	313322	40hz	9	1	0	1	0	5.0	0.0	5.0	0.0						690.4186887999967	695.4471461999929	695.4471461999929	8.0	['8', 'return']	[2.1613036999915494, 2.8344597999966936]	5.02	6.28	1.0	40hz	high_pain	45.5			sub-pilot014	250	14	43	45.5	COM11	COM7	COM3	2023-11-03_12h34.28.818	001-EEG_SVR_Officel	2022.2.5	142.64561978702923		5.015999999999963	0_sub-pilot014_SVR_EEG_block1-2.protocol.csv	step45	6763	671.919	STIMULATE	45.5	45.4	45.4	45.4	45.5	45	639.62
633.678	0	316839	40/Hi	7	1	0	1	0	5.0	0.0	5.0	0.0						690.4186887999967	695.4471461999929	695.4471461999929	8.0	['8', 'return']	[2.1613036999915494, 2.8344597999966936]	5.02	6.28	1.0	40hz	high_pain	45.5			sub-pilot014	250	14	43	45.5	COM11	COM7	COM3	2023-11-03_12h34.28.818	001-EEG_SVR_Officel	2022.2.5	142.64561978702923		6.283999999999992	0_sub-pilot014_SVR_EEG_block1-2.protocol.csv	step45	6763	671.919	STIMULATE	45.5	45.4	45.4	45.4	45.5	45	639.62
642.512	0	321256	wait	20	1	0	1	0	6.0	0.0	6.0	0.0						711.3023867000011	717.3031743000029	717.3031743000029	8.5	['8', 'a', '5', 'return']	[1.831204499991145, 2.319911400001729, 2.4878338999988046, 3.3752402999962214]	5.99	5.12	2.0	controle	high_pain	45.5			sub-pilot014	250	14	43	45.5	COM11	COM7	COM3	2023-11-03_12h34.28.818	001-EEG_SVR_Officel	2022.2.5	142.64561978702923		9.583999999999946	0_sub-pilot014_SVR_EEG_block1-2.protocol.csv	step47	6972	692.597	STIMULATE	45.5	45.4	45.4	45.4	45.6	47	660.298
648.5	0	324250	CNhz	12	1	0	1	0	6.0	0.0	6.0	0.0						711.3023867000011	717.3031743000029	717.3031743000029	8.5	['8', 'a', '5', 'return']	[1.831204499991145, 2.319911400001729, 2.4878338999988046, 3.3752402999962214]	5.99	5.12	2.0	controle	high_pain	45.5			sub-pilot014	250	14	43	45.5	COM11	COM7	COM3	2023-11-03_12h34.28.818	001-EEG_SVR_Officel	2022.2.5	142.64561978702923		5.988000000000056	0_sub-pilot014_SVR_EEG_block1-2.protocol.csv	step47	6972	692.597	STIMULATE	45.5	45.4	45.4	45.4	45.6	47	660.298
654.374	0	327187	CN/Hi	10	1	0	1	0	6.0	0.0	6.0	0.0						711.3023867000011	717.3031743000029	717.3031743000029	8.5	['8', 'a', '5', 'return']	[1.831204499991145, 2.319911400001729, 2.4878338999988046, 3.3752402999962214]	5.99	5.12	2.0	controle	high_pain	45.5			sub-pilot014	250	14	43	45.5	COM11	COM7	COM3	2023-11-03_12h34.28.818	001-EEG_SVR_Officel	2022.2.5	142.64561978702923		5.124000000000024	0_sub-pilot014_SVR_EEG_block1-2.protocol.csv	step47	6972	692.597	STIMULATE	45.5	45.4	45.4	45.4	45.6	47	660.298
664.904	0	332452	wait	20	1	0	1	0	7.0	0.0	7.0	0.0						733.6940269999905	739.4169466000021	739.4169466000021	5.0	['5', 'return']	[2.2136821000021882, 2.7751092000107747]	5.71	6.33	3.0	10hz	low_pain	43.0			sub-pilot014	250	14	43	45.5	COM11	COM7	COM3	2023-11-03_12h34.28.818	001-EEG_SVR_Officel	2022.2.5	142.64561978702923		11.279999999999973	0_sub-pilot014_SVR_EEG_block1-2.protocol.csv	step49	7206	715.883	STIMULATE	42.9	42.8	42.9	42.9	43.0	49	683.5840000000001
670.614	0	335307	10hz	3	1	0	1	0	7.0	0.0	7.0	0.0						733.6940269999905	739.4169466000021	739.4169466000021	5.0	['5', 'return']	[2.2136821000021882, 2.7751092000107747]	5.71	6.33	3.0	10hz	low_pain	43.0			sub-pilot014	250	14	43	45.5	COM11	COM7	COM3	2023-11-03_12h34.28.818	001-EEG_SVR_Officel	2022.2.5	142.64561978702923		5.710000000000036	0_sub-pilot014_SVR_EEG_block1-2.protocol.csv	step49	7206	715.883	STIMULATE	42.9	42.8	42.9	42.9	43.0	49	683.5840000000001
677.696	0	338848	10/Lo	2	1	0	1	0	7.0	0.0	7.0	0.0						733.6940269999905	739.4169466000021	739.4169466000021	5.0	['5', 'return']	[2.2136821000021882, 2.7751092000107747]	5.71	6.33	3.0	10hz	low_pain	43.0			sub-pilot014	250	14	43	45.5	COM11	COM7	COM3	2023-11-03_12h34.28.818	001-EEG_SVR_Officel	2022.2.5	142.64561978702923		6.331999999999994	0_sub-pilot014_SVR_EEG_block1-2.protocol.csv	step49	7206	715.883	STIMULATE	42.9	42.8	42.9	42.9	43.0	49	683.5840000000001
686.412	0	343206	wait	20	1	0	1	0	8.0	0.0	8.0	0.0						755.2030126000027	760.8640049999958	760.8640049999958	5.5	['5', 'a', '5', 'return']	[2.3743052999925567, 2.6709536999987904, 2.806989499993506, 3.759255500001018]	5.65	5.71	0.0	10hz	low_pain	43.0			sub-pilot014	250	14	43	45.5	COM11	COM7	COM3	2023-11-03_12h34.28.818	001-EEG_SVR_Officel	2022.2.5	142.64561978702923		9.466000000000008	0_sub-pilot014_SVR_EEG_block1-2.protocol.csv	step51	7418	736.807	STIMULATE	42.9	42.9	42.9	42.9	42.9	51	704.508
692.062	0	346031	10hz	3	1	0	1	0	8.0	0.0	8.0	0.0						755.2030126000027	760.8640049999958	760.8640049999958	5.5	['5', 'a', '5', 'return']	[2.3743052999925567, 2.6709536999987904, 2.806989499993506, 3.759255500001018]	5.65	5.71	0.0	10hz	low_pain	43.0			sub-pilot014	250	14	43	45.5	COM11	COM7	COM3	2023-11-03_12h34.28.818	001-EEG_SVR_Officel	2022.2.5	142.64561978702923		5.649999999999977	0_sub-pilot014_SVR_EEG_block1-2.protocol.csv	step51	7418	736.807	STIMULATE	42.9	42.9	42.9	42.9	42.9	51	704.508
698.526	0	349263	10/Lo	2	1	0	1	0	8.0	0.0	8.0	0.0						755.2030126000027	760.8640049999958	760.8640049999958	5.5	['5', 'a', '5', 'return']	[2.3743052999925567, 2.6709536999987904, 2.806989499993506, 3.759255500001018]	5.65	5.71	0.0	10hz	low_pain	43.0			sub-pilot014	250	14	43	45.5	COM11	COM7	COM3	2023-11-03_12h34.28.818	001-EEG_SVR_Officel	2022.2.5	142.64561978702923		5.713999999999942	0_sub-pilot014_SVR_EEG_block1-2.protocol.csv	step51	7418	736.807	STIMULATE	42.9	42.9	42.9	42.9	42.9	51	704.508
708.854	0	354427	wait	20	1	0	1	0	9.0	0.0	9.0	0.0						777.6436860999966	785.2141693000012	785.2141693000012	8.0	['8', 'return']	[3.062032599991653, 3.7267823000001954]	7.56	5.39	1.0	10hz	high_pain	45.5			sub-pilot014	250	14	43	45.5	COM11	COM7	COM3	2023-11-03_12h34.28.818	001-EEG_SVR_Officel	2022.2.5	142.64561978702923		11.078000000000088	0_sub-pilot014_SVR_EEG_block1-2.protocol.csv	step53	7659	760.743	STIMULATE	45.5	45.4	45.4	45.5	45.5	53	728.4440000000001
716.412	0	358206	10hz	3	1	0	1	0	9.0	0.0	9.0	0.0						777.6436860999966	785.2141693000012	785.2141693000012	8.0	['8', 'return']	[3.062032599991653, 3.7267823000001954]	7.56	5.39	1.0	10hz	high_pain	45.5			sub-pilot014	250	14	43	45.5	COM11	COM7	COM3	2023-11-03_12h34.28.818	001-EEG_SVR_Officel	2022.2.5	142.64561978702923		7.557999999999993	0_sub-pilot014_SVR_EEG_block1-2.protocol.csv	step53	7659	760.743	STIMULATE	45.5	45.4	45.4	45.5	45.5	53	728.4440000000001
722.556	0	361278	10/Hi	1	1	0	1	0	9.0	0.0	9.0	0.0						777.6436860999966	785.2141693000012	785.2141693000012	8.0	['8', 'return']	[3.062032599991653, 3.7267823000001954]	7.56	5.39	1.0	10hz	high_pain	45.5			sub-pilot014	250	14	43	45.5	COM11	COM7	COM3	2023-11-03_12h34.28.818	001-EEG_SVR_Officel	2022.2.5	142.64561978702923		5.3940000000000055	0_sub-pilot014_SVR_EEG_block1-2.protocol.csv	step53	7659	760.743	STIMULATE	45.5	45.4	45.4	45.5	45.5	53	728.4440000000001
733.17	0	366585	wait	20	1	0	1	0	10.0	0.0	10.0	0.0						801.9595561999886	808.2798732999945	808.2798732999945	2.0	['2', 'return']	[2.07167569999001, 2.9032434999971883]	6.31	5.17	2.0	40hz	high_pain	45.5			sub-pilot014	250	14	43	45.5	COM11	COM7	COM3	2023-11-03_12h34.28.818	001-EEG_SVR_Officel	2022.2.5	142.64561978702923		11.363999999999919	0_sub-pilot014_SVR_EEG_block1-2.protocol.csv	step55	7888	783.571	STIMULATE	45.5	45.4	45.4	45.5	45.6	55	751.272
739.476	0	369738	40hz	9	1	0	1	0	10.0	0.0	10.0	0.0						801.9595561999886	808.2798732999945	808.2798732999945	2.0	['2', 'return']	[2.07167569999001, 2.9032434999971883]	6.31	5.17	2.0	40hz	high_pain	45.5			sub-pilot014	250	14	43	45.5	COM11	COM7	COM3	2023-11-03_12h34.28.818	001-EEG_SVR_Officel	2022.2.5	142.64561978702923		6.30600000000004	0_sub-pilot014_SVR_EEG_block1-2.protocol.csv	step55	7888	783.571	STIMULATE	45.5	45.4	45.4	45.5	45.6	55	751.272
745.4	0	372700	40/Hi	7	1	0	1	0	10.0	0.0	10.0	0.0						801.9595561999886	808.2798732999945	808.2798732999945	2.0	['2', 'return']	[2.07167569999001, 2.9032434999971883]	6.31	5.17	2.0	40hz	high_pain	45.5			sub-pilot014	250	14	43	45.5	COM11	COM7	COM3	2023-11-03_12h34.28.818	001-EEG_SVR_Officel	2022.2.5	142.64561978702923		5.173999999999978	0_sub-pilot014_SVR_EEG_block1-2.protocol.csv	step55	7888	783.571	STIMULATE	45.5	45.4	45.4	45.5	45.6	55	751.272
755.414	0	377707	wait	20	1	0	1	0	11.0	0.0	11.0	0.0						824.2048615999956	830.4069593000022	830.4069593000022	1.0	['1', 'return']	[2.5125835000071675, 3.3523547000077087]	6.19	5.73	3.0	20hz	low_pain	43.0			sub-pilot014	250	14	43	45.5	COM11	COM7	COM3	2023-11-03_12h34.28.818	001-EEG_SVR_Officel	2022.2.5	142.64561978702923		10.76400000000001	0_sub-pilot014_SVR_EEG_block1-2.protocol.csv	step57	8112	806.268	STIMULATE	42.9	42.9	42.9	42.9	43.0	57	773.969
761.604	0	380802	20hz	6	1	0	1	0	11.0	0.0	11.0	0.0						824.2048615999956	830.4069593000022	830.4069593000022	1.0	['1', 'return']	[2.5125835000071675, 3.3523547000077087]	6.19	5.73	3.0	20hz	low_pain	43.0			sub-pilot014	250	14	43	45.5	COM11	COM7	COM3	2023-11-03_12h34.28.818	001-EEG_SVR_Officel	2022.2.5	142.64561978702923		6.190000000000055	0_sub-pilot014_SVR_EEG_block1-2.protocol.csv	step57	8112	806.268	STIMULATE	42.9	42.9	42.9	42.9	43.0	57	773.969
768.088	0	384044	20/Lo	5	1	0	1	0	11.0	0.0	11.0	0.0						824.2048615999956	830.4069593000022	830.4069593000022	1.0	['1', 'return']	[2.5125835000071675, 3.3523547000077087]	6.19	5.73	3.0	20hz	low_pain	43.0			sub-pilot014	250	14	43	45.5	COM11	COM7	COM3	2023-11-03_12h34.28.818	001-EEG_SVR_Officel	2022.2.5	142.64561978702923		5.733999999999924	0_sub-pilot014_SVR_EEG_block1-2.protocol.csv	step57	8112	806.268	STIMULATE	42.9	42.9	42.9	42.9	43.0	57	773.969
777.978	0	388989	wait	20	1	0	1	0	12.0	0.0	12.0	0.0						846.7695155999972	854.145875999995	854.145875999995	9.5	['9', 'a', '5', 'return']	[2.324327900001663, 3.2216257999971276, 4.2774430999998, 5.61314260000654]	7.37	6.06	0.0	10hz	high_pain	45.5			sub-pilot014	250	14	43	45.5	COM11	COM7	COM3	2023-11-03_12h34.28.818	001-EEG_SVR_Officel	2022.2.5	142.64561978702923		10.639999999999986	0_sub-pilot014_SVR_EEG_block1-2.protocol.csv	step59	8346	830.354	STIMULATE	45.5	45.4	45.4	45.5	45.6	59	798.0550000000001
785.344	0	392672	10hz	3	1	0	1	0	12.0	0.0	12.0	0.0						846.7695155999972	854.145875999995	854.145875999995	9.5	['9', 'a', '5', 'return']	[2.324327900001663, 3.2216257999971276, 4.2774430999998, 5.61314260000654]	7.37	6.06	0.0	10hz	high_pain	45.5			sub-pilot014	250	14	43	45.5	COM11	COM7	COM3	2023-11-03_12h34.28.818	001-EEG_SVR_Officel	2022.2.5	142.64561978702923		7.366000000000099	0_sub-pilot014_SVR_EEG_block1-2.protocol.csv	step59	8346	830.354	STIMULATE	45.5	45.4	45.4	45.5	45.6	59	798.0550000000001
792.154	0	396077	10/Hi	1	1	0	1	0	12.0	0.0	12.0	0.0						846.7695155999972	854.145875999995	854.145875999995	9.5	['9', 'a', '5', 'return']	[2.324327900001663, 3.2216257999971276, 4.2774430999998, 5.61314260000654]	7.37	6.06	0.0	10hz	high_pain	45.5			sub-pilot014	250	14	43	45.5	COM11	COM7	COM3	2023-11-03_12h34.28.818	001-EEG_SVR_Officel	2022.2.5	142.64561978702923		6.059999999999945	0_sub-pilot014_SVR_EEG_block1-2.protocol.csv	step59	8346	830.354	STIMULATE	45.5	45.4	45.4	45.5	45.6	59	798.0550000000001
803.988	0	401994	wait	20	1	0	1	0	13.0	0.0	13.0	0.0						872.7801094999886	879.6281833999965	879.6281833999965	5.5	['5', 'a', '5', 'return']	[2.186812400002964, 2.6026154999999562, 3.1858151000051294, 4.12287859999924]	6.84	5.01	1.0	10hz	low_pain	43.0			sub-pilot014	250	14	43	45.5	COM11	COM7	COM3	2023-11-03_12h34.28.818	001-EEG_SVR_Officel	2022.2.5	142.64561978702923		12.58400000000006	0_sub-pilot014_SVR_EEG_block1-2.protocol.csv	step61	8581	854.751	STIMULATE	42.9	42.9	42.9	42.9	43.0	61	822.452
810.824	0	405412	10hz	3	1	0	1	0	13.0	0.0	13.0	0.0						872.7801094999886	879.6281833999965	879.6281833999965	5.5	['5', 'a', '5', 'return']	[2.186812400002964, 2.6026154999999562, 3.1858151000051294, 4.12287859999924]	6.84	5.01	1.0	10hz	low_pain	43.0			sub-pilot014	250	14	43	45.5	COM11	COM7	COM3	2023-11-03_12h34.28.818	001-EEG_SVR_Officel	2022.2.5	142.64561978702923		6.835999999999899	0_sub-pilot014_SVR_EEG_block1-2.protocol.csv	step61	8581	854.751	STIMULATE	42.9	42.9	42.9	42.9	43.0	61	822.452
816.588	0	408294	10/Lo	2	1	0	1	0	13.0	0.0	13.0	0.0						872.7801094999886	879.6281833999965	879.6281833999965	5.5	['5', 'a', '5', 'return']	[2.186812400002964, 2.6026154999999562, 3.1858151000051294, 4.12287859999924]	6.84	5.01	1.0	10hz	low_pain	43.0			sub-pilot014	250	14	43	45.5	COM11	COM7	COM3	2023-11-03_12h34.28.818	001-EEG_SVR_Officel	2022.2.5	142.64561978702923		5.01400000000001	0_sub-pilot014_SVR_EEG_block1-2.protocol.csv	step61	8581	854.751	STIMULATE	42.9	42.9	42.9	42.9	43.0	61	822.452
827.978	0	413989	wait	20	1	0	1	0	14.0	0.0	14.0	0.0						896.7691586000001	904.7562190999888	904.7562190999888	4.5	['4', 'a', '5', 'return']	[2.227165700009209, 2.506192300003022, 2.7462820000073407, 3.690314400009811]	7.98	6.35	2.0	10hz	high_pain	45.5			sub-pilot014	250	14	43	45.5	COM11	COM7	COM3	2023-11-03_12h34.28.818	001-EEG_SVR_Officel	2022.2.5	142.64561978702923		12.139999999999986	0_sub-pilot014_SVR_EEG_block1-2.protocol.csv	step63	8834	881.352	STIMULATE	45.5	45.4	45.4	45.5	45.6	63	849.053
835.952	0	417976	10hz	3	1	0	1	0	14.0	0.0	14.0	0.0						896.7691586000001	904.7562190999888	904.7562190999888	4.5	['4', 'a', '5', 'return']	[2.227165700009209, 2.506192300003022, 2.7462820000073407, 3.690314400009811]	7.98	6.35	2.0	10hz	high_pain	45.5			sub-pilot014	250	14	43	45.5	COM11	COM7	COM3	2023-11-03_12h34.28.818	001-EEG_SVR_Officel	2022.2.5	142.64561978702923		7.974000000000046	0_sub-pilot014_SVR_EEG_block1-2.protocol.csv	step63	8834	881.352	STIMULATE	45.5	45.4	45.4	45.5	45.6	63	849.053
843.056	0	421528	10/Hi	1	1	0	1	0	14.0	0.0	14.0	0.0						896.7691586000001	904.7562190999888	904.7562190999888	4.5	['4', 'a', '5', 'return']	[2.227165700009209, 2.506192300003022, 2.7462820000073407, 3.690314400009811]	7.98	6.35	2.0	10hz	high_pain	45.5			sub-pilot014	250	14	43	45.5	COM11	COM7	COM3	2023-11-03_12h34.28.818	001-EEG_SVR_Officel	2022.2.5	142.64561978702923		6.354000000000042	0_sub-pilot014_SVR_EEG_block1-2.protocol.csv	step63	8834	881.352	STIMULATE	45.5	45.4	45.4	45.5	45.6	63	849.053
852.676	0	426338	wait	20	1	0	1	0	15.0	0.0	15.0	0.0						921.4673769999936	928.6066340999968	928.6066340999968	2.0	['2', 'return']	[1.920455799991032, 2.4481569999916246]	7.13	6.33	3.0	40hz	low_pain	43.0			sub-pilot014	250	14	43	45.5	COM11	COM7	COM3	2023-11-03_12h34.28.818	001-EEG_SVR_Officel	2022.2.5	142.64561978702923		10.370000000000005	0_sub-pilot014_SVR_EEG_block1-2.protocol.csv	step65	9058	905.088	STIMULATE	42.9	42.9	42.9	42.9	43.0	65	872.789
859.802	0	429901	40hz	9	1	0	1	0	15.0	0.0	15.0	0.0						921.4673769999936	928.6066340999968	928.6066340999968	2.0	['2', 'return']	[1.920455799991032, 2.4481569999916246]	7.13	6.33	3.0	40hz	low_pain	43.0			sub-pilot014	250	14	43	45.5	COM11	COM7	COM3	2023-11-03_12h34.28.818	001-EEG_SVR_Officel	2022.2.5	142.64561978702923		7.125999999999976	0_sub-pilot014_SVR_EEG_block1-2.protocol.csv	step65	9058	905.088	STIMULATE	42.9	42.9	42.9	42.9	43.0	65	872.789
866.884	0	433442	40/Lo	8	1	0	1	0	15.0	0.0	15.0	0.0						921.4673769999936	928.6066340999968	928.6066340999968	2.0	['2', 'return']	[1.920455799991032, 2.4481569999916246]	7.13	6.33	3.0	40hz	low_pain	43.0			sub-pilot014	250	14	43	45.5	COM11	COM7	COM3	2023-11-03_12h34.28.818	001-EEG_SVR_Officel	2022.2.5	142.64561978702923		6.331999999999994	0_sub-pilot014_SVR_EEG_block1-2.protocol.csv	step65	9058	905.088	STIMULATE	42.9	42.9	42.9	42.9	43.0	65	872.789
911.098	0	455549	wait	20	2	0	2	0	0.0	0.0	0.0	0.0				p	0.5111576000053901	979.8902841999952	985.8770510999892	985.8770510999892	1.5	['1', 'a', '5', 'return']	[1.8731461000134004, 2.4178758000052767, 2.7606938000099035, 3.8247302000090713]	5.98	5.84	0.0	40hz	low_pain	43.0			sub-pilot014	250	14	43	45.5	COM11	COM7	COM3	2023-11-03_12h34.28.818	001-EEG_SVR_Officel	2022.2.5	142.64561978702923		44.96399999999994	1_sub-pilot014_SVR_EEG_block3-4.protocol.csv	step3	424	42.205	STIMULATE	43.0	42.9	42.9	42.9	42.9	3	929.5
917.074	0	458537	40hz	9	2	0	2	0	0.0	0.0	0.0	0.0				p	0.5111576000053901	979.8902841999952	985.8770510999892	985.8770510999892	1.5	['1', 'a', '5', 'return']	[1.8731461000134004, 2.4178758000052767, 2.7606938000099035, 3.8247302000090713]	5.98	5.84	0.0	40hz	low_pain	43.0			sub-pilot014	250	14	43	45.5	COM11	COM7	COM3	2023-11-03_12h34.28.818	001-EEG_SVR_Officel	2022.2.5	142.64561978702923		5.975999999999999	1_sub-pilot014_SVR_EEG_block3-4.protocol.csv	step3	424	42.205	STIMULATE	43.0	42.9	42.9	42.9	42.9	3	929.5
923.662	0	461831	40/Lo	8	2	0	2	0	0.0	0.0	0.0	0.0				p	0.5111576000053901	979.8902841999952	985.8770510999892	985.8770510999892	1.5	['1', 'a', '5', 'return']	[1.8731461000134004, 2.4178758000052767, 2.7606938000099035, 3.8247302000090713]	5.98	5.84	0.0	40hz	low_pain	43.0			sub-pilot014	250	14	43	45.5	COM11	COM7	COM3	2023-11-03_12h34.28.818	001-EEG_SVR_Officel	2022.2.5	142.64561978702923		5.838000000000079	1_sub-pilot014_SVR_EEG_block3-4.protocol.csv	step3	424	42.205	STIMULATE	43.0	42.9	42.9	42.9	42.9	3	929.5
933.92	0	466960	wait	20	2	0	2	0	1.0	0.0	1.0	0.0						1002.7118765999912	1010.3244790000026	1010.3244790000026	0.0	['0', 'return']	[3.065874399995664, 3.842015200003516]	7.6	5.9	1.0	40hz	low_pain	43.0			sub-pilot014	250	14	43	45.5	COM11	COM7	COM3	2023-11-03_12h34.28.818	001-EEG_SVR_Officel	2022.2.5	142.64561978702923		11.007999999999925	1_sub-pilot014_SVR_EEG_block3-4.protocol.csv	step5	672	66.805	STIMULATE	42.9	42.9	42.9	42.9	42.9	5	954.1
941.52	0	470760	40hz	9	2	0	2	0	1.0	0.0	1.0	0.0						1002.7118765999912	1010.3244790000026	1010.3244790000026	0.0	['0', 'return']	[3.065874399995664, 3.842015200003516]	7.6	5.9	1.0	40hz	low_pain	43.0			sub-pilot014	250	14	43	45.5	COM11	COM7	COM3	2023-11-03_12h34.28.818	001-EEG_SVR_Officel	2022.2.5	142.64561978702923		7.600000000000023	1_sub-pilot014_SVR_EEG_block3-4.protocol.csv	step5	672	66.805	STIMULATE	42.9	42.9	42.9	42.9	42.9	5	954.1
948.172	0	474086	40/Lo	8	2	0	2	0	1.0	0.0	1.0	0.0						1002.7118765999912	1010.3244790000026	1010.3244790000026	0.0	['0', 'return']	[3.065874399995664, 3.842015200003516]	7.6	5.9	1.0	40hz	low_pain	43.0			sub-pilot014	250	14	43	45.5	COM11	COM7	COM3	2023-11-03_12h34.28.818	001-EEG_SVR_Officel	2022.2.5	142.64561978702923		5.902000000000044	1_sub-pilot014_SVR_EEG_block3-4.protocol.csv	step5	672	66.805	STIMULATE	42.9	42.9	42.9	42.9	42.9	5	954.1
958.396	0	479198	wait	20	2	0	2	0	2.0	0.0	2.0	0.0						1027.1879557999928	1032.8902297000022	1032.8902297000022	3.5	['3', 'a', '5', 'return']	[2.2367421999952057, 2.6126334000000497, 2.964716500006034, 3.8442546000005677]	5.69	5.95	2.0	40hz	high_pain	45.5			sub-pilot014	250	14	43	45.5	COM11	COM7	COM3	2023-11-03_12h34.28.818	001-EEG_SVR_Officel	2022.2.5	142.64561978702923		10.973999999999933	1_sub-pilot014_SVR_EEG_block3-4.protocol.csv	step7	899	89.345	STIMULATE	45.5	45.4	45.4	45.5	45.5	7	976.64
964.086	0	482043	40hz	9	2	0	2	0	2.0	0.0	2.0	0.0						1027.1879557999928	1032.8902297000022	1032.8902297000022	3.5	['3', 'a', '5', 'return']	[2.2367421999952057, 2.6126334000000497, 2.964716500006034, 3.8442546000005677]	5.69	5.95	2.0	40hz	high_pain	45.5			sub-pilot014	250	14	43	45.5	COM11	COM7	COM3	2023-11-03_12h34.28.818	001-EEG_SVR_Officel	2022.2.5	142.64561978702923		5.690000000000055	1_sub-pilot014_SVR_EEG_block3-4.protocol.csv	step7	899	89.345	STIMULATE	45.5	45.4	45.4	45.5	45.5	7	976.64
970.786	0	485393	40/Hi	7	2	0	2	0	2.0	0.0	2.0	0.0						1027.1879557999928	1032.8902297000022	1032.8902297000022	3.5	['3', 'a', '5', 'return']	[2.2367421999952057, 2.6126334000000497, 2.964716500006034, 3.8442546000005677]	5.69	5.95	2.0	40hz	high_pain	45.5			sub-pilot014	250	14	43	45.5	COM11	COM7	COM3	2023-11-03_12h34.28.818	001-EEG_SVR_Officel	2022.2.5	142.64561978702923		5.949999999999932	1_sub-pilot014_SVR_EEG_block3-4.protocol.csv	step7	899	89.345	STIMULATE	45.5	45.4	45.4	45.5	45.5	7	976.64
980.962	0	490481	wait	20	2	0	2	0	3.0	0.0	3.0	0.0						1049.753568	1057.2953777999935	1057.2953777999935	3.0	['3', 'return']	[2.2473953000007896, 2.918710199999623]	7.53	6.27	3.0	20hz	low_pain	43.0			sub-pilot014	250	14	43	45.5	COM11	COM7	COM3	2023-11-03_12h34.28.818	001-EEG_SVR_Officel	2022.2.5	142.64561978702923		10.926000000000045	1_sub-pilot014_SVR_EEG_block3-4.protocol.csv	step9	1148	114.076	STIMULATE	42.9	42.9	42.9	42.9	42.9	9	1001.3710000000001
988.49	0	494245	20hz	6	2	0	2	0	3.0	0.0	3.0	0.0						1049.753568	1057.2953777999935	1057.2953777999935	3.0	['3', 'return']	[2.2473953000007896, 2.918710199999623]	7.53	6.27	3.0	20hz	low_pain	43.0			sub-pilot014	250	14	43	45.5	COM11	COM7	COM3	2023-11-03_12h34.28.818	001-EEG_SVR_Officel	2022.2.5	142.64561978702923		7.52800000000002	1_sub-pilot014_SVR_EEG_block3-4.protocol.csv	step9	1148	114.076	STIMULATE	42.9	42.9	42.9	42.9	42.9	9	1001.3710000000001
995.51	0	497755	20/Lo	5	2	0	2	0	3.0	0.0	3.0	0.0						1049.753568	1057.2953777999935	1057.2953777999935	3.0	['3', 'return']	[2.2473953000007896, 2.918710199999623]	7.53	6.27	3.0	20hz	low_pain	43.0			sub-pilot014	250	14	43	45.5	COM11	COM7	COM3	2023-11-03_12h34.28.818	001-EEG_SVR_Officel	2022.2.5	142.64561978702923		6.269999999999982	1_sub-pilot014_SVR_EEG_block3-4.protocol.csv	step9	1148	114.076	STIMULATE	42.9	42.9	42.9	42.9	42.9	9	1001.3710000000001
1004.442	0	502221	wait	20	2	0	2	0	4.0	0.0	4.0	0.0						1073.2347519999894	1081.1040471000017	1081.1040471000017	9.5	['9', 'a', '5', 'return']	[1.9188922000030288, 2.518500899997889, 2.670481799999834, 3.4561463999998523]	7.86	6.13	0.0	40hz	high_pain	45.5			sub-pilot014	250	14	43	45.5	COM11	COM7	COM3	2023-11-03_12h34.28.818	001-EEG_SVR_Officel	2022.2.5	142.64561978702923		9.682000000000016	1_sub-pilot014_SVR_EEG_block3-4.protocol.csv	step11	1387	137.727	STIMULATE	45.5	45.4	45.4	45.5	45.5	11	1025.022
1012.298	0	506149	40hz	9	2	0	2	0	4.0	0.0	4.0	0.0						1073.2347519999894	1081.1040471000017	1081.1040471000017	9.5	['9', 'a', '5', 'return']	[1.9188922000030288, 2.518500899997889, 2.670481799999834, 3.4561463999998523]	7.86	6.13	0.0	40hz	high_pain	45.5			sub-pilot014	250	14	43	45.5	COM11	COM7	COM3	2023-11-03_12h34.28.818	001-EEG_SVR_Officel	2022.2.5	142.64561978702923		7.8559999999999945	1_sub-pilot014_SVR_EEG_block3-4.protocol.csv	step11	1387	137.727	STIMULATE	45.5	45.4	45.4	45.5	45.5	11	1025.022
1019.18	0	509590	40/Hi	7	2	0	2	0	4.0	0.0	4.0	0.0						1073.2347519999894	1081.1040471000017	1081.1040471000017	9.5	['9', 'a', '5', 'return']	[1.9188922000030288, 2.518500899997889, 2.670481799999834, 3.4561463999998523]	7.86	6.13	0.0	40hz	high_pain	45.5			sub-pilot014	250	14	43	45.5	COM11	COM7	COM3	2023-11-03_12h34.28.818	001-EEG_SVR_Officel	2022.2.5	142.64561978702923		6.131999999999948	1_sub-pilot014_SVR_EEG_block3-4.protocol.csv	step11	1387	137.727	STIMULATE	45.5	45.4	45.4	45.5	45.5	11	1025.022
1028.784	0	514392	wait	20	2	0	2	0	5.0	0.0	5.0	0.0						1097.5781061000016	1105.2872598999966	1105.2872598999966	9.0	['9', 'return']	[1.8225550000061048, 2.294860099995276]	7.7	5.65	1.0	10hz	high_pain	45.5			sub-pilot014	250	14	43	45.5	COM11	COM7	COM3	2023-11-03_12h34.28.818	001-EEG_SVR_Officel	2022.2.5	142.64561978702923		10.354000000000156	1_sub-pilot014_SVR_EEG_block3-4.protocol.csv	step13	1626	161.461	STIMULATE	45.5	45.4	45.4	45.5	45.6	13	1048.756
1036.482	0	518241	10hz	3	2	0	2	0	5.0	0.0	5.0	0.0						1097.5781061000016	1105.2872598999966	1105.2872598999966	9.0	['9', 'return']	[1.8225550000061048, 2.294860099995276]	7.7	5.65	1.0	10hz	high_pain	45.5			sub-pilot014	250	14	43	45.5	COM11	COM7	COM3	2023-11-03_12h34.28.818	001-EEG_SVR_Officel	2022.2.5	142.64561978702923		7.697999999999865	1_sub-pilot014_SVR_EEG_block3-4.protocol.csv	step13	1626	161.461	STIMULATE	45.5	45.4	45.4	45.5	45.6	13	1048.756
1042.884	0	521442	10/Hi	1	2	0	2	0	5.0	0.0	5.0	0.0						1097.5781061000016	1105.2872598999966	1105.2872598999966	9.0	['9', 'return']	[1.8225550000061048, 2.294860099995276]	7.7	5.65	1.0	10hz	high_pain	45.5			sub-pilot014	250	14	43	45.5	COM11	COM7	COM3	2023-11-03_12h34.28.818	001-EEG_SVR_Officel	2022.2.5	142.64561978702923		5.652000000000044	1_sub-pilot014_SVR_EEG_block3-4.protocol.csv	step13	1626	161.461	STIMULATE	45.5	45.4	45.4	45.5	45.6	13	1048.756
1051.8	0	525900	wait	20	2	0	2	0	6.0	0.0	6.0	0.0						1120.5939739000023	1126.9148610999982	1126.9148610999982	2.0	['2', 'return']	[2.4195857000013348, 3.098991599996225]	6.31	6.2	2.0	40hz	low_pain	43.0			sub-pilot014	250	14	43	45.5	COM11	COM7	COM3	2023-11-03_12h34.28.818	001-EEG_SVR_Officel	2022.2.5	142.64561978702923		9.66599999999994	1_sub-pilot014_SVR_EEG_block3-4.protocol.csv	step15	1851	183.709	STIMULATE	42.9	42.9	42.9	42.9	43.0	15	1071.0040000000001
1058.11	0	529055	40hz	9	2	0	2	0	6.0	0.0	6.0	0.0						1120.5939739000023	1126.9148610999982	1126.9148610999982	2.0	['2', 'return']	[2.4195857000013348, 3.098991599996225]	6.31	6.2	2.0	40hz	low_pain	43.0			sub-pilot014	250	14	43	45.5	COM11	COM7	COM3	2023-11-03_12h34.28.818	001-EEG_SVR_Officel	2022.2.5	142.64561978702923		6.309999999999945	1_sub-pilot014_SVR_EEG_block3-4.protocol.csv	step15	1851	183.709	STIMULATE	42.9	42.9	42.9	42.9	43.0	15	1071.0040000000001
1065.06	0	532530	40/Lo	8	2	0	2	0	6.0	0.0	6.0	0.0						1120.5939739000023	1126.9148610999982	1126.9148610999982	2.0	['2', 'return']	[2.4195857000013348, 3.098991599996225]	6.31	6.2	2.0	40hz	low_pain	43.0			sub-pilot014	250	14	43	45.5	COM11	COM7	COM3	2023-11-03_12h34.28.818	001-EEG_SVR_Officel	2022.2.5	142.64561978702923		6.2000000000000455	1_sub-pilot014_SVR_EEG_block3-4.protocol.csv	step15	1851	183.709	STIMULATE	42.9	42.9	42.9	42.9	43.0	15	1071.0040000000001
1074.242	0	537121	wait	20	2	0	2	0	7.0	0.0	7.0	0.0						1143.0348643999896	1150.515366599997	1150.515366599997	6.5	['6', 'a', '5', 'return']	[2.170658500006539, 2.5312035999959335, 2.683191899996018, 3.458691699997871]	7.47	5.32	3.0	10hz	high_pain	45.5			sub-pilot014	250	14	43	45.5	COM11	COM7	COM3	2023-11-03_12h34.28.818	001-EEG_SVR_Officel	2022.2.5	142.64561978702923		9.932000000000016	1_sub-pilot014_SVR_EEG_block3-4.protocol.csv	step17	2079	206.319	STIMULATE	45.4	45.4	45.4	45.5	45.6	17	1093.614
1081.71	0	540855	10hz	3	2	0	2	0	7.0	0.0	7.0	0.0						1143.0348643999896	1150.515366599997	1150.515366599997	6.5	['6', 'a', '5', 'return']	[2.170658500006539, 2.5312035999959335, 2.683191899996018, 3.458691699997871]	7.47	5.32	3.0	10hz	high_pain	45.5			sub-pilot014	250	14	43	45.5	COM11	COM7	COM3	2023-11-03_12h34.28.818	001-EEG_SVR_Officel	2022.2.5	142.64561978702923		7.468000000000075	1_sub-pilot014_SVR_EEG_block3-4.protocol.csv	step17	2079	206.319	STIMULATE	45.4	45.4	45.4	45.5	45.6	17	1093.614
1087.778	0	543889	10/Hi	1	2	0	2	0	7.0	0.0	7.0	0.0						1143.0348643999896	1150.515366599997	1150.515366599997	6.5	['6', 'a', '5', 'return']	[2.170658500006539, 2.5312035999959335, 2.683191899996018, 3.458691699997871]	7.47	5.32	3.0	10hz	high_pain	45.5			sub-pilot014	250	14	43	45.5	COM11	COM7	COM3	2023-11-03_12h34.28.818	001-EEG_SVR_Officel	2022.2.5	142.64561978702923		5.317999999999984	1_sub-pilot014_SVR_EEG_block3-4.protocol.csv	step17	2079	206.319	STIMULATE	45.4	45.4	45.4	45.5	45.6	17	1093.614
1098.204	0	549102	wait	20	2	0	2	0	8.0	0.0	8.0	0.0						1166.9965366999968	1172.157281199994	1172.157281199994	6.0	['6', 'return']	[2.129759200004628, 2.8109168999944814]	5.15	5.94	0.0	controle	low_pain	43.0			sub-pilot014	250	14	43	45.5	COM11	COM7	COM3	2023-11-03_12h34.28.818	001-EEG_SVR_Officel	2022.2.5	142.64561978702923		11.17599999999993	1_sub-pilot014_SVR_EEG_block3-4.protocol.csv	step19	2304	228.637	STIMULATE	42.9	42.9	42.9	42.9	43.1	19	1115.932
1103.352	0	551676	CNhz	12	2	0	2	0	8.0	0.0	8.0	0.0						1166.9965366999968	1172.157281199994	1172.157281199994	6.0	['6', 'return']	[2.129759200004628, 2.8109168999944814]	5.15	5.94	0.0	controle	low_pain	43.0			sub-pilot014	250	14	43	45.5	COM11	COM7	COM3	2023-11-03_12h34.28.818	001-EEG_SVR_Officel	2022.2.5	142.64561978702923		5.148000000000138	1_sub-pilot014_SVR_EEG_block3-4.protocol.csv	step19	2304	228.637	STIMULATE	42.9	42.9	42.9	42.9	43.1	19	1115.932
1110.044	0	555022	CN/Lo	11	2	0	2	0	8.0	0.0	8.0	0.0						1166.9965366999968	1172.157281199994	1172.157281199994	6.0	['6', 'return']	[2.129759200004628, 2.8109168999944814]	5.15	5.94	0.0	controle	low_pain	43.0			sub-pilot014	250	14	43	45.5	COM11	COM7	COM3	2023-11-03_12h34.28.818	001-EEG_SVR_Officel	2022.2.5	142.64561978702923		5.942000000000007	1_sub-pilot014_SVR_EEG_block3-4.protocol.csv	step19	2304	228.637	STIMULATE	42.9	42.9	42.9	42.9	43.1	19	1115.932
1119.184	0	559592	wait	20	2	0	2	0	9.0	0.0	9.0	0.0						1187.9772018999938	1195.6939630999989	1195.6939630999989	2.0	['2', 'return']	[2.0326595999940764, 2.7131250999955228]	7.71	6.14	1.0	10hz	low_pain	43.0			sub-pilot014	250	14	43	45.5	COM11	COM7	COM3	2023-11-03_12h34.28.818	001-EEG_SVR_Officel	2022.2.5	142.64561978702923		9.889999999999873	1_sub-pilot014_SVR_EEG_block3-4.protocol.csv	step21	2543	252.318	STIMULATE	42.9	42.8	42.9	42.9	43.0	21	1139.613
1126.888	0	563444	10hz	3	2	0	2	0	9.0	0.0	9.0	0.0						1187.9772018999938	1195.6939630999989	1195.6939630999989	2.0	['2', 'return']	[2.0326595999940764, 2.7131250999955228]	7.71	6.14	1.0	10hz	low_pain	43.0			sub-pilot014	250	14	43	45.5	COM11	COM7	COM3	2023-11-03_12h34.28.818	001-EEG_SVR_Officel	2022.2.5	142.64561978702923		7.703999999999951	1_sub-pilot014_SVR_EEG_block3-4.protocol.csv	step21	2543	252.318	STIMULATE	42.9	42.8	42.9	42.9	43.0	21	1139.613
1133.776	0	566888	10/Lo	2	2	0	2	0	9.0	0.0	9.0	0.0						1187.9772018999938	1195.6939630999989	1195.6939630999989	2.0	['2', 'return']	[2.0326595999940764, 2.7131250999955228]	7.71	6.14	1.0	10hz	low_pain	43.0			sub-pilot014	250	14	43	45.5	COM11	COM7	COM3	2023-11-03_12h34.28.818	001-EEG_SVR_Officel	2022.2.5	142.64561978702923		6.138000000000147	1_sub-pilot014_SVR_EEG_block3-4.protocol.csv	step21	2543	252.318	STIMULATE	42.9	42.8	42.9	42.9	43.0	21	1139.613
1142.63	0	571315	wait	20	2	0	2	0	10.0	0.0	10.0	0.0						1211.4249987999938	1218.1133488999913	1218.1133488999913	1.0	['1', 'return']	[2.452491700008977, 3.204993300008937]	6.68	6.13	2.0	20hz	low_pain	43.0			sub-pilot014	250	14	43	45.5	COM11	COM7	COM3	2023-11-03_12h34.28.818	001-EEG_SVR_Officel	2022.2.5	142.64561978702923		9.604000000000042	1_sub-pilot014_SVR_EEG_block3-4.protocol.csv	step23	2769	274.719	STIMULATE	42.9	42.9	42.9	42.9	43.1	23	1162.0140000000001
1149.308	0	574654	20hz	6	2	0	2	0	10.0	0.0	10.0	0.0						1211.4249987999938	1218.1133488999913	1218.1133488999913	1.0	['1', 'return']	[2.452491700008977, 3.204993300008937]	6.68	6.13	2.0	20hz	low_pain	43.0			sub-pilot014	250	14	43	45.5	COM11	COM7	COM3	2023-11-03_12h34.28.818	001-EEG_SVR_Officel	2022.2.5	142.64561978702923		6.677999999999884	1_sub-pilot014_SVR_EEG_block3-4.protocol.csv	step23	2769	274.719	STIMULATE	42.9	42.9	42.9	42.9	43.1	23	1162.0140000000001
1156.188	0	578094	20/Lo	5	2	0	2	0	10.0	0.0	10.0	0.0						1211.4249987999938	1218.1133488999913	1218.1133488999913	1.0	['1', 'return']	[2.452491700008977, 3.204993300008937]	6.68	6.13	2.0	20hz	low_pain	43.0			sub-pilot014	250	14	43	45.5	COM11	COM7	COM3	2023-11-03_12h34.28.818	001-EEG_SVR_Officel	2022.2.5	142.64561978702923		6.130000000000109	1_sub-pilot014_SVR_EEG_block3-4.protocol.csv	step23	2769	274.719	STIMULATE	42.9	42.9	42.9	42.9	43.1	23	1162.0140000000001
1165.538	0	582769	wait	20	2	0	2	0	11.0	0.0	11.0	0.0						1234.3306660999951	1240.7619637000023	1240.7619637000023	7.0	['7', 'return']	[2.1181830999994418, 2.5735365000000456]	6.42	5.42	3.0	20hz	high_pain	45.5			sub-pilot014	250	14	43	45.5	COM11	COM7	COM3	2023-11-03_12h34.28.818	001-EEG_SVR_Officel	2022.2.5	142.64561978702923		10.099999999999909	1_sub-pilot014_SVR_EEG_block3-4.protocol.csv	step25	2990	296.621	STIMULATE	45.5	45.4	45.4	45.4	45.5	25	1183.916
1171.956	0	585978	20hz	6	2	0	2	0	11.0	0.0	11.0	0.0						1234.3306660999951	1240.7619637000023	1240.7619637000023	7.0	['7', 'return']	[2.1181830999994418, 2.5735365000000456]	6.42	5.42	3.0	20hz	high_pain	45.5			sub-pilot014	250	14	43	45.5	COM11	COM7	COM3	2023-11-03_12h34.28.818	001-EEG_SVR_Officel	2022.2.5	142.64561978702923		6.417999999999893	1_sub-pilot014_SVR_EEG_block3-4.protocol.csv	step25	2990	296.621	STIMULATE	45.5	45.4	45.4	45.4	45.5	25	1183.916
1178.128	0	589064	20/Hi	4	2	0	2	0	11.0	0.0	11.0	0.0						1234.3306660999951	1240.7619637000023	1240.7619637000023	7.0	['7', 'return']	[2.1181830999994418, 2.5735365000000456]	6.42	5.42	3.0	20hz	high_pain	45.5			sub-pilot014	250	14	43	45.5	COM11	COM7	COM3	2023-11-03_12h34.28.818	001-EEG_SVR_Officel	2022.2.5	142.64561978702923		5.4220000000000255	1_sub-pilot014_SVR_EEG_block3-4.protocol.csv	step25	2990	296.621	STIMULATE	45.5	45.4	45.4	45.4	45.5	25	1183.916
1187.56	0	593780	wait	20	2	0	2	0	12.0	0.0	12.0	0.0						1256.3541033999936	1263.8266023999895	1263.8266023999895	8.5	['8', 'a', '5', 'return']	[2.026851300004637, 2.5707598000008147, 2.730618899993715, 3.48296969999501]	7.46	5.76	0.0	20hz	high_pain	45.5			sub-pilot014	250	14	43	45.5	COM11	COM7	COM3	2023-11-03_12h34.28.818	001-EEG_SVR_Officel	2022.2.5	142.64561978702923		10.182000000000016	1_sub-pilot014_SVR_EEG_block3-4.protocol.csv	step27	3227	320.116	STIMULATE	45.5	45.4	45.4	45.4	45.6	27	1207.411
1195.02	0	597510	20hz	6	2	0	2	0	12.0	0.0	12.0	0.0						1256.3541033999936	1263.8266023999895	1263.8266023999895	8.5	['8', 'a', '5', 'return']	[2.026851300004637, 2.5707598000008147, 2.730618899993715, 3.48296969999501]	7.46	5.76	0.0	20hz	high_pain	45.5			sub-pilot014	250	14	43	45.5	COM11	COM7	COM3	2023-11-03_12h34.28.818	001-EEG_SVR_Officel	2022.2.5	142.64561978702923		7.460000000000036	1_sub-pilot014_SVR_EEG_block3-4.protocol.csv	step27	3227	320.116	STIMULATE	45.5	45.4	45.4	45.4	45.6	27	1207.411
1201.534	0	600767	20/Hi	4	2	0	2	0	12.0	0.0	12.0	0.0						1256.3541033999936	1263.8266023999895	1263.8266023999895	8.5	['8', 'a', '5', 'return']	[2.026851300004637, 2.5707598000008147, 2.730618899993715, 3.48296969999501]	7.46	5.76	0.0	20hz	high_pain	45.5			sub-pilot014	250	14	43	45.5	COM11	COM7	COM3	2023-11-03_12h34.28.818	001-EEG_SVR_Officel	2022.2.5	142.64561978702923		5.764000000000124	1_sub-pilot014_SVR_EEG_block3-4.protocol.csv	step27	3227	320.116	STIMULATE	45.5	45.4	45.4	45.4	45.6	27	1207.411
1211.536	0	605768	wait	20	2	0	2	0	13.0	0.0	13.0	0.0						1280.3295842999942	1287.1642993999994	1287.1642993999994	4.0	['4', 'return']	[2.0274795000004815, 2.62789290001092]	6.83	5.73	1.0	controle	low_pain	43.0			sub-pilot014	250	14	43	45.5	COM11	COM7	COM3	2023-11-03_12h34.28.818	001-EEG_SVR_Officel	2022.2.5	142.64561978702923		10.751999999999953	1_sub-pilot014_SVR_EEG_block3-4.protocol.csv	step29	3462	343.471	STIMULATE	43.0	42.9	42.9	42.9	42.9	29	1230.766
1218.36	0	609180	CNhz	12	2	0	2	0	13.0	0.0	13.0	0.0						1280.3295842999942	1287.1642993999994	1287.1642993999994	4.0	['4', 'return']	[2.0274795000004815, 2.62789290001092]	6.83	5.73	1.0	controle	low_pain	43.0			sub-pilot014	250	14	43	45.5	COM11	COM7	COM3	2023-11-03_12h34.28.818	001-EEG_SVR_Officel	2022.2.5	142.64561978702923		6.823999999999842	1_sub-pilot014_SVR_EEG_block3-4.protocol.csv	step29	3462	343.471	STIMULATE	43.0	42.9	42.9	42.9	42.9	29	1230.766
1224.842	0	612421	CN/Lo	11	2	0	2	0	13.0	0.0	13.0	0.0						1280.3295842999942	1287.1642993999994	1287.1642993999994	4.0	['4', 'return']	[2.0274795000004815, 2.62789290001092]	6.83	5.73	1.0	controle	low_pain	43.0			sub-pilot014	250	14	43	45.5	COM11	COM7	COM3	2023-11-03_12h34.28.818	001-EEG_SVR_Officel	2022.2.5	142.64561978702923		5.732000000000198	1_sub-pilot014_SVR_EEG_block3-4.protocol.csv	step29	3462	343.471	STIMULATE	43.0	42.9	42.9	42.9	42.9	29	1230.766
1234.024	0	617012	wait	20	2	0	2	0	14.0	0.0	14.0	0.0						1302.8179929999897	1309.1452238999918	1309.1452238999918	2.0	['2', 'return']	[2.413935299991863, 3.236791799994535]	6.32	5.94	2.0	10hz	low_pain	43.0			sub-pilot014	250	14	43	45.5	COM11	COM7	COM3	2023-11-03_12h34.28.818	001-EEG_SVR_Officel	2022.2.5	142.64561978702923		9.931999999999789	1_sub-pilot014_SVR_EEG_block3-4.protocol.csv	step31	3686	365.637	STIMULATE	42.9	42.9	42.9	42.9	43.0	31	1252.932
1240.34	0	620170	10hz	3	2	0	2	0	14.0	0.0	14.0	0.0						1302.8179929999897	1309.1452238999918	1309.1452238999918	2.0	['2', 'return']	[2.413935299991863, 3.236791799994535]	6.32	5.94	2.0	10hz	low_pain	43.0			sub-pilot014	250	14	43	45.5	COM11	COM7	COM3	2023-11-03_12h34.28.818	001-EEG_SVR_Officel	2022.2.5	142.64561978702923		6.316000000000031	1_sub-pilot014_SVR_EEG_block3-4.protocol.csv	step31	3686	365.637	STIMULATE	42.9	42.9	42.9	42.9	43.0	31	1252.932
1247.032	0	623516	10/Lo	2	2	0	2	0	14.0	0.0	14.0	0.0						1302.8179929999897	1309.1452238999918	1309.1452238999918	2.0	['2', 'return']	[2.413935299991863, 3.236791799994535]	6.32	5.94	2.0	10hz	low_pain	43.0			sub-pilot014	250	14	43	45.5	COM11	COM7	COM3	2023-11-03_12h34.28.818	001-EEG_SVR_Officel	2022.2.5	142.64561978702923		5.942000000000007	1_sub-pilot014_SVR_EEG_block3-4.protocol.csv	step31	3686	365.637	STIMULATE	42.9	42.9	42.9	42.9	43.0	31	1252.932
1256.604	0	628302	wait	20	2	0	2	0	15.0	0.0	15.0	0.0						1325.3975364999933	1332.154911999998	1332.154911999998	2.0	['2', 'return']	[2.771849700002349, 3.427173000003677]	6.75	5.85	3.0	40hz	high_pain	45.5			sub-pilot014	250	14	43	45.5	COM11	COM7	COM3	2023-11-03_12h34.28.818	001-EEG_SVR_Officel	2022.2.5	142.64561978702923		10.322000000000116	1_sub-pilot014_SVR_EEG_block3-4.protocol.csv	step33	3917	388.515	STIMULATE	45.5	45.4	45.4	45.4	45.4	33	1275.81
1263.35	0	631675	40hz	9	2	0	2	0	15.0	0.0	15.0	0.0						1325.3975364999933	1332.154911999998	1332.154911999998	2.0	['2', 'return']	[2.771849700002349, 3.427173000003677]	6.75	5.85	3.0	40hz	high_pain	45.5			sub-pilot014	250	14	43	45.5	COM11	COM7	COM3	2023-11-03_12h34.28.818	001-EEG_SVR_Officel	2022.2.5	142.64561978702923		6.745999999999867	1_sub-pilot014_SVR_EEG_block3-4.protocol.csv	step33	3917	388.515	STIMULATE	45.5	45.4	45.4	45.4	45.4	33	1275.81
1269.952	0	634976	40/Hi	7	2	0	2	0	15.0	0.0	15.0	0.0						1325.3975364999933	1332.154911999998	1332.154911999998	2.0	['2', 'return']	[2.771849700002349, 3.427173000003677]	6.75	5.85	3.0	40hz	high_pain	45.5			sub-pilot014	250	14	43	45.5	COM11	COM7	COM3	2023-11-03_12h34.28.818	001-EEG_SVR_Officel	2022.2.5	142.64561978702923		5.852000000000089	1_sub-pilot014_SVR_EEG_block3-4.protocol.csv	step33	3917	388.515	STIMULATE	45.5	45.4	45.4	45.4	45.4	33	1275.81
1314.042	0	657021	wait	20	3	0	3	0	0.0	0.0	0.0	0.0				p	0.8639796000061324	1382.8345100000006	1389.1412743999972	1389.1412743999972	4.0	['4', 'return']	[2.2497260000091046, 2.7939582000108203]	6.3	6.42	0.0	20hz	low_pain	43.0			sub-pilot014	250	14	43	45.5	COM11	COM7	COM3	2023-11-03_12h34.28.818	001-EEG_SVR_Officel	2022.2.5	142.64561978702923		44.83999999999992	1_sub-pilot014_SVR_EEG_block3-4.protocol.csv	step35	4495	446.185	STIMULATE	43.1	42.9	42.9	42.9	42.9	35	1333.4360000000001
1320.334	0	660167	20hz	6	3	0	3	0	0.0	0.0	0.0	0.0				p	0.8639796000061324	1382.8345100000006	1389.1412743999972	1389.1412743999972	4.0	['4', 'return']	[2.2497260000091046, 2.7939582000108203]	6.3	6.42	0.0	20hz	low_pain	43.0			sub-pilot014	250	14	43	45.5	COM11	COM7	COM3	2023-11-03_12h34.28.818	001-EEG_SVR_Officel	2022.2.5	142.64561978702923		6.292000000000144	1_sub-pilot014_SVR_EEG_block3-4.protocol.csv	step35	4495	446.185	STIMULATE	43.1	42.9	42.9	42.9	42.9	35	1333.4360000000001
1327.506	0	663753	20/Lo	5	3	0	3	0	0.0	0.0	0.0	0.0				p	0.8639796000061324	1382.8345100000006	1389.1412743999972	1389.1412743999972	4.0	['4', 'return']	[2.2497260000091046, 2.7939582000108203]	6.3	6.42	0.0	20hz	low_pain	43.0			sub-pilot014	250	14	43	45.5	COM11	COM7	COM3	2023-11-03_12h34.28.818	001-EEG_SVR_Officel	2022.2.5	142.64561978702923		6.4220000000000255	1_sub-pilot014_SVR_EEG_block3-4.protocol.csv	step35	4495	446.185	STIMULATE	43.1	42.9	42.9	42.9	42.9	35	1333.4360000000001
1336.16	0	668080	wait	20	3	0	3	0	1.0	0.0	1.0	0.0						1404.9561401999963	1410.8733560999972	1410.8733560999972	9.0	['9', 'return']	[2.093996600000537, 2.646482800002559]	5.91	6.03	1.0	40hz	high_pain	45.5			sub-pilot014	250	14	43	45.5	COM11	COM7	COM3	2023-11-03_12h34.28.818	001-EEG_SVR_Officel	2022.2.5	142.64561978702923		9.403999999999996	1_sub-pilot014_SVR_EEG_block3-4.protocol.csv	step37	4711	467.532	STIMULATE	45.5	45.4	45.4	45.5	45.5	37	1354.7830000000001
1342.066	0	671033	40hz	9	3	0	3	0	1.0	0.0	1.0	0.0						1404.9561401999963	1410.8733560999972	1410.8733560999972	9.0	['9', 'return']	[2.093996600000537, 2.646482800002559]	5.91	6.03	1.0	40hz	high_pain	45.5			sub-pilot014	250	14	43	45.5	COM11	COM7	COM3	2023-11-03_12h34.28.818	001-EEG_SVR_Officel	2022.2.5	142.64561978702923		5.905999999999949	1_sub-pilot014_SVR_EEG_block3-4.protocol.csv	step37	4711	467.532	STIMULATE	45.5	45.4	45.4	45.5	45.5	37	1354.7830000000001
1348.85	0	674425	40/Hi	7	3	0	3	0	1.0	0.0	1.0	0.0						1404.9561401999963	1410.8733560999972	1410.8733560999972	9.0	['9', 'return']	[2.093996600000537, 2.646482800002559]	5.91	6.03	1.0	40hz	high_pain	45.5			sub-pilot014	250	14	43	45.5	COM11	COM7	COM3	2023-11-03_12h34.28.818	001-EEG_SVR_Officel	2022.2.5	142.64561978702923		6.033999999999878	1_sub-pilot014_SVR_EEG_block3-4.protocol.csv	step37	4711	467.532	STIMULATE	45.5	45.4	45.4	45.5	45.5	37	1354.7830000000001
1357.746	0	678873	wait	20	3	0	3	0	2.0	0.0	2.0	0.0						1426.5411498999893	1433.6186550999992	1433.6186550999992	5.0	['5', 'return']	[2.1400027999916347, 2.8836936999869067]	7.07	5.55	2.0	controle	low_pain	43.0			sub-pilot014	250	14	43	45.5	COM11	COM7	COM3	2023-11-03_12h34.28.818	001-EEG_SVR_Officel	2022.2.5	142.64561978702923		9.646000000000186	1_sub-pilot014_SVR_EEG_block3-4.protocol.csv	step39	4935	489.8	STIMULATE	43.0	42.9	42.9	42.9	42.9	39	1377.0510000000002
1364.812	0	682406	CNhz	12	3	0	3	0	2.0	0.0	2.0	0.0						1426.5411498999893	1433.6186550999992	1433.6186550999992	5.0	['5', 'return']	[2.1400027999916347, 2.8836936999869067]	7.07	5.55	2.0	controle	low_pain	43.0			sub-pilot014	250	14	43	45.5	COM11	COM7	COM3	2023-11-03_12h34.28.818	001-EEG_SVR_Officel	2022.2.5	142.64561978702923		7.0659999999998035	1_sub-pilot014_SVR_EEG_block3-4.protocol.csv	step39	4935	489.8	STIMULATE	43.0	42.9	42.9	42.9	42.9	39	1377.0510000000002
1371.116	0	685558	CN/Lo	11	3	0	3	0	2.0	0.0	2.0	0.0						1426.5411498999893	1433.6186550999992	1433.6186550999992	5.0	['5', 'return']	[2.1400027999916347, 2.8836936999869067]	7.07	5.55	2.0	controle	low_pain	43.0			sub-pilot014	250	14	43	45.5	COM11	COM7	COM3	2023-11-03_12h34.28.818	001-EEG_SVR_Officel	2022.2.5	142.64561978702923		5.554000000000087	1_sub-pilot014_SVR_EEG_block3-4.protocol.csv	step39	4935	489.8	STIMULATE	43.0	42.9	42.9	42.9	42.9	39	1377.0510000000002
1380.72	0	690360	wait	20	3	0	3	0	3.0	0.0	3.0	0.0						1449.5152835999909	1455.9128694999963	1455.9128694999963	8.0	['8', 'return']	[2.411530800003675, 2.8431560000026366]	6.39	6.18	3.0	controle	high_pain	45.5			sub-pilot014	250	14	43	45.5	COM11	COM7	COM3	2023-11-03_12h34.28.818	001-EEG_SVR_Officel	2022.2.5	142.64561978702923		10.354000000000042	1_sub-pilot014_SVR_EEG_block3-4.protocol.csv	step41	5167	512.722	STIMULATE	45.4	45.4	45.4	45.5	45.5	41	1399.973
1387.106	0	693553	CNhz	12	3	0	3	0	3.0	0.0	3.0	0.0						1449.5152835999909	1455.9128694999963	1455.9128694999963	8.0	['8', 'return']	[2.411530800003675, 2.8431560000026366]	6.39	6.18	3.0	controle	high_pain	45.5			sub-pilot014	250	14	43	45.5	COM11	COM7	COM3	2023-11-03_12h34.28.818	001-EEG_SVR_Officel	2022.2.5	142.64561978702923		6.385999999999967	1_sub-pilot014_SVR_EEG_block3-4.protocol.csv	step41	5167	512.722	STIMULATE	45.4	45.4	45.4	45.5	45.5	41	1399.973
1394.036	0	697018	CN/Hi	10	3	0	3	0	3.0	0.0	3.0	0.0						1449.5152835999909	1455.9128694999963	1455.9128694999963	8.0	['8', 'return']	[2.411530800003675, 2.8431560000026366]	6.39	6.18	3.0	controle	high_pain	45.5			sub-pilot014	250	14	43	45.5	COM11	COM7	COM3	2023-11-03_12h34.28.818	001-EEG_SVR_Officel	2022.2.5	142.64561978702923		6.180000000000064	1_sub-pilot014_SVR_EEG_block3-4.protocol.csv	step41	5167	512.722	STIMULATE	45.4	45.4	45.4	45.5	45.5	41	1399.973
1402.982	0	701491	wait	20	3	0	3	0	4.0	0.0	4.0	0.0						1471.7762670999946	1477.318239399989	1477.318239399989	7.5	['7', 'a', '5', 'return']	[2.3836738000100013, 2.9204649000021163, 3.1356301000050735, 4.25654420000501]	5.53	5.75	0.0	10hz	low_pain	43.0			sub-pilot014	250	14	43	45.5	COM11	COM7	COM3	2023-11-03_12h34.28.818	001-EEG_SVR_Officel	2022.2.5	142.64561978702923		9.695999999999913	1_sub-pilot014_SVR_EEG_block3-4.protocol.csv	step43	5378	533.64	STIMULATE	42.9	42.9	42.9	42.9	43.0	43	1420.891
1408.512	0	704256	10hz	3	3	0	3	0	4.0	0.0	4.0	0.0						1471.7762670999946	1477.318239399989	1477.318239399989	7.5	['7', 'a', '5', 'return']	[2.3836738000100013, 2.9204649000021163, 3.1356301000050735, 4.25654420000501]	5.53	5.75	0.0	10hz	low_pain	43.0			sub-pilot014	250	14	43	45.5	COM11	COM7	COM3	2023-11-03_12h34.28.818	001-EEG_SVR_Officel	2022.2.5	142.64561978702923		5.529999999999973	1_sub-pilot014_SVR_EEG_block3-4.protocol.csv	step43	5378	533.64	STIMULATE	42.9	42.9	42.9	42.9	43.0	43	1420.891
1415.01	0	707505	10/Lo	2	3	0	3	0	4.0	0.0	4.0	0.0						1471.7762670999946	1477.318239399989	1477.318239399989	7.5	['7', 'a', '5', 'return']	[2.3836738000100013, 2.9204649000021163, 3.1356301000050735, 4.25654420000501]	5.53	5.75	0.0	10hz	low_pain	43.0			sub-pilot014	250	14	43	45.5	COM11	COM7	COM3	2023-11-03_12h34.28.818	001-EEG_SVR_Officel	2022.2.5	142.64561978702923		5.748000000000047	1_sub-pilot014_SVR_EEG_block3-4.protocol.csv	step43	5378	533.64	STIMULATE	42.9	42.9	42.9	42.9	43.0	43	1420.891
1425.796	0	712898	wait	20	3	0	3	0	5.0	0.0	5.0	0.0						1494.5910474999982	1502.223927500003	1502.223927500003	8.0	['8', 'return']	[2.1113552000024356, 2.7514056999934837]	7.62	5.14	1.0	controle	high_pain	45.5			sub-pilot014	250	14	43	45.5	COM11	COM7	COM3	2023-11-03_12h34.28.818	001-EEG_SVR_Officel	2022.2.5	142.64561978702923		11.536000000000058	1_sub-pilot014_SVR_EEG_block3-4.protocol.csv	step45	5623	557.933	STIMULATE	45.5	45.4	45.4	45.4	45.4	45	1445.1840000000002
1433.416	0	716708	CNhz	12	3	0	3	0	5.0	0.0	5.0	0.0						1494.5910474999982	1502.223927500003	1502.223927500003	8.0	['8', 'return']	[2.1113552000024356, 2.7514056999934837]	7.62	5.14	1.0	controle	high_pain	45.5			sub-pilot014	250	14	43	45.5	COM11	COM7	COM3	2023-11-03_12h34.28.818	001-EEG_SVR_Officel	2022.2.5	142.64561978702923		7.619999999999891	1_sub-pilot014_SVR_EEG_block3-4.protocol.csv	step45	5623	557.933	STIMULATE	45.5	45.4	45.4	45.4	45.4	45	1445.1840000000002
1439.312	0	719656	CN/Hi	10	3	0	3	0	5.0	0.0	5.0	0.0						1494.5910474999982	1502.223927500003	1502.223927500003	8.0	['8', 'return']	[2.1113552000024356, 2.7514056999934837]	7.62	5.14	1.0	controle	high_pain	45.5			sub-pilot014	250	14	43	45.5	COM11	COM7	COM3	2023-11-03_12h34.28.818	001-EEG_SVR_Officel	2022.2.5	142.64561978702923		5.145999999999958	1_sub-pilot014_SVR_EEG_block3-4.protocol.csv	step45	5623	557.933	STIMULATE	45.5	45.4	45.4	45.4	45.4	45	1445.1840000000002
1449.202	0	724601	wait	20	3	0	3	0	6.0	0.0	6.0	0.0						1517.9970853999985	1524.0670874999923	1524.0670874999923	9.5	['9', 'a', '5', 'return']	[2.2754349000024376, 2.8269333000062034, 3.0273352000076557, 3.9548677999991924]	6.06	6.15	2.0	10hz	high_pain	45.5			sub-pilot014	250	14	43	45.5	COM11	COM7	COM3	2023-11-03_12h34.28.818	001-EEG_SVR_Officel	2022.2.5	142.64561978702923		10.6400000000001	1_sub-pilot014_SVR_EEG_block3-4.protocol.csv	step47	5853	580.784	STIMULATE	45.5	45.4	45.4	45.4	45.6	47	1468.035
1455.26	0	727630	10hz	3	3	0	3	0	6.0	0.0	6.0	0.0						1517.9970853999985	1524.0670874999923	1524.0670874999923	9.5	['9', 'a', '5', 'return']	[2.2754349000024376, 2.8269333000062034, 3.0273352000076557, 3.9548677999991924]	6.06	6.15	2.0	10hz	high_pain	45.5			sub-pilot014	250	14	43	45.5	COM11	COM7	COM3	2023-11-03_12h34.28.818	001-EEG_SVR_Officel	2022.2.5	142.64561978702923		6.057999999999993	1_sub-pilot014_SVR_EEG_block3-4.protocol.csv	step47	5853	580.784	STIMULATE	45.5	45.4	45.4	45.4	45.6	47	1468.035
1462.162	0	731081	10/Hi	1	3	0	3	0	6.0	0.0	6.0	0.0						1517.9970853999985	1524.0670874999923	1524.0670874999923	9.5	['9', 'a', '5', 'return']	[2.2754349000024376, 2.8269333000062034, 3.0273352000076557, 3.9548677999991924]	6.06	6.15	2.0	10hz	high_pain	45.5			sub-pilot014	250	14	43	45.5	COM11	COM7	COM3	2023-11-03_12h34.28.818	001-EEG_SVR_Officel	2022.2.5	142.64561978702923		6.152000000000044	1_sub-pilot014_SVR_EEG_block3-4.protocol.csv	step47	5853	580.784	STIMULATE	45.5	45.4	45.4	45.4	45.6	47	1468.035
1472.238	0	736119	wait	20	3	0	3	0	7.0	0.0	7.0	0.0						1541.0337373999937	1546.7224080000017	1546.7224080000017	7.0	['7', 'return']	[4.282980400006636, 5.027203200006625]	5.68	5.47	3.0	10hz	low_pain	43.0			sub-pilot014	250	14	43	45.5	COM11	COM7	COM3	2023-11-03_12h34.28.818	001-EEG_SVR_Officel	2022.2.5	142.64561978702923		10.826000000000022	1_sub-pilot014_SVR_EEG_block3-4.protocol.csv	step49	6075	602.751	STIMULATE	42.9	42.9	42.9	42.9	42.9	49	1490.002
1477.916	0	738958	10hz	3	3	0	3	0	7.0	0.0	7.0	0.0						1541.0337373999937	1546.7224080000017	1546.7224080000017	7.0	['7', 'return']	[4.282980400006636, 5.027203200006625]	5.68	5.47	3.0	10hz	low_pain	43.0			sub-pilot014	250	14	43	45.5	COM11	COM7	COM3	2023-11-03_12h34.28.818	001-EEG_SVR_Officel	2022.2.5	142.64561978702923		5.677999999999884	1_sub-pilot014_SVR_EEG_block3-4.protocol.csv	step49	6075	602.751	STIMULATE	42.9	42.9	42.9	42.9	42.9	49	1490.002
1484.136	0	742068	10/Lo	2	3	0	3	0	7.0	0.0	7.0	0.0						1541.0337373999937	1546.7224080000017	1546.7224080000017	7.0	['7', 'return']	[4.282980400006636, 5.027203200006625]	5.68	5.47	3.0	10hz	low_pain	43.0			sub-pilot014	250	14	43	45.5	COM11	COM7	COM3	2023-11-03_12h34.28.818	001-EEG_SVR_Officel	2022.2.5	142.64561978702923		5.470000000000027	1_sub-pilot014_SVR_EEG_block3-4.protocol.csv	step49	6075	602.751	STIMULATE	42.9	42.9	42.9	42.9	42.9	49	1490.002
1495.964	0	747982	wait	20	3	0	3	0	8.0	0.0	8.0	0.0						1564.759654399997	1569.884809700001	1569.884809700001	9.5	['9', 'a', '5', 'return']	[1.7294615999999223, 2.3371290000068257, 2.5144688000000315, 3.51310700000613]	5.12	5.78	0.0	10hz	high_pain	45.5			sub-pilot014	250	14	43	45.5	COM11	COM7	COM3	2023-11-03_12h34.28.818	001-EEG_SVR_Officel	2022.2.5	142.64561978702923		12.577999999999975	1_sub-pilot014_SVR_EEG_block3-4.protocol.csv	step51	6312	626.202	STIMULATE	45.5	45.4	45.4	45.4	45.5	51	1513.453
1501.078	0	750539	10hz	3	3	0	3	0	8.0	0.0	8.0	0.0						1564.759654399997	1569.884809700001	1569.884809700001	9.5	['9', 'a', '5', 'return']	[1.7294615999999223, 2.3371290000068257, 2.5144688000000315, 3.51310700000613]	5.12	5.78	0.0	10hz	high_pain	45.5			sub-pilot014	250	14	43	45.5	COM11	COM7	COM3	2023-11-03_12h34.28.818	001-EEG_SVR_Officel	2022.2.5	142.64561978702923		5.114000000000033	1_sub-pilot014_SVR_EEG_block3-4.protocol.csv	step51	6312	626.202	STIMULATE	45.5	45.4	45.4	45.4	45.5	51	1513.453
1507.61	0	753805	10/Hi	1	3	0	3	0	8.0	0.0	8.0	0.0						1564.759654399997	1569.884809700001	1569.884809700001	9.5	['9', 'a', '5', 'return']	[1.7294615999999223, 2.3371290000068257, 2.5144688000000315, 3.51310700000613]	5.12	5.78	0.0	10hz	high_pain	45.5			sub-pilot014	250	14	43	45.5	COM11	COM7	COM3	2023-11-03_12h34.28.818	001-EEG_SVR_Officel	2022.2.5	142.64561978702923		5.781999999999925	1_sub-pilot014_SVR_EEG_block3-4.protocol.csv	step51	6312	626.202	STIMULATE	45.5	45.4	45.4	45.4	45.5	51	1513.453
1517.61	0	758805	wait	20	3	0	3	0	9.0	0.0	9.0	0.0						1586.407084599996	1591.5195818999928	1591.5195818999928	10.0	['1', '0', 'return']	[2.9196426999988034, 3.527622599998722, 4.607686799994553]	5.1	5.66	1.0	20hz	high_pain	45.5			sub-pilot014	250	14	43	45.5	COM11	COM7	COM3	2023-11-03_12h34.28.818	001-EEG_SVR_Officel	2022.2.5	142.64561978702923		10.75	1_sub-pilot014_SVR_EEG_block3-4.protocol.csv	step53	6529	647.698	STIMULATE	45.5	45.4	45.4	45.4	45.5	53	1534.949
1522.712	0	761356	20hz	6	3	0	3	0	9.0	0.0	9.0	0.0						1586.407084599996	1591.5195818999928	1591.5195818999928	10.0	['1', '0', 'return']	[2.9196426999988034, 3.527622599998722, 4.607686799994553]	5.1	5.66	1.0	20hz	high_pain	45.5			sub-pilot014	250	14	43	45.5	COM11	COM7	COM3	2023-11-03_12h34.28.818	001-EEG_SVR_Officel	2022.2.5	142.64561978702923		5.102000000000089	1_sub-pilot014_SVR_EEG_block3-4.protocol.csv	step53	6529	647.698	STIMULATE	45.5	45.4	45.4	45.4	45.5	53	1534.949
1529.12	0	764560	20/Hi	4	3	0	3	0	9.0	0.0	9.0	0.0						1586.407084599996	1591.5195818999928	1591.5195818999928	10.0	['1', '0', 'return']	[2.9196426999988034, 3.527622599998722, 4.607686799994553]	5.1	5.66	1.0	20hz	high_pain	45.5			sub-pilot014	250	14	43	45.5	COM11	COM7	COM3	2023-11-03_12h34.28.818	001-EEG_SVR_Officel	2022.2.5	142.64561978702923		5.657999999999902	1_sub-pilot014_SVR_EEG_block3-4.protocol.csv	step53	6529	647.698	STIMULATE	45.5	45.4	45.4	45.4	45.5	53	1534.949
1540.344	0	770172	wait	20	3	0	3	0	10.0	0.0	10.0	0.0						1609.1388540999906	1616.966978299999	1616.966978299999	10.0	['1', '0', 'return']	[2.272781000006944, 2.871741499999189, 3.6484610000043176]	7.82	5.15	2.0	20hz	high_pain	45.5			sub-pilot014	250	14	43	45.5	COM11	COM7	COM3	2023-11-03_12h34.28.818	001-EEG_SVR_Officel	2022.2.5	142.64561978702923		11.97400000000016	1_sub-pilot014_SVR_EEG_block3-4.protocol.csv	step55	6781	672.708	STIMULATE	45.5	45.4	45.4	45.5	45.5	55	1559.959
1548.16	0	774080	20hz	6	3	0	3	0	10.0	0.0	10.0	0.0						1609.1388540999906	1616.966978299999	1616.966978299999	10.0	['1', '0', 'return']	[2.272781000006944, 2.871741499999189, 3.6484610000043176]	7.82	5.15	2.0	20hz	high_pain	45.5			sub-pilot014	250	14	43	45.5	COM11	COM7	COM3	2023-11-03_12h34.28.818	001-EEG_SVR_Officel	2022.2.5	142.64561978702923		7.816000000000031	1_sub-pilot014_SVR_EEG_block3-4.protocol.csv	step55	6781	672.708	STIMULATE	45.5	45.4	45.4	45.5	45.5	55	1559.959
1554.06	0	777030	20/Hi	4	3	0	3	0	10.0	0.0	10.0	0.0						1609.1388540999906	1616.966978299999	1616.966978299999	10.0	['1', '0', 'return']	[2.272781000006944, 2.871741499999189, 3.6484610000043176]	7.82	5.15	2.0	20hz	high_pain	45.5			sub-pilot014	250	14	43	45.5	COM11	COM7	COM3	2023-11-03_12h34.28.818	001-EEG_SVR_Officel	2022.2.5	142.64561978702923		5.149999999999864	1_sub-pilot014_SVR_EEG_block3-4.protocol.csv	step55	6781	672.708	STIMULATE	45.5	45.4	45.4	45.5	45.5	55	1559.959
1564.84	0	782420	wait	20	3	0	3	0	11.0	0.0	11.0	0.0						1633.6361783999891	1641.0256949999894	1641.0256949999894	7.0	['7', 'return']	[2.660009400002309, 3.2286051999981282]	7.38	5.34	3.0	40hz	low_pain	43.0			sub-pilot014	250	14	43	45.5	COM11	COM7	COM3	2023-11-03_12h34.28.818	001-EEG_SVR_Officel	2022.2.5	142.64561978702923		11.529999999999973	1_sub-pilot014_SVR_EEG_block3-4.protocol.csv	step57	7024	696.895	STIMULATE	43.0	42.9	42.9	42.9	42.9	57	1584.1460000000002
1572.218	0	786109	40hz	9	3	0	3	0	11.0	0.0	11.0	0.0						1633.6361783999891	1641.0256949999894	1641.0256949999894	7.0	['7', 'return']	[2.660009400002309, 3.2286051999981282]	7.38	5.34	3.0	40hz	low_pain	43.0			sub-pilot014	250	14	43	45.5	COM11	COM7	COM3	2023-11-03_12h34.28.818	001-EEG_SVR_Officel	2022.2.5	142.64561978702923		7.378000000000156	1_sub-pilot014_SVR_EEG_block3-4.protocol.csv	step57	7024	696.895	STIMULATE	43.0	42.9	42.9	42.9	42.9	57	1584.1460000000002
1578.306	0	789153	40/Lo	8	3	0	3	0	11.0	0.0	11.0	0.0						1633.6361783999891	1641.0256949999894	1641.0256949999894	7.0	['7', 'return']	[2.660009400002309, 3.2286051999981282]	7.38	5.34	3.0	40hz	low_pain	43.0			sub-pilot014	250	14	43	45.5	COM11	COM7	COM3	2023-11-03_12h34.28.818	001-EEG_SVR_Officel	2022.2.5	142.64561978702923		5.337999999999965	1_sub-pilot014_SVR_EEG_block3-4.protocol.csv	step57	7024	696.895	STIMULATE	43.0	42.9	42.9	42.9	42.9	57	1584.1460000000002
1588.474	0	794237	wait	20	3	0	3	0	12.0	0.0	12.0	0.0						1657.270458999992	1663.0696167999995	1663.0696167999995	9.0	['9', 'return']	[2.192358399988734, 2.5123754999949597]	5.79	5.32	0.0	controle	high_pain	45.5			sub-pilot014	250	14	43	45.5	COM11	COM7	COM3	2023-11-03_12h34.28.818	001-EEG_SVR_Officel	2022.2.5	142.64561978702923		10.917999999999893	1_sub-pilot014_SVR_EEG_block3-4.protocol.csv	step59	7248	719.07	STIMULATE	45.6	45.4	45.4	45.4	45.4	59	1606.3210000000001
1594.262	0	797131	CNhz	12	3	0	3	0	12.0	0.0	12.0	0.0						1657.270458999992	1663.0696167999995	1663.0696167999995	9.0	['9', 'return']	[2.192358399988734, 2.5123754999949597]	5.79	5.32	0.0	controle	high_pain	45.5			sub-pilot014	250	14	43	45.5	COM11	COM7	COM3	2023-11-03_12h34.28.818	001-EEG_SVR_Officel	2022.2.5	142.64561978702923		5.788000000000011	1_sub-pilot014_SVR_EEG_block3-4.protocol.csv	step59	7248	719.07	STIMULATE	45.6	45.4	45.4	45.4	45.4	59	1606.3210000000001
1600.33	0	800165	CN/Hi	10	3	0	3	0	12.0	0.0	12.0	0.0						1657.270458999992	1663.0696167999995	1663.0696167999995	9.0	['9', 'return']	[2.192358399988734, 2.5123754999949597]	5.79	5.32	0.0	controle	high_pain	45.5			sub-pilot014	250	14	43	45.5	COM11	COM7	COM3	2023-11-03_12h34.28.818	001-EEG_SVR_Officel	2022.2.5	142.64561978702923		5.317999999999984	1_sub-pilot014_SVR_EEG_block3-4.protocol.csv	step59	7248	719.07	STIMULATE	45.6	45.4	45.4	45.4	45.4	59	1606.3210000000001
1609.796	0	804898	wait	20	3	0	3	0	13.0	0.0	13.0	0.0						1678.5918605999905	1686.3989229	1686.3989229	4.0	['4', 'return']	[2.376379799999995, 3.024496600002749]	7.8	5.16	1.0	20hz	low_pain	43.0			sub-pilot014	250	14	43	45.5	COM11	COM7	COM3	2023-11-03_12h34.28.818	001-EEG_SVR_Officel	2022.2.5	142.64561978702923		10.216000000000122	1_sub-pilot014_SVR_EEG_block3-4.protocol.csv	step61	7481	742.147	STIMULATE	43.0	42.9	42.8	42.9	42.9	61	1629.3980000000001
1617.59	0	808795	20hz	6	3	0	3	0	13.0	0.0	13.0	0.0						1678.5918605999905	1686.3989229	1686.3989229	4.0	['4', 'return']	[2.376379799999995, 3.024496600002749]	7.8	5.16	1.0	20hz	low_pain	43.0			sub-pilot014	250	14	43	45.5	COM11	COM7	COM3	2023-11-03_12h34.28.818	001-EEG_SVR_Officel	2022.2.5	142.64561978702923		7.793999999999869	1_sub-pilot014_SVR_EEG_block3-4.protocol.csv	step61	7481	742.147	STIMULATE	43.0	42.9	42.8	42.9	42.9	61	1629.3980000000001
1623.5	0	811750	20/Lo	5	3	0	3	0	13.0	0.0	13.0	0.0						1678.5918605999905	1686.3989229	1686.3989229	4.0	['4', 'return']	[2.376379799999995, 3.024496600002749]	7.8	5.16	1.0	20hz	low_pain	43.0			sub-pilot014	250	14	43	45.5	COM11	COM7	COM3	2023-11-03_12h34.28.818	001-EEG_SVR_Officel	2022.2.5	142.64561978702923		5.160000000000082	1_sub-pilot014_SVR_EEG_block3-4.protocol.csv	step61	7481	742.147	STIMULATE	43.0	42.9	42.8	42.9	42.9	61	1629.3980000000001
1633.646	0	816823	wait	20	3	0	3	0	14.0	0.0	14.0	0.0						1702.4424580999912	1709.3257600999932	1709.3257600999932	10.0	['1', '0', 'return']	[2.3774127999931807, 2.9529965999972774, 3.6818064999970375]	6.87	5.83	2.0	controle	high_pain	45.5			sub-pilot014	250	14	43	45.5	COM11	COM7	COM3	2023-11-03_12h34.28.818	001-EEG_SVR_Officel	2022.2.5	142.64561978702923		10.895999999999958	1_sub-pilot014_SVR_EEG_block3-4.protocol.csv	step63	7718	765.821	STIMULATE	45.5	45.4	45.4	45.4	45.5	63	1653.0720000000001
1640.518	0	820259	CNhz	12	3	0	3	0	14.0	0.0	14.0	0.0						1702.4424580999912	1709.3257600999932	1709.3257600999932	10.0	['1', '0', 'return']	[2.3774127999931807, 2.9529965999972774, 3.6818064999970375]	6.87	5.83	2.0	controle	high_pain	45.5			sub-pilot014	250	14	43	45.5	COM11	COM7	COM3	2023-11-03_12h34.28.818	001-EEG_SVR_Officel	2022.2.5	142.64561978702923		6.872000000000071	1_sub-pilot014_SVR_EEG_block3-4.protocol.csv	step63	7718	765.821	STIMULATE	45.5	45.4	45.4	45.4	45.5	63	1653.0720000000001
1647.1	0	823550	CN/Hi	10	3	0	3	0	14.0	0.0	14.0	0.0						1702.4424580999912	1709.3257600999932	1709.3257600999932	10.0	['1', '0', 'return']	[2.3774127999931807, 2.9529965999972774, 3.6818064999970375]	6.87	5.83	2.0	controle	high_pain	45.5			sub-pilot014	250	14	43	45.5	COM11	COM7	COM3	2023-11-03_12h34.28.818	001-EEG_SVR_Officel	2022.2.5	142.64561978702923		5.83199999999988	1_sub-pilot014_SVR_EEG_block3-4.protocol.csv	step63	7718	765.821	STIMULATE	45.5	45.4	45.4	45.4	45.5	63	1653.0720000000001
1657.226	0	828613	wait	20	3	0	3	0	15.0	0.0	15.0	0.0						1726.021179999996	1731.9737088999973	1731.9737088999973	5.0	['5', 'return']	[2.6331640999997035, 3.391797399992356]	5.94	6.25	3.0	controle	low_pain	43.0			sub-pilot014	250	14	43	45.5	COM11	COM7	COM3	2023-11-03_12h34.28.818	001-EEG_SVR_Officel	2022.2.5	142.64561978702923		10.876000000000204	1_sub-pilot014_SVR_EEG_block3-4.protocol.csv	step65	7945	788.82	STIMULATE	42.9	42.9	42.9	42.9	42.9	65	1676.0710000000001
1663.164	0	831582	CNhz	12	3	0	3	0	15.0	0.0	15.0	0.0						1726.021179999996	1731.9737088999973	1731.9737088999973	5.0	['5', 'return']	[2.6331640999997035, 3.391797399992356]	5.94	6.25	3.0	controle	low_pain	43.0			sub-pilot014	250	14	43	45.5	COM11	COM7	COM3	2023-11-03_12h34.28.818	001-EEG_SVR_Officel	2022.2.5	142.64561978702923		5.9379999999998745	1_sub-pilot014_SVR_EEG_block3-4.protocol.csv	step65	7945	788.82	STIMULATE	42.9	42.9	42.9	42.9	42.9	65	1676.0710000000001
1670.164	0	835082	CN/Lo	11	3	0	3	0	15.0	0.0	15.0	0.0						1726.021179999996	1731.9737088999973	1731.9737088999973	5.0	['5', 'return']	[2.6331640999997035, 3.391797399992356]	5.94	6.25	3.0	controle	low_pain	43.0			sub-pilot014	250	14	43	45.5	COM11	COM7	COM3	2023-11-03_12h34.28.818	001-EEG_SVR_Officel	2022.2.5	142.64561978702923		6.25	1_sub-pilot014_SVR_EEG_block3-4.protocol.csv	step65	7945	788.82	STIMULATE	42.9	42.9	42.9	42.9	42.9	65	1676.0710000000001
1711.828	0	855914	wait	20	4	0	4	0	0.0	0.0	0.0	0.0				p	0.8230612999905134	1780.6254409999965	1786.195541299996	1786.195541299996	3.0	['3', 'return']	[2.3387770999979693, 2.9788817999942694]	5.56	5.57	0.0	20hz	low_pain	43.0			sub-pilot014	250	14	43	45.5	COM11	COM7	COM3	2023-11-03_12h34.28.818	001-EEG_SVR_Officel	2022.2.5	142.64561978702923		42.41399999999999	2_sub-pilot014_SVR_EEG_block5-6.protocol.csv	step3	390	38.8	STIMULATE	43.0	42.8	42.9	42.9	43.0	3	1729.552
1717.386	0	858693	20hz	6	4	0	4	0	0.0	0.0	0.0	0.0				p	0.8230612999905134	1780.6254409999965	1786.195541299996	1786.195541299996	3.0	['3', 'return']	[2.3387770999979693, 2.9788817999942694]	5.56	5.57	0.0	20hz	low_pain	43.0			sub-pilot014	250	14	43	45.5	COM11	COM7	COM3	2023-11-03_12h34.28.818	001-EEG_SVR_Officel	2022.2.5	142.64561978702923		5.557999999999993	2_sub-pilot014_SVR_EEG_block5-6.protocol.csv	step3	390	38.8	STIMULATE	43.0	42.8	42.9	42.9	43.0	3	1729.552
1723.704	0	861852	20/Lo	5	4	0	4	0	0.0	0.0	0.0	0.0				p	0.8230612999905134	1780.6254409999965	1786.195541299996	1786.195541299996	3.0	['3', 'return']	[2.3387770999979693, 2.9788817999942694]	5.56	5.57	0.0	20hz	low_pain	43.0			sub-pilot014	250	14	43	45.5	COM11	COM7	COM3	2023-11-03_12h34.28.818	001-EEG_SVR_Officel	2022.2.5	142.64561978702923		5.567999999999984	2_sub-pilot014_SVR_EEG_block5-6.protocol.csv	step3	390	38.8	STIMULATE	43.0	42.8	42.9	42.9	43.0	3	1729.552
1733.394	0	866697	wait	20	4	0	4	0	1.0	0.0	1.0	0.0						1802.190517199997	1808.8024678999936	1808.8024678999936	1.0	['1', 'return']	[2.036794799991185, 2.8616324000031454]	6.6	5.93	1.0	controle	low_pain	43.0			sub-pilot014	250	14	43	45.5	COM11	COM7	COM3	2023-11-03_12h34.28.818	001-EEG_SVR_Officel	2022.2.5	142.64561978702923		10.440000000000055	2_sub-pilot014_SVR_EEG_block5-6.protocol.csv	step5	621	61.773	STIMULATE	43.0	42.8	42.9	42.9	42.9	5	1752.5249999999999
1739.994	0	869997	CNhz	12	4	0	4	0	1.0	0.0	1.0	0.0						1802.190517199997	1808.8024678999936	1808.8024678999936	1.0	['1', 'return']	[2.036794799991185, 2.8616324000031454]	6.6	5.93	1.0	controle	low_pain	43.0			sub-pilot014	250	14	43	45.5	COM11	COM7	COM3	2023-11-03_12h34.28.818	001-EEG_SVR_Officel	2022.2.5	142.64561978702923		6.599999999999909	2_sub-pilot014_SVR_EEG_block5-6.protocol.csv	step5	621	61.773	STIMULATE	43.0	42.8	42.9	42.9	42.9	5	1752.5249999999999
1746.672	0	873336	CN/Lo	11	4	0	4	0	1.0	0.0	1.0	0.0						1802.190517199997	1808.8024678999936	1808.8024678999936	1.0	['1', 'return']	[2.036794799991185, 2.8616324000031454]	6.6	5.93	1.0	controle	low_pain	43.0			sub-pilot014	250	14	43	45.5	COM11	COM7	COM3	2023-11-03_12h34.28.818	001-EEG_SVR_Officel	2022.2.5	142.64561978702923		5.928000000000111	2_sub-pilot014_SVR_EEG_block5-6.protocol.csv	step5	621	61.773	STIMULATE	43.0	42.8	42.9	42.9	42.9	5	1752.5249999999999
1755.876	0	877938	wait	20	4	0	4	0	2.0	0.0	2.0	0.0						1824.671788499996	1829.9439561999895	1829.9439561999895	3.5	['3', 'a', '5', 'return']	[2.1668243000021903, 2.5748373000096763, 2.7497581000061473, 3.518588200007798]	5.26	5.5	2.0	10hz	low_pain	43.0			sub-pilot014	250	14	43	45.5	COM11	COM7	COM3	2023-11-03_12h34.28.818	001-EEG_SVR_Officel	2022.2.5	142.64561978702923		9.95399999999995	2_sub-pilot014_SVR_EEG_block5-6.protocol.csv	step7	830	82.443	STIMULATE	42.9	42.9	42.9	42.9	42.9	7	1773.195
1761.134	0	880567	10hz	3	4	0	4	0	2.0	0.0	2.0	0.0						1824.671788499996	1829.9439561999895	1829.9439561999895	3.5	['3', 'a', '5', 'return']	[2.1668243000021903, 2.5748373000096763, 2.7497581000061473, 3.518588200007798]	5.26	5.5	2.0	10hz	low_pain	43.0			sub-pilot014	250	14	43	45.5	COM11	COM7	COM3	2023-11-03_12h34.28.818	001-EEG_SVR_Officel	2022.2.5	142.64561978702923		5.258000000000038	2_sub-pilot014_SVR_EEG_block5-6.protocol.csv	step7	830	82.443	STIMULATE	42.9	42.9	42.9	42.9	42.9	7	1773.195
1767.382	0	883691	10/Lo	2	4	0	4	0	2.0	0.0	2.0	0.0						1824.671788499996	1829.9439561999895	1829.9439561999895	3.5	['3', 'a', '5', 'return']	[2.1668243000021903, 2.5748373000096763, 2.7497581000061473, 3.518588200007798]	5.26	5.5	2.0	10hz	low_pain	43.0			sub-pilot014	250	14	43	45.5	COM11	COM7	COM3	2023-11-03_12h34.28.818	001-EEG_SVR_Officel	2022.2.5	142.64561978702923		5.498000000000047	2_sub-pilot014_SVR_EEG_block5-6.protocol.csv	step7	830	82.443	STIMULATE	42.9	42.9	42.9	42.9	42.9	7	1773.195
1777.676	0	888838	wait	20	4	0	4	0	3.0	0.0	3.0	0.0						1846.474082799992	1852.925817700001	1852.925817700001	8.5	['8', 'a', '5', 'return']	[2.137632999991183, 2.656575300003169, 2.799562699990929, 3.5438755999930436]	6.44	5.8	3.0	10hz	high_pain	45.5			sub-pilot014	250	14	43	45.5	COM11	COM7	COM3	2023-11-03_12h34.28.818	001-EEG_SVR_Officel	2022.2.5	142.64561978702923		11.043999999999869	2_sub-pilot014_SVR_EEG_block5-6.protocol.csv	step9	1065	105.761	STIMULATE	45.5	45.4	45.4	45.5	45.5	9	1796.513
1784.116	0	892058	10hz	3	4	0	4	0	3.0	0.0	3.0	0.0						1846.474082799992	1852.925817700001	1852.925817700001	8.5	['8', 'a', '5', 'return']	[2.137632999991183, 2.656575300003169, 2.799562699990929, 3.5438755999930436]	6.44	5.8	3.0	10hz	high_pain	45.5			sub-pilot014	250	14	43	45.5	COM11	COM7	COM3	2023-11-03_12h34.28.818	001-EEG_SVR_Officel	2022.2.5	142.64561978702923		6.440000000000055	2_sub-pilot014_SVR_EEG_block5-6.protocol.csv	step9	1065	105.761	STIMULATE	45.5	45.4	45.4	45.5	45.5	9	1796.513
1790.672	0	895336	10/Hi	1	4	0	4	0	3.0	0.0	3.0	0.0						1846.474082799992	1852.925817700001	1852.925817700001	8.5	['8', 'a', '5', 'return']	[2.137632999991183, 2.656575300003169, 2.799562699990929, 3.5438755999930436]	6.44	5.8	3.0	10hz	high_pain	45.5			sub-pilot014	250	14	43	45.5	COM11	COM7	COM3	2023-11-03_12h34.28.818	001-EEG_SVR_Officel	2022.2.5	142.64561978702923		5.80600000000004	2_sub-pilot014_SVR_EEG_block5-6.protocol.csv	step9	1065	105.761	STIMULATE	45.5	45.4	45.4	45.5	45.5	9	1796.513
1800.694	0	900347	wait	20	4	0	4	0	4.0	0.0	4.0	0.0						1869.4909647999884	1877.040216299996	1877.040216299996	10.0	['1', '0', 'return']	[2.077925599995069, 2.5419917999970494, 3.0853356000006897]	7.54	6.4	0.0	controle	high_pain	45.5			sub-pilot014	250	14	43	45.5	COM11	COM7	COM3	2023-11-03_12h34.28.818	001-EEG_SVR_Officel	2022.2.5	142.64561978702923		10.771999999999935	2_sub-pilot014_SVR_EEG_block5-6.protocol.csv	step11	1315	130.509	STIMULATE	45.5	45.4	45.4	45.4	45.5	11	1821.261
1808.23	0	904115	CNhz	12	4	0	4	0	4.0	0.0	4.0	0.0						1869.4909647999884	1877.040216299996	1877.040216299996	10.0	['1', '0', 'return']	[2.077925599995069, 2.5419917999970494, 3.0853356000006897]	7.54	6.4	0.0	controle	high_pain	45.5			sub-pilot014	250	14	43	45.5	COM11	COM7	COM3	2023-11-03_12h34.28.818	001-EEG_SVR_Officel	2022.2.5	142.64561978702923		7.536000000000058	2_sub-pilot014_SVR_EEG_block5-6.protocol.csv	step11	1315	130.509	STIMULATE	45.5	45.4	45.4	45.4	45.5	11	1821.261
1815.382	0	907691	CN/Hi	10	4	0	4	0	4.0	0.0	4.0	0.0						1869.4909647999884	1877.040216299996	1877.040216299996	10.0	['1', '0', 'return']	[2.077925599995069, 2.5419917999970494, 3.0853356000006897]	7.54	6.4	0.0	controle	high_pain	45.5			sub-pilot014	250	14	43	45.5	COM11	COM7	COM3	2023-11-03_12h34.28.818	001-EEG_SVR_Officel	2022.2.5	142.64561978702923		6.402000000000044	2_sub-pilot014_SVR_EEG_block5-6.protocol.csv	step11	1315	130.509	STIMULATE	45.5	45.4	45.4	45.4	45.5	11	1821.261
1824.348	0	912174	wait	20	4	0	4	0	5.0	0.0	5.0	0.0						1893.1466675999984	1900.2648553999895	1900.2648553999895	2.0	['2', 'return']	[2.1739181999873836, 3.005102099996293]	7.11	6.28	1.0	20hz	low_pain	43.0			sub-pilot014	250	14	43	45.5	COM11	COM7	COM3	2023-11-03_12h34.28.818	001-EEG_SVR_Officel	2022.2.5	142.64561978702923		9.715999999999894	2_sub-pilot014_SVR_EEG_block5-6.protocol.csv	step13	1547	153.524	STIMULATE	42.9	42.9	42.9	42.9	43.0	13	1844.2759999999998
1831.454	0	915727	20hz	6	4	0	4	0	5.0	0.0	5.0	0.0						1893.1466675999984	1900.2648553999895	1900.2648553999895	2.0	['2', 'return']	[2.1739181999873836, 3.005102099996293]	7.11	6.28	1.0	20hz	low_pain	43.0			sub-pilot014	250	14	43	45.5	COM11	COM7	COM3	2023-11-03_12h34.28.818	001-EEG_SVR_Officel	2022.2.5	142.64561978702923		7.1059999999999945	2_sub-pilot014_SVR_EEG_block5-6.protocol.csv	step13	1547	153.524	STIMULATE	42.9	42.9	42.9	42.9	43.0	13	1844.2759999999998
