onset	duration	sample	trial_type	value	block.thisRepN	block.thisTrialN	block.thisN	block.thisIndex	reps.thisRepN	reps.thisTrialN	reps.thisN	reps.thisIndex	afrec_start	rec_start	rec_start_egi	key_resp.keys	key_resp.rt	wait_time_text.started	wait_time_text.stopped	therm_loca_text.started	subResponse	keyResp.keys	keyResp.rt	ITI_wait	wait_trigger	loca_thermode	Hz_condition	temp_condition	temp_valeur	text.started	text.stopped	participant	brightness	num_part	low	high	com_svr	com_thermode	com_eeg	date	expName	psychopyVersion	frameRate	Unnamed: 39	distance_from_previous	file	step	index	time	type	temp1	temp2	temp3	temp4	temp5	step_num	time_sync
64.926	0	32463	wait	20	0	0	0	0	0.0	0.0	0.0	0.0	76.86209749999398	76.46625969999877	1717522699.3391497	p	64.57710320000479	141.4669986999943	146.64816849998897	146.64816849998897	8.0	['8', 'return']	[3.266100799999549, 7.235735499998555]	5.17	5.23	0.0	40hz	low_pain	41.0			sub-038	250	38	41	42.8	COM11	COM15	COM3	2024-06-04_13h37.21.985	001-EEG_SVR_Officel	2022.2.5	143.60986371505106		64.926	0_sub-pilot038_SVR_EEG_block1-2.protocol.csv	step3	1323	132.133	STIMULATE	41.0	40.8	40.8	40.8	41.0	3	81.87500000000001
70.016	0	35008	40hz	9	0	0	0	0	0.0	0.0	0.0	0.0	76.86209749999398	76.46625969999877	1717522699.3391497	p	64.57710320000479	141.4669986999943	146.64816849998897	146.64816849998897	8.0	['8', 'return']	[3.266100799999549, 7.235735499998555]	5.17	5.23	0.0	40hz	low_pain	41.0			sub-038	250	38	41	42.8	COM11	COM15	COM3	2024-06-04_13h37.21.985	001-EEG_SVR_Officel	2022.2.5	143.60986371505106		5.090000000000003	0_sub-pilot038_SVR_EEG_block1-2.protocol.csv	step3	1323	132.133	STIMULATE	41.0	40.8	40.8	40.8	41.0	3	81.87500000000001
75.992	0	37996	40/Lo	8	0	0	0	0	0.0	0.0	0.0	0.0	76.86209749999398	76.46625969999877	1717522699.3391497	p	64.57710320000479	141.4669986999943	146.64816849998897	146.64816849998897	8.0	['8', 'return']	[3.266100799999549, 7.235735499998555]	5.17	5.23	0.0	40hz	low_pain	41.0			sub-038	250	38	41	42.8	COM11	COM15	COM3	2024-06-04_13h37.21.985	001-EEG_SVR_Officel	2022.2.5	143.60986371505106		5.225999999999999	0_sub-pilot038_SVR_EEG_block1-2.protocol.csv	step3	1323	132.133	STIMULATE	41.0	40.8	40.8	40.8	41.0	3	81.87500000000001
90.28	0	45140	wait	20	0	0	0	0	1.0	0.0	1.0	0.0						166.90098169998964	172.79048409999814	172.79048409999814	8.0	['8', 'return']	[3.156554799992591, 3.7636018999910448]	5.88	5.26	1.0	40hz	low_pain	41.0			sub-038	250	38	41	42.8	COM11	COM15	COM3	2024-06-04_13h37.21.985	001-EEG_SVR_Officel	2022.2.5	143.60986371505106		15.037999999999997	0_sub-pilot038_SVR_EEG_block1-2.protocol.csv	step5	1586	158.252	STIMULATE	40.8	40.8	40.8	40.9	41.0	5	107.99400000000001
96.158	0	48079	40hz	9	0	0	0	0	1.0	0.0	1.0	0.0						166.90098169998964	172.79048409999814	172.79048409999814	8.0	['8', 'return']	[3.156554799992591, 3.7636018999910448]	5.88	5.26	1.0	40hz	low_pain	41.0			sub-038	250	38	41	42.8	COM11	COM15	COM3	2024-06-04_13h37.21.985	001-EEG_SVR_Officel	2022.2.5	143.60986371505106		5.878	0_sub-pilot038_SVR_EEG_block1-2.protocol.csv	step5	1586	158.252	STIMULATE	40.8	40.8	40.8	40.9	41.0	5	107.99400000000001
102.17	0	51085	40/Lo	8	0	0	0	0	1.0	0.0	1.0	0.0						166.90098169998964	172.79048409999814	172.79048409999814	8.0	['8', 'return']	[3.156554799992591, 3.7636018999910448]	5.88	5.26	1.0	40hz	low_pain	41.0			sub-038	250	38	41	42.8	COM11	COM15	COM3	2024-06-04_13h37.21.985	001-EEG_SVR_Officel	2022.2.5	143.60986371505106		5.2620000000000005	0_sub-pilot038_SVR_EEG_block1-2.protocol.csv	step5	1586	158.252	STIMULATE	40.8	40.8	40.8	40.9	41.0	5	107.99400000000001
112.942	0	56471	wait	20	0	0	0	0	2.0	0.0	2.0	0.0						189.56301559999704	196.3206613999937	196.3206613999937	8.0	['8', 'return']	[3.0246509999997215, 8.936878699998488]	6.75	6.39	2.0	10hz	high_pain	42.8			sub-038	250	38	41	42.8	COM11	COM15	COM3	2024-06-04_13h37.21.985	001-EEG_SVR_Officel	2022.2.5	143.60986371505106		11.521999999999991	0_sub-pilot038_SVR_EEG_block1-2.protocol.csv	step7	1835	182.96	STIMULATE	42.7	42.7	42.7	42.7	42.9	7	132.702
119.688	0	59844	10hz	3	0	0	0	0	2.0	0.0	2.0	0.0						189.56301559999704	196.3206613999937	196.3206613999937	8.0	['8', 'return']	[3.0246509999997215, 8.936878699998488]	6.75	6.39	2.0	10hz	high_pain	42.8			sub-038	250	38	41	42.8	COM11	COM15	COM3	2024-06-04_13h37.21.985	001-EEG_SVR_Officel	2022.2.5	143.60986371505106		6.746000000000009	0_sub-pilot038_SVR_EEG_block1-2.protocol.csv	step7	1835	182.96	STIMULATE	42.7	42.7	42.7	42.7	42.9	7	132.702
126.832	0	63416	10/Hi	1	0	0	0	0	2.0	0.0	2.0	0.0						189.56301559999704	196.3206613999937	196.3206613999937	8.0	['8', 'return']	[3.0246509999997215, 8.936878699998488]	6.75	6.39	2.0	10hz	high_pain	42.8			sub-038	250	38	41	42.8	COM11	COM15	COM3	2024-06-04_13h37.21.985	001-EEG_SVR_Officel	2022.2.5	143.60986371505106		6.393999999999991	0_sub-pilot038_SVR_EEG_block1-2.protocol.csv	step7	1835	182.96	STIMULATE	42.7	42.7	42.7	42.7	42.9	7	132.702
141.652	0	70826	wait	20	0	0	0	0	3.0	0.0	3.0	0.0						218.27467459999025	223.49754450000185	223.49754450000185	6.0	['6', 'return']	[2.7761295000091195, 3.4173447000066517]	5.21	5.49	3.0	controle	low_pain	41.0			sub-038	250	38	41	42.8	COM11	COM15	COM3	2024-06-04_13h37.21.985	001-EEG_SVR_Officel	2022.2.5	143.60986371505106		15.569999999999993	0_sub-pilot038_SVR_EEG_block1-2.protocol.csv	step9	2099	209.113	STIMULATE	40.9	40.8	40.8	40.8	40.8	9	158.85500000000002
146.864	0	73432	CNhz	12	0	0	0	0	3.0	0.0	3.0	0.0						218.27467459999025	223.49754450000185	223.49754450000185	6.0	['6', 'return']	[2.7761295000091195, 3.4173447000066517]	5.21	5.49	3.0	controle	low_pain	41.0			sub-038	250	38	41	42.8	COM11	COM15	COM3	2024-06-04_13h37.21.985	001-EEG_SVR_Officel	2022.2.5	143.60986371505106		5.2120000000000175	0_sub-pilot038_SVR_EEG_block1-2.protocol.csv	step9	2099	209.113	STIMULATE	40.9	40.8	40.8	40.8	40.8	9	158.85500000000002
153.106	0	76553	CN/Lo	11	0	0	0	0	3.0	0.0	3.0	0.0						218.27467459999025	223.49754450000185	223.49754450000185	6.0	['6', 'return']	[2.7761295000091195, 3.4173447000066517]	5.21	5.49	3.0	controle	low_pain	41.0			sub-038	250	38	41	42.8	COM11	COM15	COM3	2024-06-04_13h37.21.985	001-EEG_SVR_Officel	2022.2.5	143.60986371505106		5.49199999999999	0_sub-pilot038_SVR_EEG_block1-2.protocol.csv	step9	2099	209.113	STIMULATE	40.9	40.8	40.8	40.8	40.8	9	158.85500000000002
163.308	0	81654	wait	20	0	0	0	0	4.0	0.0	4.0	0.0						239.93032349999703	246.3197106000007	246.3197106000007	7.0	['7', 'return']	[3.019596600002842, 3.5540279999986524]	6.38	5.02	0.0	20hz	high_pain	42.8			sub-038	250	38	41	42.8	COM11	COM15	COM3	2024-06-04_13h37.21.985	001-EEG_SVR_Officel	2022.2.5	143.60986371505106		10.951999999999998	0_sub-pilot038_SVR_EEG_block1-2.protocol.csv	step11	2325	231.53	STIMULATE	42.7	42.6	42.7	42.7	42.9	11	181.272
169.686	0	84843	20hz	6	0	0	0	0	4.0	0.0	4.0	0.0						239.93032349999703	246.3197106000007	246.3197106000007	7.0	['7', 'return']	[3.019596600002842, 3.5540279999986524]	6.38	5.02	0.0	20hz	high_pain	42.8			sub-038	250	38	41	42.8	COM11	COM15	COM3	2024-06-04_13h37.21.985	001-EEG_SVR_Officel	2022.2.5	143.60986371505106		6.378000000000014	0_sub-pilot038_SVR_EEG_block1-2.protocol.csv	step11	2325	231.53	STIMULATE	42.7	42.6	42.7	42.7	42.9	11	181.272
175.456	0	87728	20/Hi	4	0	0	0	0	4.0	0.0	4.0	0.0						239.93032349999703	246.3197106000007	246.3197106000007	7.0	['7', 'return']	[3.019596600002842, 3.5540279999986524]	6.38	5.02	0.0	20hz	high_pain	42.8			sub-038	250	38	41	42.8	COM11	COM15	COM3	2024-06-04_13h37.21.985	001-EEG_SVR_Officel	2022.2.5	143.60986371505106		5.019999999999982	0_sub-pilot038_SVR_EEG_block1-2.protocol.csv	step11	2325	231.53	STIMULATE	42.7	42.6	42.7	42.7	42.9	11	181.272
186.268	0	93134	wait	20	0	0	0	0	5.0	0.0	5.0	0.0						262.89144439999654	268.4890119999909	268.4890119999909	7.2	['7', 'a', '2', 'return']	[2.602458499997738, 3.009684799995739, 3.4252447000035318, 4.233181799994782]	5.59	5.18	1.0	controle	high_pain	42.8			sub-038	250	38	41	42.8	COM11	COM15	COM3	2024-06-04_13h37.21.985	001-EEG_SVR_Officel	2022.2.5	143.60986371505106		11.562000000000012	0_sub-pilot038_SVR_EEG_block1-2.protocol.csv	step13	2551	253.907	STIMULATE	42.8	42.7	42.7	42.7	42.9	13	203.649
191.856	0	95928	CNhz	12	0	0	0	0	5.0	0.0	5.0	0.0						262.89144439999654	268.4890119999909	268.4890119999909	7.2	['7', 'a', '2', 'return']	[2.602458499997738, 3.009684799995739, 3.4252447000035318, 4.233181799994782]	5.59	5.18	1.0	controle	high_pain	42.8			sub-038	250	38	41	42.8	COM11	COM15	COM3	2024-06-04_13h37.21.985	001-EEG_SVR_Officel	2022.2.5	143.60986371505106		5.587999999999994	0_sub-pilot038_SVR_EEG_block1-2.protocol.csv	step13	2551	253.907	STIMULATE	42.8	42.7	42.7	42.7	42.9	13	203.649
197.786	0	98893	CN/Hi	10	0	0	0	0	5.0	0.0	5.0	0.0						262.89144439999654	268.4890119999909	268.4890119999909	7.2	['7', 'a', '2', 'return']	[2.602458499997738, 3.009684799995739, 3.4252447000035318, 4.233181799994782]	5.59	5.18	1.0	controle	high_pain	42.8			sub-038	250	38	41	42.8	COM11	COM15	COM3	2024-06-04_13h37.21.985	001-EEG_SVR_Officel	2022.2.5	143.60986371505106		5.180000000000007	0_sub-pilot038_SVR_EEG_block1-2.protocol.csv	step13	2551	253.907	STIMULATE	42.8	42.7	42.7	42.7	42.9	13	203.649
209.12	0	104560	wait	20	0	0	0	0	6.0	0.0	6.0	0.0						285.74169929999334	291.77028129999235	291.77028129999235	8.0	['8', 'return']	[1.920676599998842, 2.4970774999965215]	6.02	5.45	2.0	40hz	high_pain	42.8			sub-038	250	38	41	42.8	COM11	COM15	COM3	2024-06-04_13h37.21.985	001-EEG_SVR_Officel	2022.2.5	143.60986371505106		12.084000000000003	0_sub-pilot038_SVR_EEG_block1-2.protocol.csv	step15	2788	277.426	STIMULATE	42.8	42.7	42.7	42.7	42.8	15	227.168
215.136	0	107568	40hz	9	0	0	0	0	6.0	0.0	6.0	0.0						285.74169929999334	291.77028129999235	291.77028129999235	8.0	['8', 'return']	[1.920676599998842, 2.4970774999965215]	6.02	5.45	2.0	40hz	high_pain	42.8			sub-038	250	38	41	42.8	COM11	COM15	COM3	2024-06-04_13h37.21.985	001-EEG_SVR_Officel	2022.2.5	143.60986371505106		6.015999999999991	0_sub-pilot038_SVR_EEG_block1-2.protocol.csv	step15	2788	277.426	STIMULATE	42.8	42.7	42.7	42.7	42.8	15	227.168
221.336	0	110668	40/Hi	7	0	0	0	0	6.0	0.0	6.0	0.0						285.74169929999334	291.77028129999235	291.77028129999235	8.0	['8', 'return']	[1.920676599998842, 2.4970774999965215]	6.02	5.45	2.0	40hz	high_pain	42.8			sub-038	250	38	41	42.8	COM11	COM15	COM3	2024-06-04_13h37.21.985	001-EEG_SVR_Officel	2022.2.5	143.60986371505106		5.450000000000017	0_sub-pilot038_SVR_EEG_block1-2.protocol.csv	step15	2788	277.426	STIMULATE	42.8	42.7	42.7	42.7	42.8	15	227.168
230.664	0	115332	wait	20	0	0	0	0	7.0	0.0	7.0	0.0						307.285483899992	314.51548979998915	314.51548979998915	4.0	['4', 'return']	[2.3898737999988953, 3.1348788000032073]	7.22	5.85	3.0	20hz	low_pain	41.0			sub-038	250	38	41	42.8	COM11	COM15	COM3	2024-06-04_13h37.21.985	001-EEG_SVR_Officel	2022.2.5	143.60986371505106		10.077999999999975	0_sub-pilot038_SVR_EEG_block1-2.protocol.csv	step17	3021	300.511	STIMULATE	40.8	40.8	40.8	40.8	40.9	17	250.25300000000004
237.88	0	118940	20hz	6	0	0	0	0	7.0	0.0	7.0	0.0						307.285483899992	314.51548979998915	314.51548979998915	4.0	['4', 'return']	[2.3898737999988953, 3.1348788000032073]	7.22	5.85	3.0	20hz	low_pain	41.0			sub-038	250	38	41	42.8	COM11	COM15	COM3	2024-06-04_13h37.21.985	001-EEG_SVR_Officel	2022.2.5	143.60986371505106		7.216000000000008	0_sub-pilot038_SVR_EEG_block1-2.protocol.csv	step17	3021	300.511	STIMULATE	40.8	40.8	40.8	40.8	40.9	17	250.25300000000004
244.484	0	122242	20/Lo	5	0	0	0	0	7.0	0.0	7.0	0.0						307.285483899992	314.51548979998915	314.51548979998915	4.0	['4', 'return']	[2.3898737999988953, 3.1348788000032073]	7.22	5.85	3.0	20hz	low_pain	41.0			sub-038	250	38	41	42.8	COM11	COM15	COM3	2024-06-04_13h37.21.985	001-EEG_SVR_Officel	2022.2.5	143.60986371505106		5.854000000000013	0_sub-pilot038_SVR_EEG_block1-2.protocol.csv	step17	3021	300.511	STIMULATE	40.8	40.8	40.8	40.8	40.9	17	250.25300000000004
254.048	0	127024	wait	20	0	0	0	0	8.0	0.0	8.0	0.0						330.6701988999994	337.2402661999949	337.2402661999949	7.0	['7', 'return']	[2.4819552000117255, 3.129979400007869]	6.56	5.83	0.0	10hz	high_pain	42.8			sub-038	250	38	41	42.8	COM11	COM15	COM3	2024-06-04_13h37.21.985	001-EEG_SVR_Officel	2022.2.5	143.60986371505106		10.313999999999993	0_sub-pilot038_SVR_EEG_block1-2.protocol.csv	step19	3250	323.226	STIMULATE	42.8	42.6	42.7	42.7	42.9	19	272.968
260.608	0	130304	10hz	3	0	0	0	0	8.0	0.0	8.0	0.0						330.6701988999994	337.2402661999949	337.2402661999949	7.0	['7', 'return']	[2.4819552000117255, 3.129979400007869]	6.56	5.83	0.0	10hz	high_pain	42.8			sub-038	250	38	41	42.8	COM11	COM15	COM3	2024-06-04_13h37.21.985	001-EEG_SVR_Officel	2022.2.5	143.60986371505106		6.560000000000002	0_sub-pilot038_SVR_EEG_block1-2.protocol.csv	step19	3250	323.226	STIMULATE	42.8	42.6	42.7	42.7	42.9	19	272.968
267.188	0	133594	10/Hi	1	0	0	0	0	8.0	0.0	8.0	0.0						330.6701988999994	337.2402661999949	337.2402661999949	7.0	['7', 'return']	[2.4819552000117255, 3.129979400007869]	6.56	5.83	0.0	10hz	high_pain	42.8			sub-038	250	38	41	42.8	COM11	COM15	COM3	2024-06-04_13h37.21.985	001-EEG_SVR_Officel	2022.2.5	143.60986371505106		5.829999999999984	0_sub-pilot038_SVR_EEG_block1-2.protocol.csv	step19	3250	323.226	STIMULATE	42.8	42.6	42.7	42.7	42.9	19	272.968
276.76	0	138380	wait	20	0	0	0	0	9.0	0.0	9.0	0.0						353.3810565999884	360.4793112999905	360.4793112999905	5.0	['5', 'return']	[2.2829824999935227, 2.906225099999574]	7.09	5.21	1.0	20hz	low_pain	41.0			sub-038	250	38	41	42.8	COM11	COM15	COM3	2024-06-04_13h37.21.985	001-EEG_SVR_Officel	2022.2.5	143.60986371505106		10.322000000000003	0_sub-pilot038_SVR_EEG_block1-2.protocol.csv	step21	3478	345.814	STIMULATE	40.9	40.8	40.8	40.8	40.8	21	295.55600000000004
283.846	0	141923	20hz	6	0	0	0	0	9.0	0.0	9.0	0.0						353.3810565999884	360.4793112999905	360.4793112999905	5.0	['5', 'return']	[2.2829824999935227, 2.906225099999574]	7.09	5.21	1.0	20hz	low_pain	41.0			sub-038	250	38	41	42.8	COM11	COM15	COM3	2024-06-04_13h37.21.985	001-EEG_SVR_Officel	2022.2.5	143.60986371505106		7.086000000000013	0_sub-pilot038_SVR_EEG_block1-2.protocol.csv	step21	3478	345.814	STIMULATE	40.9	40.8	40.8	40.8	40.8	21	295.55600000000004
289.81	0	144905	20/Lo	5	0	0	0	0	9.0	0.0	9.0	0.0						353.3810565999884	360.4793112999905	360.4793112999905	5.0	['5', 'return']	[2.2829824999935227, 2.906225099999574]	7.09	5.21	1.0	20hz	low_pain	41.0			sub-038	250	38	41	42.8	COM11	COM15	COM3	2024-06-04_13h37.21.985	001-EEG_SVR_Officel	2022.2.5	143.60986371505106		5.213999999999999	0_sub-pilot038_SVR_EEG_block1-2.protocol.csv	step21	3478	345.814	STIMULATE	40.9	40.8	40.8	40.8	40.8	21	295.55600000000004
299.782	0	149891	wait	20	0	0	0	0	10.0	0.0	10.0	0.0						376.4046985999885	384.0652957999992	384.0652957999992	5.0	['5', 'return']	[2.47284759998729, 3.0259242999891285]	7.65	5.99	2.0	20hz	low_pain	41.0			sub-038	250	38	41	42.8	COM11	COM15	COM3	2024-06-04_13h37.21.985	001-EEG_SVR_Officel	2022.2.5	143.60986371505106		10.72199999999998	0_sub-pilot038_SVR_EEG_block1-2.protocol.csv	step23	3724	370.253	STIMULATE	41.0	40.8	40.8	40.8	40.8	23	319.995
307.432	0	153716	20hz	6	0	0	0	0	10.0	0.0	10.0	0.0						376.4046985999885	384.0652957999992	384.0652957999992	5.0	['5', 'return']	[2.47284759998729, 3.0259242999891285]	7.65	5.99	2.0	20hz	low_pain	41.0			sub-038	250	38	41	42.8	COM11	COM15	COM3	2024-06-04_13h37.21.985	001-EEG_SVR_Officel	2022.2.5	143.60986371505106		7.650000000000034	0_sub-pilot038_SVR_EEG_block1-2.protocol.csv	step23	3724	370.253	STIMULATE	41.0	40.8	40.8	40.8	40.8	23	319.995
314.172	0	157086	20/Lo	5	0	0	0	0	10.0	0.0	10.0	0.0						376.4046985999885	384.0652957999992	384.0652957999992	5.0	['5', 'return']	[2.47284759998729, 3.0259242999891285]	7.65	5.99	2.0	20hz	low_pain	41.0			sub-038	250	38	41	42.8	COM11	COM15	COM3	2024-06-04_13h37.21.985	001-EEG_SVR_Officel	2022.2.5	143.60986371505106		5.990000000000009	0_sub-pilot038_SVR_EEG_block1-2.protocol.csv	step23	3724	370.253	STIMULATE	41.0	40.8	40.8	40.8	40.8	23	319.995
323.486	0	161743	wait	20	0	0	0	0	11.0	0.0	11.0	0.0						400.1080874999898	407.89455669999006	407.89455669999006	7.0	['7', 'return']	[2.451205300007132, 3.131883399997605]	7.78	6.28	3.0	controle	high_pain	42.8			sub-038	250	38	41	42.8	COM11	COM15	COM3	2024-06-04_13h37.21.985	001-EEG_SVR_Officel	2022.2.5	143.60986371505106		10.063999999999965	0_sub-pilot038_SVR_EEG_block1-2.protocol.csv	step25	3967	394.379	STIMULATE	42.8	42.7	42.7	42.7	42.7	25	344.12100000000004
331.26	0	165630	CNhz	12	0	0	0	0	11.0	0.0	11.0	0.0						400.1080874999898	407.89455669999006	407.89455669999006	7.0	['7', 'return']	[2.451205300007132, 3.131883399997605]	7.78	6.28	3.0	controle	high_pain	42.8			sub-038	250	38	41	42.8	COM11	COM15	COM3	2024-06-04_13h37.21.985	001-EEG_SVR_Officel	2022.2.5	143.60986371505106		7.774000000000001	0_sub-pilot038_SVR_EEG_block1-2.protocol.csv	step25	3967	394.379	STIMULATE	42.8	42.7	42.7	42.7	42.7	25	344.12100000000004
338.294	0	169147	CN/Hi	10	0	0	0	0	11.0	0.0	11.0	0.0						400.1080874999898	407.89455669999006	407.89455669999006	7.0	['7', 'return']	[2.451205300007132, 3.131883399997605]	7.78	6.28	3.0	controle	high_pain	42.8			sub-038	250	38	41	42.8	COM11	COM15	COM3	2024-06-04_13h37.21.985	001-EEG_SVR_Officel	2022.2.5	143.60986371505106		6.283999999999992	0_sub-pilot038_SVR_EEG_block1-2.protocol.csv	step25	3967	394.379	STIMULATE	42.8	42.7	42.7	42.7	42.7	25	344.12100000000004
347.418	0	173709	wait	20	0	0	0	0	12.0	0.0	12.0	0.0						424.0424462999945	430.2652691999974	430.2652691999974	5.0	['5', 'return']	[2.359782700004871, 2.959525800004485]	6.21	6.15	0.0	controle	low_pain	41.0			sub-038	250	38	41	42.8	COM11	COM15	COM3	2024-06-04_13h37.21.985	001-EEG_SVR_Officel	2022.2.5	143.60986371505106		9.874000000000024	0_sub-pilot038_SVR_EEG_block1-2.protocol.csv	step27	4192	416.618	STIMULATE	40.9	40.8	40.8	40.8	40.9	27	366.36
353.632	0	176816	CNhz	12	0	0	0	0	12.0	0.0	12.0	0.0						424.0424462999945	430.2652691999974	430.2652691999974	5.0	['5', 'return']	[2.359782700004871, 2.959525800004485]	6.21	6.15	0.0	controle	low_pain	41.0			sub-038	250	38	41	42.8	COM11	COM15	COM3	2024-06-04_13h37.21.985	001-EEG_SVR_Officel	2022.2.5	143.60986371505106		6.213999999999999	0_sub-pilot038_SVR_EEG_block1-2.protocol.csv	step27	4192	416.618	STIMULATE	40.9	40.8	40.8	40.8	40.9	27	366.36
360.532	0	180266	CN/Lo	11	0	0	0	0	12.0	0.0	12.0	0.0						424.0424462999945	430.2652691999974	430.2652691999974	5.0	['5', 'return']	[2.359782700004871, 2.959525800004485]	6.21	6.15	0.0	controle	low_pain	41.0			sub-038	250	38	41	42.8	COM11	COM15	COM3	2024-06-04_13h37.21.985	001-EEG_SVR_Officel	2022.2.5	143.60986371505106		6.149999999999977	0_sub-pilot038_SVR_EEG_block1-2.protocol.csv	step27	4192	416.618	STIMULATE	40.9	40.8	40.8	40.8	40.9	27	366.36
369.63	0	184815	wait	20	0	0	0	0	13.0	0.0	13.0	0.0						446.2534632999887	453.3261285999906	453.3261285999906	8.0	['8', 'return']	[2.7997756999975536, 3.3586974999925587]	7.06	5.96	1.0	10hz	high_pain	42.8			sub-038	250	38	41	42.8	COM11	COM15	COM3	2024-06-04_13h37.21.985	001-EEG_SVR_Officel	2022.2.5	143.60986371505106		9.848000000000013	0_sub-pilot038_SVR_EEG_block1-2.protocol.csv	step29	4422	439.418	STIMULATE	42.9	42.7	42.7	42.7	42.8	29	389.16
376.69	0	188345	10hz	3	0	0	0	0	13.0	0.0	13.0	0.0						446.2534632999887	453.3261285999906	453.3261285999906	8.0	['8', 'return']	[2.7997756999975536, 3.3586974999925587]	7.06	5.96	1.0	10hz	high_pain	42.8			sub-038	250	38	41	42.8	COM11	COM15	COM3	2024-06-04_13h37.21.985	001-EEG_SVR_Officel	2022.2.5	143.60986371505106		7.060000000000002	0_sub-pilot038_SVR_EEG_block1-2.protocol.csv	step29	4422	439.418	STIMULATE	42.9	42.7	42.7	42.7	42.8	29	389.16
383.404	0	191702	10/Hi	1	0	0	0	0	13.0	0.0	13.0	0.0						446.2534632999887	453.3261285999906	453.3261285999906	8.0	['8', 'return']	[2.7997756999975536, 3.3586974999925587]	7.06	5.96	1.0	10hz	high_pain	42.8			sub-038	250	38	41	42.8	COM11	COM15	COM3	2024-06-04_13h37.21.985	001-EEG_SVR_Officel	2022.2.5	143.60986371505106		5.963999999999999	0_sub-pilot038_SVR_EEG_block1-2.protocol.csv	step29	4422	439.418	STIMULATE	42.9	42.7	42.7	42.7	42.8	29	389.16
393.07	0	196535	wait	20	0	0	0	0	14.0	0.0	14.0	0.0						469.6931288999913	477.0695851999917	477.0695851999917	7.0	['7', 'return']	[2.54122530001041, 3.5347688000038033]	7.37	5.38	2.0	controle	low_pain	41.0			sub-038	250	38	41	42.8	COM11	COM15	COM3	2024-06-04_13h37.21.985	001-EEG_SVR_Officel	2022.2.5	143.60986371505106		10.415999999999997	0_sub-pilot038_SVR_EEG_block1-2.protocol.csv	step31	4657	462.725	STIMULATE	40.9	40.8	40.8	40.8	40.9	31	412.46700000000004
400.438	0	200219	CNhz	12	0	0	0	0	14.0	0.0	14.0	0.0						469.6931288999913	477.0695851999917	477.0695851999917	7.0	['7', 'return']	[2.54122530001041, 3.5347688000038033]	7.37	5.38	2.0	controle	low_pain	41.0			sub-038	250	38	41	42.8	COM11	COM15	COM3	2024-06-04_13h37.21.985	001-EEG_SVR_Officel	2022.2.5	143.60986371505106		7.367999999999995	0_sub-pilot038_SVR_EEG_block1-2.protocol.csv	step31	4657	462.725	STIMULATE	40.9	40.8	40.8	40.8	40.9	31	412.46700000000004
406.566	0	203283	CN/Lo	11	0	0	0	0	14.0	0.0	14.0	0.0						469.6931288999913	477.0695851999917	477.0695851999917	7.0	['7', 'return']	[2.54122530001041, 3.5347688000038033]	7.37	5.38	2.0	controle	low_pain	41.0			sub-038	250	38	41	42.8	COM11	COM15	COM3	2024-06-04_13h37.21.985	001-EEG_SVR_Officel	2022.2.5	143.60986371505106		5.377999999999986	0_sub-pilot038_SVR_EEG_block1-2.protocol.csv	step31	4657	462.725	STIMULATE	40.9	40.8	40.8	40.8	40.9	31	412.46700000000004
417.004	0	208502	wait	20	0	0	0	0	15.0	0.0	15.0	0.0						493.6269770999934	499.377697399992	499.377697399992	6.0	['6', 'return']	[3.6079351999942446, 4.303797900007339]	5.74	5.38	3.0	40hz	high_pain	42.8			sub-038	250	38	41	42.8	COM11	COM15	COM3	2024-06-04_13h37.21.985	001-EEG_SVR_Officel	2022.2.5	143.60986371505106		11.188000000000045	0_sub-pilot038_SVR_EEG_block1-2.protocol.csv	step33	4881	484.924	STIMULATE	42.7	42.7	42.7	42.7	42.7	33	434.666
422.742	0	211371	40hz	9	0	0	0	0	15.0	0.0	15.0	0.0						493.6269770999934	499.377697399992	499.377697399992	6.0	['6', 'return']	[3.6079351999942446, 4.303797900007339]	5.74	5.38	3.0	40hz	high_pain	42.8			sub-038	250	38	41	42.8	COM11	COM15	COM3	2024-06-04_13h37.21.985	001-EEG_SVR_Officel	2022.2.5	143.60986371505106		5.7379999999999995	0_sub-pilot038_SVR_EEG_block1-2.protocol.csv	step33	4881	484.924	STIMULATE	42.7	42.7	42.7	42.7	42.7	33	434.666
428.874	0	214437	40/Hi	7	0	0	0	0	15.0	0.0	15.0	0.0						493.6269770999934	499.377697399992	499.377697399992	6.0	['6', 'return']	[3.6079351999942446, 4.303797900007339]	5.74	5.38	3.0	40hz	high_pain	42.8			sub-038	250	38	41	42.8	COM11	COM15	COM3	2024-06-04_13h37.21.985	001-EEG_SVR_Officel	2022.2.5	143.60986371505106		5.382000000000005	0_sub-pilot038_SVR_EEG_block1-2.protocol.csv	step33	4881	484.924	STIMULATE	42.7	42.7	42.7	42.7	42.7	33	434.666
502.792	0	251396	wait	20	1	0	1	0	0.0	0.0	0.0	0.0				p	1.4612614999932705	579.4150754000002	586.5338963999966	586.5338963999966	4.0	['4', 'return']	[2.1721415000065463, 2.820436100009829]	7.11	5.96	0.0	20hz	low_pain	41.0			sub-038	250	38	41	42.8	COM11	COM15	COM3	2024-06-04_13h37.21.985	001-EEG_SVR_Officel	2022.2.5	143.60986371505106		74.66799999999995	0_sub-pilot038_SVR_EEG_block1-2.protocol.csv	step35	5760	572.695	STIMULATE	40.8	40.8	40.8	40.9	41.0	35	522.4540000000001
509.9	0	254950	20hz	6	1	0	1	0	0.0	0.0	0.0	0.0				p	1.4612614999932705	579.4150754000002	586.5338963999966	586.5338963999966	4.0	['4', 'return']	[2.1721415000065463, 2.820436100009829]	7.11	5.96	0.0	20hz	low_pain	41.0			sub-038	250	38	41	42.8	COM11	COM15	COM3	2024-06-04_13h37.21.985	001-EEG_SVR_Officel	2022.2.5	143.60986371505106		7.108000000000004	0_sub-pilot038_SVR_EEG_block1-2.protocol.csv	step35	5760	572.695	STIMULATE	40.8	40.8	40.8	40.9	41.0	35	522.4540000000001
516.612	0	258305	20/Lo	5	1	0	1	0	0.0	0.0	0.0	0.0				p	1.4612614999932705	579.4150754000002	586.5338963999966	586.5338963999966	4.0	['4', 'return']	[2.1721415000065463, 2.820436100009829]	7.11	5.96	0.0	20hz	low_pain	41.0			sub-038	250	38	41	42.8	COM11	COM15	COM3	2024-06-04_13h37.21.985	001-EEG_SVR_Officel	2022.2.5	143.60986371505106		5.961999999999989	0_sub-pilot038_SVR_EEG_block1-2.protocol.csv	step35	5760	572.695	STIMULATE	40.8	40.8	40.8	40.9	41.0	35	522.4540000000001
525.76	0	262880	wait	20	1	0	1	0	1.0	0.0	1.0	0.0						602.3831155999942	610.2033886999998	610.2033886999998	4.0	['4', 'return']	[2.6306747999915387, 3.5354144999873824]	7.81	5.53	1.0	controle	low_pain	41.0			sub-038	250	38	41	42.8	COM11	COM15	COM3	2024-06-04_13h37.21.985	001-EEG_SVR_Officel	2022.2.5	143.60986371505106		9.898000000000025	0_sub-pilot038_SVR_EEG_block1-2.protocol.csv	step37	5996	596.011	STIMULATE	40.8	40.8	40.8	40.8	41.0	37	545.77
533.568	0	266784	CNhz	12	1	0	1	0	1.0	0.0	1.0	0.0						602.3831155999942	610.2033886999998	610.2033886999998	4.0	['4', 'return']	[2.6306747999915387, 3.5354144999873824]	7.81	5.53	1.0	controle	low_pain	41.0			sub-038	250	38	41	42.8	COM11	COM15	COM3	2024-06-04_13h37.21.985	001-EEG_SVR_Officel	2022.2.5	143.60986371505106		7.807999999999993	0_sub-pilot038_SVR_EEG_block1-2.protocol.csv	step37	5996	596.011	STIMULATE	40.8	40.8	40.8	40.8	41.0	37	545.77
539.85	0	269925	CN/Lo	11	1	0	1	0	1.0	0.0	1.0	0.0						602.3831155999942	610.2033886999998	610.2033886999998	4.0	['4', 'return']	[2.6306747999915387, 3.5354144999873824]	7.81	5.53	1.0	controle	low_pain	41.0			sub-038	250	38	41	42.8	COM11	COM15	COM3	2024-06-04_13h37.21.985	001-EEG_SVR_Officel	2022.2.5	143.60986371505106		5.532000000000039	0_sub-pilot038_SVR_EEG_block1-2.protocol.csv	step37	5996	596.011	STIMULATE	40.8	40.8	40.8	40.8	41.0	37	545.77
550.122	0	275061	wait	20	1	0	1	0	2.0	0.0	2.0	0.0						626.7463694999897	633.9568302999978	633.9568302999978	6.0	['6', 'return']	[2.5651006999978563, 3.263209900003858]	7.2	5.99	2.0	20hz	high_pain	42.8			sub-038	250	38	41	42.8	COM11	COM15	COM3	2024-06-04_13h37.21.985	001-EEG_SVR_Officel	2022.2.5	143.60986371505106		11.021999999999935	0_sub-pilot038_SVR_EEG_block1-2.protocol.csv	step39	6240	620.271	STIMULATE	42.8	42.7	42.7	42.7	42.9	39	570.03
557.32	0	278660	20hz	6	1	0	1	0	2.0	0.0	2.0	0.0						626.7463694999897	633.9568302999978	633.9568302999978	6.0	['6', 'return']	[2.5651006999978563, 3.263209900003858]	7.2	5.99	2.0	20hz	high_pain	42.8			sub-038	250	38	41	42.8	COM11	COM15	COM3	2024-06-04_13h37.21.985	001-EEG_SVR_Officel	2022.2.5	143.60986371505106		7.198000000000093	0_sub-pilot038_SVR_EEG_block1-2.protocol.csv	step39	6240	620.271	STIMULATE	42.8	42.7	42.7	42.7	42.9	39	570.03
564.062	0	282031	20/Hi	4	1	0	1	0	2.0	0.0	2.0	0.0						626.7463694999897	633.9568302999978	633.9568302999978	6.0	['6', 'return']	[2.5651006999978563, 3.263209900003858]	7.2	5.99	2.0	20hz	high_pain	42.8			sub-038	250	38	41	42.8	COM11	COM15	COM3	2024-06-04_13h37.21.985	001-EEG_SVR_Officel	2022.2.5	143.60986371505106		5.991999999999962	0_sub-pilot038_SVR_EEG_block1-2.protocol.csv	step39	6240	620.271	STIMULATE	42.8	42.7	42.7	42.7	42.9	39	570.03
573.604	0	286802	wait	20	1	0	1	0	3.0	0.0	3.0	0.0						650.2294209999964	656.7093592999881	656.7093592999881	4.0	['4', 'return']	[3.4373775999993086, 4.085130499996012]	6.47	5.23	3.0	10hz	high_pain	42.8			sub-038	250	38	41	42.8	COM11	COM15	COM3	2024-06-04_13h37.21.985	001-EEG_SVR_Officel	2022.2.5	143.60986371505106		10.29200000000003	0_sub-pilot038_SVR_EEG_block1-2.protocol.csv	step41	6461	642.186	STIMULATE	42.7	42.6	42.7	42.7	42.7	41	591.945
580.072	0	290036	10hz	3	1	0	1	0	3.0	0.0	3.0	0.0						650.2294209999964	656.7093592999881	656.7093592999881	4.0	['4', 'return']	[3.4373775999993086, 4.085130499996012]	6.47	5.23	3.0	10hz	high_pain	42.8			sub-038	250	38	41	42.8	COM11	COM15	COM3	2024-06-04_13h37.21.985	001-EEG_SVR_Officel	2022.2.5	143.60986371505106		6.467999999999961	0_sub-pilot038_SVR_EEG_block1-2.protocol.csv	step41	6461	642.186	STIMULATE	42.7	42.6	42.7	42.7	42.7	41	591.945
586.058	0	293029	10/Hi	1	1	0	1	0	3.0	0.0	3.0	0.0						650.2294209999964	656.7093592999881	656.7093592999881	4.0	['4', 'return']	[3.4373775999993086, 4.085130499996012]	6.47	5.23	3.0	10hz	high_pain	42.8			sub-038	250	38	41	42.8	COM11	COM15	COM3	2024-06-04_13h37.21.985	001-EEG_SVR_Officel	2022.2.5	143.60986371505106		5.23599999999999	0_sub-pilot038_SVR_EEG_block1-2.protocol.csv	step41	6461	642.186	STIMULATE	42.7	42.6	42.7	42.7	42.7	41	591.945
597.192	0	298596	wait	20	1	0	1	0	4.0	0.0	4.0	0.0						673.8152847999881	679.0241486000014	679.0241486000014	6.0	['6', 'return']	[2.4097905999951763, 3.13026119999995]	5.2	5.62	0.0	controle	high_pain	42.8			sub-038	250	38	41	42.8	COM11	COM15	COM3	2024-06-04_13h37.21.985	001-EEG_SVR_Officel	2022.2.5	143.60986371505106		11.884000000000015	0_sub-pilot038_SVR_EEG_block1-2.protocol.csv	step43	6690	664.848	STIMULATE	42.7	42.6	42.7	42.7	42.9	43	614.607
602.388	0	301194	CNhz	12	1	0	1	0	4.0	0.0	4.0	0.0						673.8152847999881	679.0241486000014	679.0241486000014	6.0	['6', 'return']	[2.4097905999951763, 3.13026119999995]	5.2	5.62	0.0	controle	high_pain	42.8			sub-038	250	38	41	42.8	COM11	COM15	COM3	2024-06-04_13h37.21.985	001-EEG_SVR_Officel	2022.2.5	143.60986371505106		5.196000000000026	0_sub-pilot038_SVR_EEG_block1-2.protocol.csv	step43	6690	664.848	STIMULATE	42.7	42.6	42.7	42.7	42.9	43	614.607
608.762	0	304381	CN/Hi	10	1	0	1	0	4.0	0.0	4.0	0.0						673.8152847999881	679.0241486000014	679.0241486000014	6.0	['6', 'return']	[2.4097905999951763, 3.13026119999995]	5.2	5.62	0.0	controle	high_pain	42.8			sub-038	250	38	41	42.8	COM11	COM15	COM3	2024-06-04_13h37.21.985	001-EEG_SVR_Officel	2022.2.5	143.60986371505106		5.62399999999991	0_sub-pilot038_SVR_EEG_block1-2.protocol.csv	step43	6690	664.848	STIMULATE	42.7	42.6	42.7	42.7	42.9	43	614.607
618.54	0	309270	wait	20	1	0	1	0	5.0	0.0	5.0	0.0						695.1644895999925	701.9713659999979	701.9713659999979	5.0	['5', 'return']	[2.6389857000031043, 3.247289599996293]	6.8	6.2	1.0	10hz	low_pain	41.0			sub-038	250	38	41	42.8	COM11	COM15	COM3	2024-06-04_13h37.21.985	001-EEG_SVR_Officel	2022.2.5	143.60986371505106		10.52800000000002	0_sub-pilot038_SVR_EEG_block1-2.protocol.csv	step45	6929	688.5	STIMULATE	40.9	40.8	40.8	40.8	41.0	45	638.259
625.336	0	312668	10hz	3	1	0	1	0	5.0	0.0	5.0	0.0						695.1644895999925	701.9713659999979	701.9713659999979	5.0	['5', 'return']	[2.6389857000031043, 3.247289599996293]	6.8	6.2	1.0	10hz	low_pain	41.0			sub-038	250	38	41	42.8	COM11	COM15	COM3	2024-06-04_13h37.21.985	001-EEG_SVR_Officel	2022.2.5	143.60986371505106		6.796000000000049	0_sub-pilot038_SVR_EEG_block1-2.protocol.csv	step45	6929	688.5	STIMULATE	40.9	40.8	40.8	40.8	41.0	45	638.259
632.288	0	316144	10/Lo	2	1	0	1	0	5.0	0.0	5.0	0.0						695.1644895999925	701.9713659999979	701.9713659999979	5.0	['5', 'return']	[2.6389857000031043, 3.247289599996293]	6.8	6.2	1.0	10hz	low_pain	41.0			sub-038	250	38	41	42.8	COM11	COM15	COM3	2024-06-04_13h37.21.985	001-EEG_SVR_Officel	2022.2.5	143.60986371505106		6.201999999999998	0_sub-pilot038_SVR_EEG_block1-2.protocol.csv	step45	6929	688.5	STIMULATE	40.9	40.8	40.8	40.8	41.0	45	638.259
641.614	0	320807	wait	20	1	0	1	0	6.0	0.0	6.0	0.0						718.2371617999888	724.5642593999946	724.5642593999946	5.0	['5', 'return']	[2.125571199998376, 3.26147180001135]	6.32	5.07	2.0	10hz	low_pain	41.0			sub-038	250	38	41	42.8	COM11	COM15	COM3	2024-06-04_13h37.21.985	001-EEG_SVR_Officel	2022.2.5	143.60986371505106		10.076000000000022	0_sub-pilot038_SVR_EEG_block1-2.protocol.csv	step47	7144	709.887	STIMULATE	41.0	40.8	40.8	40.8	40.9	47	659.646
647.928	0	323964	10hz	3	1	0	1	0	6.0	0.0	6.0	0.0						718.2371617999888	724.5642593999946	724.5642593999946	5.0	['5', 'return']	[2.125571199998376, 3.26147180001135]	6.32	5.07	2.0	10hz	low_pain	41.0			sub-038	250	38	41	42.8	COM11	COM15	COM3	2024-06-04_13h37.21.985	001-EEG_SVR_Officel	2022.2.5	143.60986371505106		6.3139999999999645	0_sub-pilot038_SVR_EEG_block1-2.protocol.csv	step47	7144	709.887	STIMULATE	41.0	40.8	40.8	40.8	40.9	47	659.646
653.746	0	326873	10/Lo	2	1	0	1	0	6.0	0.0	6.0	0.0						718.2371617999888	724.5642593999946	724.5642593999946	5.0	['5', 'return']	[2.125571199998376, 3.26147180001135]	6.32	5.07	2.0	10hz	low_pain	41.0			sub-038	250	38	41	42.8	COM11	COM15	COM3	2024-06-04_13h37.21.985	001-EEG_SVR_Officel	2022.2.5	143.60986371505106		5.067999999999984	0_sub-pilot038_SVR_EEG_block1-2.protocol.csv	step47	7144	709.887	STIMULATE	41.0	40.8	40.8	40.8	40.9	47	659.646
664.212	0	332106	wait	20	1	0	1	0	7.0	0.0	7.0	0.0						740.8370098000014	747.5393446999951	747.5393446999951	5.0	['6', 'backspace', '5', 'return']	[3.4383617999992566, 4.646331299998565, 5.094589599990286, 5.870325700001558]	6.69	6.22	3.0	20hz	high_pain	42.8			sub-038	250	38	41	42.8	COM11	COM15	COM3	2024-06-04_13h37.21.985	001-EEG_SVR_Officel	2022.2.5	143.60986371505106		11.216000000000008	0_sub-pilot038_SVR_EEG_block1-2.protocol.csv	step49	7388	734.041	STIMULATE	42.7	42.7	42.7	42.7	42.7	49	683.8000000000001
670.902	0	335451	20hz	6	1	0	1	0	7.0	0.0	7.0	0.0						740.8370098000014	747.5393446999951	747.5393446999951	5.0	['6', 'backspace', '5', 'return']	[3.4383617999992566, 4.646331299998565, 5.094589599990286, 5.870325700001558]	6.69	6.22	3.0	20hz	high_pain	42.8			sub-038	250	38	41	42.8	COM11	COM15	COM3	2024-06-04_13h37.21.985	001-EEG_SVR_Officel	2022.2.5	143.60986371505106		6.690000000000055	0_sub-pilot038_SVR_EEG_block1-2.protocol.csv	step49	7388	734.041	STIMULATE	42.7	42.7	42.7	42.7	42.7	49	683.8000000000001
677.874	0	338937	20/Hi	4	1	0	1	0	7.0	0.0	7.0	0.0						740.8370098000014	747.5393446999951	747.5393446999951	5.0	['6', 'backspace', '5', 'return']	[3.4383617999992566, 4.646331299998565, 5.094589599990286, 5.870325700001558]	6.69	6.22	3.0	20hz	high_pain	42.8			sub-038	250	38	41	42.8	COM11	COM15	COM3	2024-06-04_13h37.21.985	001-EEG_SVR_Officel	2022.2.5	143.60986371505106		6.22199999999998	0_sub-pilot038_SVR_EEG_block1-2.protocol.csv	step49	7388	734.041	STIMULATE	42.7	42.7	42.7	42.7	42.7	49	683.8000000000001
689.806	0	344903	wait	20	1	0	1	0	8.0	0.0	8.0	0.0						766.4308149999997	772.9523532000021	772.9523532000021	6.0	['6', 'return']	[2.554242300000624, 3.1615781000000425]	6.51	5.22	0.0	10hz	low_pain	41.0			sub-038	250	38	41	42.8	COM11	COM15	COM3	2024-06-04_13h37.21.985	001-EEG_SVR_Officel	2022.2.5	143.60986371505106		12.682000000000016	0_sub-pilot038_SVR_EEG_block1-2.protocol.csv	step51	7634	758.488	STIMULATE	41.0	40.8	40.8	40.8	41.0	51	708.2470000000001
696.316	0	348158	10hz	3	1	0	1	0	8.0	0.0	8.0	0.0						766.4308149999997	772.9523532000021	772.9523532000021	6.0	['6', 'return']	[2.554242300000624, 3.1615781000000425]	6.51	5.22	0.0	10hz	low_pain	41.0			sub-038	250	38	41	42.8	COM11	COM15	COM3	2024-06-04_13h37.21.985	001-EEG_SVR_Officel	2022.2.5	143.60986371505106		6.509999999999991	0_sub-pilot038_SVR_EEG_block1-2.protocol.csv	step51	7634	758.488	STIMULATE	41.0	40.8	40.8	40.8	41.0	51	708.2470000000001
702.286	0	351143	10/Lo	2	1	0	1	0	8.0	0.0	8.0	0.0						766.4308149999997	772.9523532000021	772.9523532000021	6.0	['6', 'return']	[2.554242300000624, 3.1615781000000425]	6.51	5.22	0.0	10hz	low_pain	41.0			sub-038	250	38	41	42.8	COM11	COM15	COM3	2024-06-04_13h37.21.985	001-EEG_SVR_Officel	2022.2.5	143.60986371505106		5.219999999999914	0_sub-pilot038_SVR_EEG_block1-2.protocol.csv	step51	7634	758.488	STIMULATE	41.0	40.8	40.8	40.8	41.0	51	708.2470000000001
712.51	0	356255	wait	20	1	0	1	0	9.0	0.0	9.0	0.0						789.134498200001	795.7463627999969	795.7463627999969	6.0	['6', 'return']	[3.968429600005038, 4.5438399000122445]	6.6	6.15	1.0	20hz	high_pain	42.8			sub-038	250	38	41	42.8	COM11	COM15	COM3	2024-06-04_13h37.21.985	001-EEG_SVR_Officel	2022.2.5	143.60986371505106		10.974000000000046	0_sub-pilot038_SVR_EEG_block1-2.protocol.csv	step53	7872	782.105	STIMULATE	42.8	42.7	42.7	42.7	42.8	53	731.864
719.11	0	359555	20hz	6	1	0	1	0	9.0	0.0	9.0	0.0						789.134498200001	795.7463627999969	795.7463627999969	6.0	['6', 'return']	[3.968429600005038, 4.5438399000122445]	6.6	6.15	1.0	20hz	high_pain	42.8			sub-038	250	38	41	42.8	COM11	COM15	COM3	2024-06-04_13h37.21.985	001-EEG_SVR_Officel	2022.2.5	143.60986371505106		6.600000000000023	0_sub-pilot038_SVR_EEG_block1-2.protocol.csv	step53	7872	782.105	STIMULATE	42.8	42.7	42.7	42.7	42.8	53	731.864
726.012	0	363006	20/Hi	4	1	0	1	0	9.0	0.0	9.0	0.0						789.134498200001	795.7463627999969	795.7463627999969	6.0	['6', 'return']	[3.968429600005038, 4.5438399000122445]	6.6	6.15	1.0	20hz	high_pain	42.8			sub-038	250	38	41	42.8	COM11	COM15	COM3	2024-06-04_13h37.21.985	001-EEG_SVR_Officel	2022.2.5	143.60986371505106		6.15199999999993	0_sub-pilot038_SVR_EEG_block1-2.protocol.csv	step53	7872	782.105	STIMULATE	42.8	42.7	42.7	42.7	42.8	53	731.864
736.678	0	368339	wait	20	1	0	1	0	10.0	0.0	10.0	0.0						813.3032474999927	820.8258271999948	820.8258271999948	4.0	['4', 'return']	[2.9596808000060264, 3.8973687999969115]	7.51	5.04	2.0	controle	high_pain	42.8			sub-038	250	38	41	42.8	COM11	COM15	COM3	2024-06-04_13h37.21.985	001-EEG_SVR_Officel	2022.2.5	143.60986371505106		11.416000000000054	0_sub-pilot038_SVR_EEG_block1-2.protocol.csv	step55	8112	806.135	STIMULATE	42.8	42.7	42.7	42.7	42.8	55	755.894
744.188	0	372094	CNhz	12	1	0	1	0	10.0	0.0	10.0	0.0						813.3032474999927	820.8258271999948	820.8258271999948	4.0	['4', 'return']	[2.9596808000060264, 3.8973687999969115]	7.51	5.04	2.0	controle	high_pain	42.8			sub-038	250	38	41	42.8	COM11	COM15	COM3	2024-06-04_13h37.21.985	001-EEG_SVR_Officel	2022.2.5	143.60986371505106		7.509999999999991	0_sub-pilot038_SVR_EEG_block1-2.protocol.csv	step55	8112	806.135	STIMULATE	42.8	42.7	42.7	42.7	42.8	55	755.894
749.98	0	374990	CN/Hi	10	1	0	1	0	10.0	0.0	10.0	0.0						813.3032474999927	820.8258271999948	820.8258271999948	4.0	['4', 'return']	[2.9596808000060264, 3.8973687999969115]	7.51	5.04	2.0	controle	high_pain	42.8			sub-038	250	38	41	42.8	COM11	COM15	COM3	2024-06-04_13h37.21.985	001-EEG_SVR_Officel	2022.2.5	143.60986371505106		5.04200000000003	0_sub-pilot038_SVR_EEG_block1-2.protocol.csv	step55	8112	806.135	STIMULATE	42.8	42.7	42.7	42.7	42.8	55	755.894
761.112	0	380556	wait	20	1	0	1	0	11.0	0.0	11.0	0.0						837.7375820999878	843.8840673999948	843.8840673999948	2.0	['2', 'return']	[2.750010600007954, 3.501664300012635]	6.14	5.08	3.0	10hz	low_pain	41.0			sub-038	250	38	41	42.8	COM11	COM15	COM3	2024-06-04_13h37.21.985	001-EEG_SVR_Officel	2022.2.5	143.60986371505106		11.881999999999948	0_sub-pilot038_SVR_EEG_block1-2.protocol.csv	step57	8337	829.195	STIMULATE	40.9	40.8	40.8	40.8	40.8	57	778.9540000000001
767.248	0	383624	10hz	3	1	0	1	0	11.0	0.0	11.0	0.0						837.7375820999878	843.8840673999948	843.8840673999948	2.0	['2', 'return']	[2.750010600007954, 3.501664300012635]	6.14	5.08	3.0	10hz	low_pain	41.0			sub-038	250	38	41	42.8	COM11	COM15	COM3	2024-06-04_13h37.21.985	001-EEG_SVR_Officel	2022.2.5	143.60986371505106		6.136000000000081	0_sub-pilot038_SVR_EEG_block1-2.protocol.csv	step57	8337	829.195	STIMULATE	40.9	40.8	40.8	40.8	40.8	57	778.9540000000001
773.08	0	386540	10/Lo	2	1	0	1	0	11.0	0.0	11.0	0.0						837.7375820999878	843.8840673999948	843.8840673999948	2.0	['2', 'return']	[2.750010600007954, 3.501664300012635]	6.14	5.08	3.0	10hz	low_pain	41.0			sub-038	250	38	41	42.8	COM11	COM15	COM3	2024-06-04_13h37.21.985	001-EEG_SVR_Officel	2022.2.5	143.60986371505106		5.081999999999994	0_sub-pilot038_SVR_EEG_block1-2.protocol.csv	step57	8337	829.195	STIMULATE	40.9	40.8	40.8	40.8	40.8	57	778.9540000000001
783.782	0	391891	wait	20	1	0	1	0	12.0	0.0	12.0	0.0						860.4068729999999	867.8244307999994	867.8244307999994	5.0	['5', 'return']	[2.929174000004423, 3.5932583999965573]	7.41	5.44	0.0	40hz	high_pain	42.8			sub-038	250	38	41	42.8	COM11	COM15	COM3	2024-06-04_13h37.21.985	001-EEG_SVR_Officel	2022.2.5	143.60986371505106		11.451999999999998	0_sub-pilot038_SVR_EEG_block1-2.protocol.csv	step59	8572	853.583	STIMULATE	42.7	42.6	42.7	42.7	42.8	59	803.342
791.186	0	395593	40hz	9	1	0	1	0	12.0	0.0	12.0	0.0						860.4068729999999	867.8244307999994	867.8244307999994	5.0	['5', 'return']	[2.929174000004423, 3.5932583999965573]	7.41	5.44	0.0	40hz	high_pain	42.8			sub-038	250	38	41	42.8	COM11	COM15	COM3	2024-06-04_13h37.21.985	001-EEG_SVR_Officel	2022.2.5	143.60986371505106		7.403999999999996	0_sub-pilot038_SVR_EEG_block1-2.protocol.csv	step59	8572	853.583	STIMULATE	42.7	42.6	42.7	42.7	42.8	59	803.342
797.382	0	398691	40/Hi	7	1	0	1	0	12.0	0.0	12.0	0.0						860.4068729999999	867.8244307999994	867.8244307999994	5.0	['5', 'return']	[2.929174000004423, 3.5932583999965573]	7.41	5.44	0.0	40hz	high_pain	42.8			sub-038	250	38	41	42.8	COM11	COM15	COM3	2024-06-04_13h37.21.985	001-EEG_SVR_Officel	2022.2.5	143.60986371505106		5.445999999999913	0_sub-pilot038_SVR_EEG_block1-2.protocol.csv	step59	8572	853.583	STIMULATE	42.7	42.6	42.7	42.7	42.8	59	803.342
807.812	0	403906	wait	20	1	0	1	0	13.0	0.0	13.0	0.0						884.4379354999983	891.4248147999897	891.4248147999897	6.0	['6', 'return']	[3.266641099995468, 3.859085000003688]	6.98	5.77	1.0	40hz	high_pain	42.8			sub-038	250	38	41	42.8	COM11	COM15	COM3	2024-06-04_13h37.21.985	001-EEG_SVR_Officel	2022.2.5	143.60986371505106		11.180000000000064	0_sub-pilot038_SVR_EEG_block1-2.protocol.csv	step61	8800	877.461	STIMULATE	42.7	42.7	42.7	42.7	42.8	61	827.22
814.788	0	407394	40hz	9	1	0	1	0	13.0	0.0	13.0	0.0						884.4379354999983	891.4248147999897	891.4248147999897	6.0	['6', 'return']	[3.266641099995468, 3.859085000003688]	6.98	5.77	1.0	40hz	high_pain	42.8			sub-038	250	38	41	42.8	COM11	COM15	COM3	2024-06-04_13h37.21.985	001-EEG_SVR_Officel	2022.2.5	143.60986371505106		6.975999999999999	0_sub-pilot038_SVR_EEG_block1-2.protocol.csv	step61	8800	877.461	STIMULATE	42.7	42.7	42.7	42.7	42.8	61	827.22
821.308	0	410654	40/Hi	7	1	0	1	0	13.0	0.0	13.0	0.0						884.4379354999983	891.4248147999897	891.4248147999897	6.0	['6', 'return']	[3.266641099995468, 3.859085000003688]	6.98	5.77	1.0	40hz	high_pain	42.8			sub-038	250	38	41	42.8	COM11	COM15	COM3	2024-06-04_13h37.21.985	001-EEG_SVR_Officel	2022.2.5	143.60986371505106		5.769999999999982	0_sub-pilot038_SVR_EEG_block1-2.protocol.csv	step61	8800	877.461	STIMULATE	42.7	42.7	42.7	42.7	42.8	61	827.22
831.678	0	415839	wait	20	1	0	1	0	14.0	0.0	14.0	0.0						908.3015822000016	913.8994638000004	913.8994638000004	3.0	['3', 'return']	[2.7029609000019263, 3.3832067000039387]	5.59	6.18	2.0	40hz	low_pain	41.0			sub-038	250	38	41	42.8	COM11	COM15	COM3	2024-06-04_13h37.21.985	001-EEG_SVR_Officel	2022.2.5	143.60986371505106		11.120000000000005	0_sub-pilot038_SVR_EEG_block1-2.protocol.csv	step63	9017	900.385	STIMULATE	40.9	40.8	40.8	40.8	40.9	63	850.144
837.262	0	418631	40hz	9	1	0	1	0	14.0	0.0	14.0	0.0						908.3015822000016	913.8994638000004	913.8994638000004	3.0	['3', 'return']	[2.7029609000019263, 3.3832067000039387]	5.59	6.18	2.0	40hz	low_pain	41.0			sub-038	250	38	41	42.8	COM11	COM15	COM3	2024-06-04_13h37.21.985	001-EEG_SVR_Officel	2022.2.5	143.60986371505106		5.583999999999946	0_sub-pilot038_SVR_EEG_block1-2.protocol.csv	step63	9017	900.385	STIMULATE	40.9	40.8	40.8	40.8	40.9	63	850.144
844.192	0	422096	40/Lo	8	1	0	1	0	14.0	0.0	14.0	0.0						908.3015822000016	913.8994638000004	913.8994638000004	3.0	['3', 'return']	[2.7029609000019263, 3.3832067000039387]	5.59	6.18	2.0	40hz	low_pain	41.0			sub-038	250	38	41	42.8	COM11	COM15	COM3	2024-06-04_13h37.21.985	001-EEG_SVR_Officel	2022.2.5	143.60986371505106		6.180000000000064	0_sub-pilot038_SVR_EEG_block1-2.protocol.csv	step63	9017	900.385	STIMULATE	40.9	40.8	40.8	40.8	40.9	63	850.144
853.67	0	426835	wait	20	1	0	1	0	15.0	0.0	15.0	0.0						930.2967444999958	937.353524899998	937.353524899998	4.0	['4', 'return']	[2.8885204999969574, 3.600407300007646]	7.05	5.64	3.0	40hz	low_pain	41.0			sub-038	250	38	41	42.8	COM11	COM15	COM3	2024-06-04_13h37.21.985	001-EEG_SVR_Officel	2022.2.5	143.60986371505106		10.227999999999952	0_sub-pilot038_SVR_EEG_block1-2.protocol.csv	step65	9232	923.313	STIMULATE	40.9	40.8	40.8	40.8	40.8	65	873.072
860.716	0	430358	40hz	9	1	0	1	0	15.0	0.0	15.0	0.0						930.2967444999958	937.353524899998	937.353524899998	4.0	['4', 'return']	[2.8885204999969574, 3.600407300007646]	7.05	5.64	3.0	40hz	low_pain	41.0			sub-038	250	38	41	42.8	COM11	COM15	COM3	2024-06-04_13h37.21.985	001-EEG_SVR_Officel	2022.2.5	143.60986371505106		7.046000000000049	0_sub-pilot038_SVR_EEG_block1-2.protocol.csv	step65	9232	923.313	STIMULATE	40.9	40.8	40.8	40.8	40.8	65	873.072
867.11	0	433555	40/Lo	8	1	0	1	0	15.0	0.0	15.0	0.0						930.2967444999958	937.353524899998	937.353524899998	4.0	['4', 'return']	[2.8885204999969574, 3.600407300007646]	7.05	5.64	3.0	40hz	low_pain	41.0			sub-038	250	38	41	42.8	COM11	COM15	COM3	2024-06-04_13h37.21.985	001-EEG_SVR_Officel	2022.2.5	143.60986371505106		5.6440000000000055	0_sub-pilot038_SVR_EEG_block1-2.protocol.csv	step65	9232	923.313	STIMULATE	40.9	40.8	40.8	40.8	40.8	65	873.072
958.976	0	479488	wait	20	2	0	2	0	0.0	0.0	0.0	0.0				p	0.7917463000048883	1035.6016734000004	1042.268811099988	1042.268811099988	7.0	['7', 'return']	[2.8690580999973463, 3.805832099998952]	6.66	5.35	0.0	20hz	high_pain	42.8			sub-038	250	38	41	42.8	COM11	COM15	COM3	2024-06-04_13h37.21.985	001-EEG_SVR_Officel	2022.2.5	143.60986371505106		92.61599999999999	1_sub-pilot038_SVR_EEG_block3-4.protocol.csv	step3	934	93.249	STIMULATE	42.7	42.7	42.7	42.7	42.9	3	977.611
965.63	0	482815	20hz	6	2	0	2	0	0.0	0.0	0.0	0.0				p	0.7917463000048883	1035.6016734000004	1042.268811099988	1042.268811099988	7.0	['7', 'return']	[2.8690580999973463, 3.805832099998952]	6.66	5.35	0.0	20hz	high_pain	42.8			sub-038	250	38	41	42.8	COM11	COM15	COM3	2024-06-04_13h37.21.985	001-EEG_SVR_Officel	2022.2.5	143.60986371505106		6.653999999999996	1_sub-pilot038_SVR_EEG_block3-4.protocol.csv	step3	934	93.249	STIMULATE	42.7	42.7	42.7	42.7	42.9	3	977.611
971.734	0	485867	20/Hi	4	2	0	2	0	0.0	0.0	0.0	0.0				p	0.7917463000048883	1035.6016734000004	1042.268811099988	1042.268811099988	7.0	['7', 'return']	[2.8690580999973463, 3.805832099998952]	6.66	5.35	0.0	20hz	high_pain	42.8			sub-038	250	38	41	42.8	COM11	COM15	COM3	2024-06-04_13h37.21.985	001-EEG_SVR_Officel	2022.2.5	143.60986371505106		5.354000000000042	1_sub-pilot038_SVR_EEG_block3-4.protocol.csv	step3	934	93.249	STIMULATE	42.7	42.7	42.7	42.7	42.9	3	977.611
982.456	0	491228	wait	20	2	0	2	0	1.0	0.0	1.0	0.0						1059.0830734999909	1065.1452999999892	1065.1452999999892	4.0	['4', 'return']	[2.7530762999958824, 3.320905800006585]	6.06	5.05	1.0	controle	low_pain	41.0			sub-038	250	38	41	42.8	COM11	COM15	COM3	2024-06-04_13h37.21.985	001-EEG_SVR_Officel	2022.2.5	143.60986371505106		11.47199999999998	1_sub-pilot038_SVR_EEG_block3-4.protocol.csv	step5	1162	115.866	STIMULATE	41.0	40.8	40.8	40.8	40.9	5	1000.2280000000001
988.514	0	494257	CNhz	12	2	0	2	0	1.0	0.0	1.0	0.0						1059.0830734999909	1065.1452999999892	1065.1452999999892	4.0	['4', 'return']	[2.7530762999958824, 3.320905800006585]	6.06	5.05	1.0	controle	low_pain	41.0			sub-038	250	38	41	42.8	COM11	COM15	COM3	2024-06-04_13h37.21.985	001-EEG_SVR_Officel	2022.2.5	143.60986371505106		6.057999999999993	1_sub-pilot038_SVR_EEG_block3-4.protocol.csv	step5	1162	115.866	STIMULATE	41.0	40.8	40.8	40.8	40.9	5	1000.2280000000001
994.312	0	497156	CN/Lo	11	2	0	2	0	1.0	0.0	1.0	0.0						1059.0830734999909	1065.1452999999892	1065.1452999999892	4.0	['4', 'return']	[2.7530762999958824, 3.320905800006585]	6.06	5.05	1.0	controle	low_pain	41.0			sub-038	250	38	41	42.8	COM11	COM15	COM3	2024-06-04_13h37.21.985	001-EEG_SVR_Officel	2022.2.5	143.60986371505106		5.048000000000002	1_sub-pilot038_SVR_EEG_block3-4.protocol.csv	step5	1162	115.866	STIMULATE	41.0	40.8	40.8	40.8	40.9	5	1000.2280000000001
1004.87	0	502435	wait	20	2	0	2	0	2.0	0.0	2.0	0.0						1081.49591469999	1086.9688516999886	1086.9688516999886	4.0	['4', 'return']	[3.6337734999979148, 4.129796399996849]	5.46	6.2	2.0	10hz	low_pain	41.0			sub-038	250	38	41	42.8	COM11	COM15	COM3	2024-06-04_13h37.21.985	001-EEG_SVR_Officel	2022.2.5	143.60986371505106		11.307999999999993	1_sub-pilot038_SVR_EEG_block3-4.protocol.csv	step7	1394	138.802	STIMULATE	40.9	40.8	40.8	40.8	41.0	7	1023.164
1010.332	0	505166	10hz	3	2	0	2	0	2.0	0.0	2.0	0.0						1081.49591469999	1086.9688516999886	1086.9688516999886	4.0	['4', 'return']	[3.6337734999979148, 4.129796399996849]	5.46	6.2	2.0	10hz	low_pain	41.0			sub-038	250	38	41	42.8	COM11	COM15	COM3	2024-06-04_13h37.21.985	001-EEG_SVR_Officel	2022.2.5	143.60986371505106		5.461999999999989	1_sub-pilot038_SVR_EEG_block3-4.protocol.csv	step7	1394	138.802	STIMULATE	40.9	40.8	40.8	40.8	41.0	7	1023.164
1017.288	0	508644	10/Lo	2	2	0	2	0	2.0	0.0	2.0	0.0						1081.49591469999	1086.9688516999886	1086.9688516999886	4.0	['4', 'return']	[3.6337734999979148, 4.129796399996849]	5.46	6.2	2.0	10hz	low_pain	41.0			sub-038	250	38	41	42.8	COM11	COM15	COM3	2024-06-04_13h37.21.985	001-EEG_SVR_Officel	2022.2.5	143.60986371505106		6.206000000000017	1_sub-pilot038_SVR_EEG_block3-4.protocol.csv	step7	1394	138.802	STIMULATE	40.9	40.8	40.8	40.8	41.0	7	1023.164
1027.498	0	513749	wait	20	2	0	2	0	3.0	0.0	3.0	0.0						1104.123581199994	1111.0207896999927	1111.0207896999927	2.0	['2', 'return']	[3.0128140000015264, 3.6296657000057166]	6.89	6.15	3.0	40hz	low_pain	41.0			sub-038	250	38	41	42.8	COM11	COM15	COM3	2024-06-04_13h37.21.985	001-EEG_SVR_Officel	2022.2.5	143.60986371505106		10.960000000000036	1_sub-pilot038_SVR_EEG_block3-4.protocol.csv	step9	1636	162.84	STIMULATE	41.0	40.8	40.8	40.8	40.8	9	1047.202
1034.382	0	517191	40hz	9	2	0	2	0	3.0	0.0	3.0	0.0						1104.123581199994	1111.0207896999927	1111.0207896999927	2.0	['2', 'return']	[3.0128140000015264, 3.6296657000057166]	6.89	6.15	3.0	40hz	low_pain	41.0			sub-038	250	38	41	42.8	COM11	COM15	COM3	2024-06-04_13h37.21.985	001-EEG_SVR_Officel	2022.2.5	143.60986371505106		6.8840000000000146	1_sub-pilot038_SVR_EEG_block3-4.protocol.csv	step9	1636	162.84	STIMULATE	41.0	40.8	40.8	40.8	40.8	9	1047.202
1041.284	0	520642	40/Lo	8	2	0	2	0	3.0	0.0	3.0	0.0						1104.123581199994	1111.0207896999927	1111.0207896999927	2.0	['2', 'return']	[3.0128140000015264, 3.6296657000057166]	6.89	6.15	3.0	40hz	low_pain	41.0			sub-038	250	38	41	42.8	COM11	COM15	COM3	2024-06-04_13h37.21.985	001-EEG_SVR_Officel	2022.2.5	143.60986371505106		6.152000000000044	1_sub-pilot038_SVR_EEG_block3-4.protocol.csv	step9	1636	162.84	STIMULATE	41.0	40.8	40.8	40.8	40.8	9	1047.202
1051.042	0	525521	wait	20	2	0	2	0	4.0	0.0	4.0	0.0						1127.668423499999	1133.5304990000004	1133.5304990000004	2.0	['2', 'return']	[4.352671200002078, 5.391622300012386]	5.85	5.58	0.0	10hz	high_pain	42.8			sub-038	250	38	41	42.8	COM11	COM15	COM3	2024-06-04_13h37.21.985	001-EEG_SVR_Officel	2022.2.5	143.60986371505106		10.50799999999981	1_sub-pilot038_SVR_EEG_block3-4.protocol.csv	step11	1857	184.713	STIMULATE	42.8	42.6	42.6	42.7	42.8	11	1069.075
1056.892	0	528446	10hz	3	2	0	2	0	4.0	0.0	4.0	0.0						1127.668423499999	1133.5304990000004	1133.5304990000004	2.0	['2', 'return']	[4.352671200002078, 5.391622300012386]	5.85	5.58	0.0	10hz	high_pain	42.8			sub-038	250	38	41	42.8	COM11	COM15	COM3	2024-06-04_13h37.21.985	001-EEG_SVR_Officel	2022.2.5	143.60986371505106		5.850000000000136	1_sub-pilot038_SVR_EEG_block3-4.protocol.csv	step11	1857	184.713	STIMULATE	42.8	42.6	42.6	42.7	42.8	11	1069.075
1063.224	0	531612	10/Hi	1	2	0	2	0	4.0	0.0	4.0	0.0						1127.668423499999	1133.5304990000004	1133.5304990000004	2.0	['2', 'return']	[4.352671200002078, 5.391622300012386]	5.85	5.58	0.0	10hz	high_pain	42.8			sub-038	250	38	41	42.8	COM11	COM15	COM3	2024-06-04_13h37.21.985	001-EEG_SVR_Officel	2022.2.5	143.60986371505106		5.58199999999988	1_sub-pilot038_SVR_EEG_block3-4.protocol.csv	step11	1857	184.713	STIMULATE	42.8	42.6	42.6	42.7	42.8	11	1069.075
1075.316	0	537658	wait	20	2	0	2	0	5.0	0.0	5.0	0.0						1151.9417646999937	1157.1506098999962	1157.1506098999962	5.0	['5', 'return']	[2.234855599992443, 2.9957075999991503]	5.2	6.33	1.0	40hz	high_pain	42.8			sub-038	250	38	41	42.8	COM11	COM15	COM3	2024-06-04_13h37.21.985	001-EEG_SVR_Officel	2022.2.5	143.60986371505106		12.842000000000098	1_sub-pilot038_SVR_EEG_block3-4.protocol.csv	step13	2103	209.155	STIMULATE	42.7	42.7	42.7	42.7	42.9	13	1093.517
1080.512	0	540256	40hz	9	2	0	2	0	5.0	0.0	5.0	0.0						1151.9417646999937	1157.1506098999962	1157.1506098999962	5.0	['5', 'return']	[2.234855599992443, 2.9957075999991503]	5.2	6.33	1.0	40hz	high_pain	42.8			sub-038	250	38	41	42.8	COM11	COM15	COM3	2024-06-04_13h37.21.985	001-EEG_SVR_Officel	2022.2.5	143.60986371505106		5.195999999999913	1_sub-pilot038_SVR_EEG_block3-4.protocol.csv	step13	2103	209.155	STIMULATE	42.7	42.7	42.7	42.7	42.9	13	1093.517
1087.594	0	543797	40/Hi	7	2	0	2	0	5.0	0.0	5.0	0.0						1151.9417646999937	1157.1506098999962	1157.1506098999962	5.0	['5', 'return']	[2.234855599992443, 2.9957075999991503]	5.2	6.33	1.0	40hz	high_pain	42.8			sub-038	250	38	41	42.8	COM11	COM15	COM3	2024-06-04_13h37.21.985	001-EEG_SVR_Officel	2022.2.5	143.60986371505106		6.332000000000107	1_sub-pilot038_SVR_EEG_block3-4.protocol.csv	step13	2103	209.155	STIMULATE	42.7	42.7	42.7	42.7	42.9	13	1093.517
1096.54	0	548270	wait	20	2	0	2	0	6.0	0.0	6.0	0.0						1173.166501300002	1179.586577099995	1179.586577099995	3.0	['3', 'return']	[2.2259592000045814, 2.9141281000047456]	6.41	5.58	2.0	controle	low_pain	41.0			sub-038	250	38	41	42.8	COM11	COM15	COM3	2024-06-04_13h37.21.985	001-EEG_SVR_Officel	2022.2.5	143.60986371505106		9.695999999999913	1_sub-pilot038_SVR_EEG_block3-4.protocol.csv	step15	2321	230.719	STIMULATE	40.9	40.8	40.8	40.8	41.0	15	1115.0810000000001
1102.946	0	551473	CNhz	12	2	0	2	0	6.0	0.0	6.0	0.0						1173.166501300002	1179.586577099995	1179.586577099995	3.0	['3', 'return']	[2.2259592000045814, 2.9141281000047456]	6.41	5.58	2.0	controle	low_pain	41.0			sub-038	250	38	41	42.8	COM11	COM15	COM3	2024-06-04_13h37.21.985	001-EEG_SVR_Officel	2022.2.5	143.60986371505106		6.405999999999949	1_sub-pilot038_SVR_EEG_block3-4.protocol.csv	step15	2321	230.719	STIMULATE	40.9	40.8	40.8	40.8	41.0	15	1115.0810000000001
1109.276	0	554638	CN/Lo	11	2	0	2	0	6.0	0.0	6.0	0.0						1173.166501300002	1179.586577099995	1179.586577099995	3.0	['3', 'return']	[2.2259592000045814, 2.9141281000047456]	6.41	5.58	2.0	controle	low_pain	41.0			sub-038	250	38	41	42.8	COM11	COM15	COM3	2024-06-04_13h37.21.985	001-EEG_SVR_Officel	2022.2.5	143.60986371505106		5.580000000000155	1_sub-pilot038_SVR_EEG_block3-4.protocol.csv	step15	2321	230.719	STIMULATE	40.9	40.8	40.8	40.8	41.0	15	1115.0810000000001
1118.882	0	559441	wait	20	2	0	2	0	7.0	0.0	7.0	0.0						1195.5090901999938	1200.7252365999884	1200.7252365999884	4.0	['4', 'return']	[3.3179959999979474, 3.9486036999878706]	5.21	5.17	3.0	40hz	high_pain	42.8			sub-038	250	38	41	42.8	COM11	COM15	COM3	2024-06-04_13h37.21.985	001-EEG_SVR_Officel	2022.2.5	143.60986371505106		10.355999999999995	1_sub-pilot038_SVR_EEG_block3-4.protocol.csv	step17	2531	251.519	STIMULATE	42.7	42.7	42.7	42.7	42.7	17	1135.881
1124.086	0	562043	40hz	9	2	0	2	0	7.0	0.0	7.0	0.0						1195.5090901999938	1200.7252365999884	1200.7252365999884	4.0	['4', 'return']	[3.3179959999979474, 3.9486036999878706]	5.21	5.17	3.0	40hz	high_pain	42.8			sub-038	250	38	41	42.8	COM11	COM15	COM3	2024-06-04_13h37.21.985	001-EEG_SVR_Officel	2022.2.5	143.60986371505106		5.203999999999951	1_sub-pilot038_SVR_EEG_block3-4.protocol.csv	step17	2531	251.519	STIMULATE	42.7	42.7	42.7	42.7	42.7	17	1135.881
1130.008	0	565004	40/Hi	7	2	0	2	0	7.0	0.0	7.0	0.0						1195.5090901999938	1200.7252365999884	1200.7252365999884	4.0	['4', 'return']	[3.3179959999979474, 3.9486036999878706]	5.21	5.17	3.0	40hz	high_pain	42.8			sub-038	250	38	41	42.8	COM11	COM15	COM3	2024-06-04_13h37.21.985	001-EEG_SVR_Officel	2022.2.5	143.60986371505106		5.1720000000000255	1_sub-pilot038_SVR_EEG_block3-4.protocol.csv	step17	2531	251.519	STIMULATE	42.7	42.7	42.7	42.7	42.7	17	1135.881
1141.072	0	570536	wait	20	2	0	2	0	8.0	0.0	8.0	0.0						1217.6996142999997	1225.4574256999913	1225.4574256999913	4.0	['4', 'return']	[2.888330899993889, 3.5760912999976426]	7.75	5.62	0.0	20hz	low_pain	41.0			sub-038	250	38	41	42.8	COM11	COM15	COM3	2024-06-04_13h37.21.985	001-EEG_SVR_Officel	2022.2.5	143.60986371505106		11.81399999999985	1_sub-pilot038_SVR_EEG_block3-4.protocol.csv	step19	2785	276.786	STIMULATE	40.9	40.8	40.8	40.8	41.0	19	1161.1480000000001
1148.818	0	574409	20hz	6	2	0	2	0	8.0	0.0	8.0	0.0						1217.6996142999997	1225.4574256999913	1225.4574256999913	4.0	['4', 'return']	[2.888330899993889, 3.5760912999976426]	7.75	5.62	0.0	20hz	low_pain	41.0			sub-038	250	38	41	42.8	COM11	COM15	COM3	2024-06-04_13h37.21.985	001-EEG_SVR_Officel	2022.2.5	143.60986371505106		7.746000000000095	1_sub-pilot038_SVR_EEG_block3-4.protocol.csv	step19	2785	276.786	STIMULATE	40.9	40.8	40.8	40.8	41.0	19	1161.1480000000001
1155.192	0	577596	20/Lo	5	2	0	2	0	8.0	0.0	8.0	0.0						1217.6996142999997	1225.4574256999913	1225.4574256999913	4.0	['4', 'return']	[2.888330899993889, 3.5760912999976426]	7.75	5.62	0.0	20hz	low_pain	41.0			sub-038	250	38	41	42.8	COM11	COM15	COM3	2024-06-04_13h37.21.985	001-EEG_SVR_Officel	2022.2.5	143.60986371505106		5.624000000000024	1_sub-pilot038_SVR_EEG_block3-4.protocol.csv	step19	2785	276.786	STIMULATE	40.9	40.8	40.8	40.8	41.0	19	1161.1480000000001
1165.416	0	582708	wait	20	2	0	2	0	9.0	0.0	9.0	0.0						1242.0428111999936	1248.4948413999955	1248.4948413999955	4.5	['4', 'a', '5', 'return']	[3.8997521999990568, 4.091704000005848, 4.347146000000066, 5.202972800005227]	6.44	6.06	1.0	20hz	low_pain	41.0			sub-038	250	38	41	42.8	COM11	COM15	COM3	2024-06-04_13h37.21.985	001-EEG_SVR_Officel	2022.2.5	143.60986371505106		10.973999999999933	1_sub-pilot038_SVR_EEG_block3-4.protocol.csv	step21	3022	300.222	STIMULATE	40.9	40.8	40.8	40.8	41.0	21	1184.584
1171.856	0	585928	20hz	6	2	0	2	0	9.0	0.0	9.0	0.0						1242.0428111999936	1248.4948413999955	1248.4948413999955	4.5	['4', 'a', '5', 'return']	[3.8997521999990568, 4.091704000005848, 4.347146000000066, 5.202972800005227]	6.44	6.06	1.0	20hz	low_pain	41.0			sub-038	250	38	41	42.8	COM11	COM15	COM3	2024-06-04_13h37.21.985	001-EEG_SVR_Officel	2022.2.5	143.60986371505106		6.440000000000055	1_sub-pilot038_SVR_EEG_block3-4.protocol.csv	step21	3022	300.222	STIMULATE	40.9	40.8	40.8	40.8	41.0	21	1184.584
1178.668	0	589334	20/Lo	5	2	0	2	0	9.0	0.0	9.0	0.0						1242.0428111999936	1248.4948413999955	1248.4948413999955	4.5	['4', 'a', '5', 'return']	[3.8997521999990568, 4.091704000005848, 4.347146000000066, 5.202972800005227]	6.44	6.06	1.0	20hz	low_pain	41.0			sub-038	250	38	41	42.8	COM11	COM15	COM3	2024-06-04_13h37.21.985	001-EEG_SVR_Officel	2022.2.5	143.60986371505106		6.061999999999898	1_sub-pilot038_SVR_EEG_block3-4.protocol.csv	step21	3022	300.222	STIMULATE	40.9	40.8	40.8	40.8	41.0	21	1184.584
1190.084	0	595042	wait	20	2	0	2	0	10.0	0.0	10.0	0.0						1266.7123041000011	1272.555661499995	1272.555661499995	7.0	['7', 'return']	[3.864642399988952, 4.392855999991298]	5.83	5.84	2.0	20hz	high_pain	42.8			sub-038	250	38	41	42.8	COM11	COM15	COM3	2024-06-04_13h37.21.985	001-EEG_SVR_Officel	2022.2.5	143.60986371505106		12.166000000000167	1_sub-pilot038_SVR_EEG_block3-4.protocol.csv	step23	3262	324.015	STIMULATE	42.8	42.7	42.7	42.7	42.7	23	1208.377
1195.914	0	597957	20hz	6	2	0	2	0	10.0	0.0	10.0	0.0						1266.7123041000011	1272.555661499995	1272.555661499995	7.0	['7', 'return']	[3.864642399988952, 4.392855999991298]	5.83	5.84	2.0	20hz	high_pain	42.8			sub-038	250	38	41	42.8	COM11	COM15	COM3	2024-06-04_13h37.21.985	001-EEG_SVR_Officel	2022.2.5	143.60986371505106		5.829999999999927	1_sub-pilot038_SVR_EEG_block3-4.protocol.csv	step23	3262	324.015	STIMULATE	42.8	42.7	42.7	42.7	42.7	23	1208.377
1202.504	0	601252	20/Hi	4	2	0	2	0	10.0	0.0	10.0	0.0						1266.7123041000011	1272.555661499995	1272.555661499995	7.0	['7', 'return']	[3.864642399988952, 4.392855999991298]	5.83	5.84	2.0	20hz	high_pain	42.8			sub-038	250	38	41	42.8	COM11	COM15	COM3	2024-06-04_13h37.21.985	001-EEG_SVR_Officel	2022.2.5	143.60986371505106		5.839999999999918	1_sub-pilot038_SVR_EEG_block3-4.protocol.csv	step23	3262	324.015	STIMULATE	42.8	42.7	42.7	42.7	42.7	23	1208.377
1213.33	0	606665	wait	20	2	0	2	0	11.0	0.0	11.0	0.0						1289.9577569999965	1296.0285465999914	1296.0285465999914	3.0	['3', 'return']	[2.3331806999922264, 2.989095400000224]	6.06	6.1	3.0	controle	low_pain	41.0			sub-038	250	38	41	42.8	COM11	COM15	COM3	2024-06-04_13h37.21.985	001-EEG_SVR_Officel	2022.2.5	143.60986371505106		11.576000000000022	1_sub-pilot038_SVR_EEG_block3-4.protocol.csv	step25	3501	347.798	STIMULATE	40.9	40.8	40.8	40.8	40.8	25	1232.16
1219.388	0	609694	CNhz	12	2	0	2	0	11.0	0.0	11.0	0.0						1289.9577569999965	1296.0285465999914	1296.0285465999914	3.0	['3', 'return']	[2.3331806999922264, 2.989095400000224]	6.06	6.1	3.0	controle	low_pain	41.0			sub-038	250	38	41	42.8	COM11	COM15	COM3	2024-06-04_13h37.21.985	001-EEG_SVR_Officel	2022.2.5	143.60986371505106		6.057999999999993	1_sub-pilot038_SVR_EEG_block3-4.protocol.csv	step25	3501	347.798	STIMULATE	40.9	40.8	40.8	40.8	40.8	25	1232.16
1226.242	0	613121	CN/Lo	11	2	0	2	0	11.0	0.0	11.0	0.0						1289.9577569999965	1296.0285465999914	1296.0285465999914	3.0	['3', 'return']	[2.3331806999922264, 2.989095400000224]	6.06	6.1	3.0	controle	low_pain	41.0			sub-038	250	38	41	42.8	COM11	COM15	COM3	2024-06-04_13h37.21.985	001-EEG_SVR_Officel	2022.2.5	143.60986371505106		6.104000000000042	1_sub-pilot038_SVR_EEG_block3-4.protocol.csv	step25	3501	347.798	STIMULATE	40.9	40.8	40.8	40.8	40.8	25	1232.16
1235.41	0	617705	wait	20	2	0	2	0	12.0	0.0	12.0	0.0						1312.0371270999894	1317.3155457999965	1317.3155457999965	4.0	['4', 'return']	[2.72668770000746, 3.2550048000121024]	5.27	5.57	0.0	controle	high_pain	42.8			sub-038	250	38	41	42.8	COM11	COM15	COM3	2024-06-04_13h37.21.985	001-EEG_SVR_Officel	2022.2.5	143.60986371505106		9.91800000000012	1_sub-pilot038_SVR_EEG_block3-4.protocol.csv	step27	3711	368.55	STIMULATE	42.8	42.7	42.6	42.7	42.9	27	1252.912
1240.676	0	620338	CNhz	12	2	0	2	0	12.0	0.0	12.0	0.0						1312.0371270999894	1317.3155457999965	1317.3155457999965	4.0	['4', 'return']	[2.72668770000746, 3.2550048000121024]	5.27	5.57	0.0	controle	high_pain	42.8			sub-038	250	38	41	42.8	COM11	COM15	COM3	2024-06-04_13h37.21.985	001-EEG_SVR_Officel	2022.2.5	143.60986371505106		5.265999999999849	1_sub-pilot038_SVR_EEG_block3-4.protocol.csv	step27	3711	368.55	STIMULATE	42.8	42.7	42.6	42.7	42.9	27	1252.912
1246.994	0	623497	CN/Hi	10	2	0	2	0	12.0	0.0	12.0	0.0						1312.0371270999894	1317.3155457999965	1317.3155457999965	4.0	['4', 'return']	[2.72668770000746, 3.2550048000121024]	5.27	5.57	0.0	controle	high_pain	42.8			sub-038	250	38	41	42.8	COM11	COM15	COM3	2024-06-04_13h37.21.985	001-EEG_SVR_Officel	2022.2.5	143.60986371505106		5.567999999999984	1_sub-pilot038_SVR_EEG_block3-4.protocol.csv	step27	3711	368.55	STIMULATE	42.8	42.7	42.6	42.7	42.9	27	1252.912
1256.954	0	628477	wait	20	2	0	2	0	13.0	0.0	13.0	0.0						1333.5813827999957	1339.4919658	1339.4919658	6.0	['6', 'return']	[2.5336240000033285, 3.165682699996978]	5.9	5.6	1.0	controle	high_pain	42.8			sub-038	250	38	41	42.8	COM11	COM15	COM3	2024-06-04_13h37.21.985	001-EEG_SVR_Officel	2022.2.5	143.60986371505106		10.710000000000036	1_sub-pilot038_SVR_EEG_block3-4.protocol.csv	step29	3935	390.778	STIMULATE	42.7	42.7	42.7	42.7	42.9	29	1275.14
1262.852	0	631426	CNhz	12	2	0	2	0	13.0	0.0	13.0	0.0						1333.5813827999957	1339.4919658	1339.4919658	6.0	['6', 'return']	[2.5336240000033285, 3.165682699996978]	5.9	5.6	1.0	controle	high_pain	42.8			sub-038	250	38	41	42.8	COM11	COM15	COM3	2024-06-04_13h37.21.985	001-EEG_SVR_Officel	2022.2.5	143.60986371505106		5.898000000000138	1_sub-pilot038_SVR_EEG_block3-4.protocol.csv	step29	3935	390.778	STIMULATE	42.7	42.7	42.7	42.7	42.9	29	1275.14
1269.206	0	634603	CN/Hi	10	2	0	2	0	13.0	0.0	13.0	0.0						1333.5813827999957	1339.4919658	1339.4919658	6.0	['6', 'return']	[2.5336240000033285, 3.165682699996978]	5.9	5.6	1.0	controle	high_pain	42.8			sub-038	250	38	41	42.8	COM11	COM15	COM3	2024-06-04_13h37.21.985	001-EEG_SVR_Officel	2022.2.5	143.60986371505106		5.6039999999998145	1_sub-pilot038_SVR_EEG_block3-4.protocol.csv	step29	3935	390.778	STIMULATE	42.7	42.7	42.7	42.7	42.9	29	1275.14
1279.048	0	639524	wait	20	2	0	2	0	14.0	0.0	14.0	0.0						1355.6750466999947	1361.3560090999963	1361.3560090999963	6.2	['6', 'a', '2', 'return']	[2.7255951999977697, 2.981805200004601, 3.4455808000057004, 4.190672199998517]	5.67	5.44	2.0	40hz	high_pain	42.8			sub-038	250	38	41	42.8	COM11	COM15	COM3	2024-06-04_13h37.21.985	001-EEG_SVR_Officel	2022.2.5	143.60986371505106		10.592000000000098	1_sub-pilot038_SVR_EEG_block3-4.protocol.csv	step31	4154	412.476	STIMULATE	42.8	42.7	42.7	42.7	42.7	31	1296.838
1284.716	0	642358	40hz	9	2	0	2	0	14.0	0.0	14.0	0.0						1355.6750466999947	1361.3560090999963	1361.3560090999963	6.2	['6', 'a', '2', 'return']	[2.7255951999977697, 2.981805200004601, 3.4455808000057004, 4.190672199998517]	5.67	5.44	2.0	40hz	high_pain	42.8			sub-038	250	38	41	42.8	COM11	COM15	COM3	2024-06-04_13h37.21.985	001-EEG_SVR_Officel	2022.2.5	143.60986371505106		5.667999999999893	1_sub-pilot038_SVR_EEG_block3-4.protocol.csv	step31	4154	412.476	STIMULATE	42.8	42.7	42.7	42.7	42.7	31	1296.838
1290.91	0	645455	40/Hi	7	2	0	2	0	14.0	0.0	14.0	0.0						1355.6750466999947	1361.3560090999963	1361.3560090999963	6.2	['6', 'a', '2', 'return']	[2.7255951999977697, 2.981805200004601, 3.4455808000057004, 4.190672199998517]	5.67	5.44	2.0	40hz	high_pain	42.8			sub-038	250	38	41	42.8	COM11	COM15	COM3	2024-06-04_13h37.21.985	001-EEG_SVR_Officel	2022.2.5	143.60986371505106		5.444000000000187	1_sub-pilot038_SVR_EEG_block3-4.protocol.csv	step31	4154	412.476	STIMULATE	42.8	42.7	42.7	42.7	42.7	31	1296.838
1301.938	0	650969	wait	20	2	0	2	0	15.0	0.0	15.0	0.0						1378.5664042999997	1384.198767599999	1384.198767599999	3.0	['3', 'return']	[2.843084500011173, 3.482806600004551]	5.62	5.63	3.0	20hz	low_pain	41.0			sub-038	250	38	41	42.8	COM11	COM15	COM3	2024-06-04_13h37.21.985	001-EEG_SVR_Officel	2022.2.5	143.60986371505106		11.77800000000002	1_sub-pilot038_SVR_EEG_block3-4.protocol.csv	step33	4387	435.563	STIMULATE	40.9	40.8	40.8	40.8	40.8	33	1319.925
1307.558	0	653779	20hz	6	2	0	2	0	15.0	0.0	15.0	0.0						1378.5664042999997	1384.198767599999	1384.198767599999	3.0	['3', 'return']	[2.843084500011173, 3.482806600004551]	5.62	5.63	3.0	20hz	low_pain	41.0			sub-038	250	38	41	42.8	COM11	COM15	COM3	2024-06-04_13h37.21.985	001-EEG_SVR_Officel	2022.2.5	143.60986371505106		5.619999999999891	1_sub-pilot038_SVR_EEG_block3-4.protocol.csv	step33	4387	435.563	STIMULATE	40.9	40.8	40.8	40.8	40.8	33	1319.925
1313.94	0	656970	20/Lo	5	2	0	2	0	15.0	0.0	15.0	0.0						1378.5664042999997	1384.198767599999	1384.198767599999	3.0	['3', 'return']	[2.843084500011173, 3.482806600004551]	5.62	5.63	3.0	20hz	low_pain	41.0			sub-038	250	38	41	42.8	COM11	COM15	COM3	2024-06-04_13h37.21.985	001-EEG_SVR_Officel	2022.2.5	143.60986371505106		5.632000000000062	1_sub-pilot038_SVR_EEG_block3-4.protocol.csv	step33	4387	435.563	STIMULATE	40.9	40.8	40.8	40.8	40.8	33	1319.925
1387.316	0	693658	wait	20	3	0	3	0	0.0	0.0	0.0	0.0				p	1.6466767999954754	1463.944208999994	1470.4244831999968	1470.4244831999968	3.0	['3', 'return']	[3.0011048000014853, 3.593410900008166]	6.47	5.95	0.0	40hz	low_pain	41.0			sub-038	250	38	41	42.8	COM11	COM15	COM3	2024-06-04_13h37.21.985	001-EEG_SVR_Officel	2022.2.5	143.60986371505106		74.12599999999998	1_sub-pilot038_SVR_EEG_block3-4.protocol.csv	step35	5254	522.112	STIMULATE	40.9	40.8	40.8	40.8	41.0	35	1406.397
1393.784	0	696892	40hz	9	3	0	3	0	0.0	0.0	0.0	0.0				p	1.6466767999954754	1463.944208999994	1470.4244831999968	1470.4244831999968	3.0	['3', 'return']	[3.0011048000014853, 3.593410900008166]	6.47	5.95	0.0	40hz	low_pain	41.0			sub-038	250	38	41	42.8	COM11	COM15	COM3	2024-06-04_13h37.21.985	001-EEG_SVR_Officel	2022.2.5	143.60986371505106		6.468000000000075	1_sub-pilot038_SVR_EEG_block3-4.protocol.csv	step35	5254	522.112	STIMULATE	40.9	40.8	40.8	40.8	41.0	35	1406.397
1400.484	0	700242	40/Lo	8	3	0	3	0	0.0	0.0	0.0	0.0				p	1.6466767999954754	1463.944208999994	1470.4244831999968	1470.4244831999968	3.0	['3', 'return']	[3.0011048000014853, 3.593410900008166]	6.47	5.95	0.0	40hz	low_pain	41.0			sub-038	250	38	41	42.8	COM11	COM15	COM3	2024-06-04_13h37.21.985	001-EEG_SVR_Officel	2022.2.5	143.60986371505106		5.949999999999818	1_sub-pilot038_SVR_EEG_block3-4.protocol.csv	step35	5254	522.112	STIMULATE	40.9	40.8	40.8	40.8	41.0	35	1406.397
1410.408	0	705204	wait	20	3	0	3	0	1.0	0.0	1.0	0.0						1487.0376817999932	1493.8579476000014	1493.8579476000014	4.0	['4', 'return']	[2.7921733999974094, 3.3855456999881426]	6.81	6.46	1.0	20hz	high_pain	42.8			sub-038	250	38	41	42.8	COM11	COM15	COM3	2024-06-04_13h37.21.985	001-EEG_SVR_Officel	2022.2.5	143.60986371505106		10.673999999999978	1_sub-pilot038_SVR_EEG_block3-4.protocol.csv	step37	5495	545.997	STIMULATE	42.7	42.7	42.7	42.7	42.9	37	1430.282
1417.216	0	708608	20hz	6	3	0	3	0	1.0	0.0	1.0	0.0						1487.0376817999932	1493.8579476000014	1493.8579476000014	4.0	['4', 'return']	[2.7921733999974094, 3.3855456999881426]	6.81	6.46	1.0	20hz	high_pain	42.8			sub-038	250	38	41	42.8	COM11	COM15	COM3	2024-06-04_13h37.21.985	001-EEG_SVR_Officel	2022.2.5	143.60986371505106		6.807999999999993	1_sub-pilot038_SVR_EEG_block3-4.protocol.csv	step37	5495	545.997	STIMULATE	42.7	42.7	42.7	42.7	42.9	37	1430.282
1424.43	0	712215	20/Hi	4	3	0	3	0	1.0	0.0	1.0	0.0						1487.0376817999932	1493.8579476000014	1493.8579476000014	4.0	['4', 'return']	[2.7921733999974094, 3.3855456999881426]	6.81	6.46	1.0	20hz	high_pain	42.8			sub-038	250	38	41	42.8	COM11	COM15	COM3	2024-06-04_13h37.21.985	001-EEG_SVR_Officel	2022.2.5	143.60986371505106		6.464000000000169	1_sub-pilot038_SVR_EEG_block3-4.protocol.csv	step37	5495	545.997	STIMULATE	42.7	42.7	42.7	42.7	42.9	37	1430.282
1433.626	0	716813	wait	20	3	0	3	0	2.0	0.0	2.0	0.0						1510.2549265999987	1517.4437743000017	1517.4437743000017	3.0	['3', 'return']	[3.3657739000045694, 4.085006799999974]	7.18	5.21	2.0	40hz	low_pain	41.0			sub-038	250	38	41	42.8	COM11	COM15	COM3	2024-06-04_13h37.21.985	001-EEG_SVR_Officel	2022.2.5	143.60986371505106		9.945999999999913	1_sub-pilot038_SVR_EEG_block3-4.protocol.csv	step39	5720	568.293	STIMULATE	40.9	40.8	40.8	40.8	41.0	39	1452.578
1440.804	0	720402	40hz	9	3	0	3	0	2.0	0.0	2.0	0.0						1510.2549265999987	1517.4437743000017	1517.4437743000017	3.0	['3', 'return']	[3.3657739000045694, 4.085006799999974]	7.18	5.21	2.0	40hz	low_pain	41.0			sub-038	250	38	41	42.8	COM11	COM15	COM3	2024-06-04_13h37.21.985	001-EEG_SVR_Officel	2022.2.5	143.60986371505106		7.178000000000111	1_sub-pilot038_SVR_EEG_block3-4.protocol.csv	step39	5720	568.293	STIMULATE	40.9	40.8	40.8	40.8	41.0	39	1452.578
1446.768	0	723384	40/Lo	8	3	0	3	0	2.0	0.0	2.0	0.0						1510.2549265999987	1517.4437743000017	1517.4437743000017	3.0	['3', 'return']	[3.3657739000045694, 4.085006799999974]	7.18	5.21	2.0	40hz	low_pain	41.0			sub-038	250	38	41	42.8	COM11	COM15	COM3	2024-06-04_13h37.21.985	001-EEG_SVR_Officel	2022.2.5	143.60986371505106		5.213999999999942	1_sub-pilot038_SVR_EEG_block3-4.protocol.csv	step39	5720	568.293	STIMULATE	40.9	40.8	40.8	40.8	41.0	39	1452.578
1457.92	0	728960	wait	20	3	0	3	0	3.0	0.0	3.0	0.0						1534.549909399997	1539.9672771999903	1539.9672771999903	3.0	['3', 'return']	[3.6101957999926526, 4.433820799997193]	5.41	5.77	3.0	10hz	low_pain	41.0			sub-038	250	38	41	42.8	COM11	COM15	COM3	2024-06-04_13h37.21.985	001-EEG_SVR_Officel	2022.2.5	143.60986371505106		11.902000000000044	1_sub-pilot038_SVR_EEG_block3-4.protocol.csv	step41	5954	591.443	STIMULATE	41.0	40.8	40.8	40.8	40.8	41	1475.728
1463.326	0	731663	10hz	3	3	0	3	0	3.0	0.0	3.0	0.0						1534.549909399997	1539.9672771999903	1539.9672771999903	3.0	['3', 'return']	[3.6101957999926526, 4.433820799997193]	5.41	5.77	3.0	10hz	low_pain	41.0			sub-038	250	38	41	42.8	COM11	COM15	COM3	2024-06-04_13h37.21.985	001-EEG_SVR_Officel	2022.2.5	143.60986371505106		5.405999999999949	1_sub-pilot038_SVR_EEG_block3-4.protocol.csv	step41	5954	591.443	STIMULATE	41.0	40.8	40.8	40.8	40.8	41	1475.728
1469.846	0	734923	10/Lo	2	3	0	3	0	3.0	0.0	3.0	0.0						1534.549909399997	1539.9672771999903	1539.9672771999903	3.0	['3', 'return']	[3.6101957999926526, 4.433820799997193]	5.41	5.77	3.0	10hz	low_pain	41.0			sub-038	250	38	41	42.8	COM11	COM15	COM3	2024-06-04_13h37.21.985	001-EEG_SVR_Officel	2022.2.5	143.60986371505106		5.769999999999982	1_sub-pilot038_SVR_EEG_block3-4.protocol.csv	step41	5954	591.443	STIMULATE	41.0	40.8	40.8	40.8	40.8	41	1475.728
1480.792	0	740396	wait	20	3	0	3	0	4.0	0.0	4.0	0.0						1557.420630499997	1563.9493402999942	1563.9493402999942	5.0	['5', 'return']	[2.700492600008147, 3.3487569999997504]	6.52	5.07	0.0	40hz	high_pain	42.8			sub-038	250	38	41	42.8	COM11	COM15	COM3	2024-06-04_13h37.21.985	001-EEG_SVR_Officel	2022.2.5	143.60986371505106		11.695999999999913	1_sub-pilot038_SVR_EEG_block3-4.protocol.csv	step43	6189	614.726	STIMULATE	42.7	42.6	42.7	42.7	42.9	43	1499.011
1487.308	0	743654	40hz	9	3	0	3	0	4.0	0.0	4.0	0.0						1557.420630499997	1563.9493402999942	1563.9493402999942	5.0	['5', 'return']	[2.700492600008147, 3.3487569999997504]	6.52	5.07	0.0	40hz	high_pain	42.8			sub-038	250	38	41	42.8	COM11	COM15	COM3	2024-06-04_13h37.21.985	001-EEG_SVR_Officel	2022.2.5	143.60986371505106		6.516000000000076	1_sub-pilot038_SVR_EEG_block3-4.protocol.csv	step43	6189	614.726	STIMULATE	42.7	42.6	42.7	42.7	42.9	43	1499.011
1493.126	0	746563	40/Hi	7	3	0	3	0	4.0	0.0	4.0	0.0						1557.420630499997	1563.9493402999942	1563.9493402999942	5.0	['5', 'return']	[2.700492600008147, 3.3487569999997504]	6.52	5.07	0.0	40hz	high_pain	42.8			sub-038	250	38	41	42.8	COM11	COM15	COM3	2024-06-04_13h37.21.985	001-EEG_SVR_Officel	2022.2.5	143.60986371505106		5.067999999999984	1_sub-pilot038_SVR_EEG_block3-4.protocol.csv	step43	6189	614.726	STIMULATE	42.7	42.6	42.7	42.7	42.9	43	1499.011
1503.682	0	751841	wait	20	3	0	3	0	5.0	0.0	5.0	0.0						1580.311892400001	1585.9519067999936	1585.9519067999936	2.0	['2', 'return']	[3.3436586000025272, 3.903659100004006]	5.63	5.7	1.0	10hz	low_pain	41.0			sub-038	250	38	41	42.8	COM11	COM15	COM3	2024-06-04_13h37.21.985	001-EEG_SVR_Officel	2022.2.5	143.60986371505106		11.30600000000004	1_sub-pilot038_SVR_EEG_block3-4.protocol.csv	step45	6417	637.353	STIMULATE	40.9	40.8	40.8	40.8	41.0	45	1521.638
1509.31	0	754655	10hz	3	3	0	3	0	5.0	0.0	5.0	0.0						1580.311892400001	1585.9519067999936	1585.9519067999936	2.0	['2', 'return']	[3.3436586000025272, 3.903659100004006]	5.63	5.7	1.0	10hz	low_pain	41.0			sub-038	250	38	41	42.8	COM11	COM15	COM3	2024-06-04_13h37.21.985	001-EEG_SVR_Officel	2022.2.5	143.60986371505106		5.627999999999929	1_sub-pilot038_SVR_EEG_block3-4.protocol.csv	step45	6417	637.353	STIMULATE	40.9	40.8	40.8	40.8	41.0	45	1521.638
1515.762	0	757881	10/Lo	2	3	0	3	0	5.0	0.0	5.0	0.0						1580.311892400001	1585.9519067999936	1585.9519067999936	2.0	['2', 'return']	[3.3436586000025272, 3.903659100004006]	5.63	5.7	1.0	10hz	low_pain	41.0			sub-038	250	38	41	42.8	COM11	COM15	COM3	2024-06-04_13h37.21.985	001-EEG_SVR_Officel	2022.2.5	143.60986371505106		5.701999999999998	1_sub-pilot038_SVR_EEG_block3-4.protocol.csv	step45	6417	637.353	STIMULATE	40.9	40.8	40.8	40.8	41.0	45	1521.638
1526.24	0	763120	wait	20	3	0	3	0	6.0	0.0	6.0	0.0						1602.8709000999952	1609.8301629999914	1609.8301629999914	2.0	['2', 'return']	[3.8358590999996522, 4.579137799999444]	6.95	5.77	2.0	20hz	low_pain	41.0			sub-038	250	38	41	42.8	COM11	COM15	COM3	2024-06-04_13h37.21.985	001-EEG_SVR_Officel	2022.2.5	143.60986371505106		11.228000000000065	1_sub-pilot038_SVR_EEG_block3-4.protocol.csv	step47	6658	661.265	STIMULATE	40.9	40.8	40.8	40.8	40.9	47	1545.55
1533.19	0	766595	20hz	6	3	0	3	0	6.0	0.0	6.0	0.0						1602.8709000999952	1609.8301629999914	1609.8301629999914	2.0	['2', 'return']	[3.8358590999996522, 4.579137799999444]	6.95	5.77	2.0	20hz	low_pain	41.0			sub-038	250	38	41	42.8	COM11	COM15	COM3	2024-06-04_13h37.21.985	001-EEG_SVR_Officel	2022.2.5	143.60986371505106		6.9500000000000455	1_sub-pilot038_SVR_EEG_block3-4.protocol.csv	step47	6658	661.265	STIMULATE	40.9	40.8	40.8	40.8	40.9	47	1545.55
1539.708	0	769854	20/Lo	5	3	0	3	0	6.0	0.0	6.0	0.0						1602.8709000999952	1609.8301629999914	1609.8301629999914	2.0	['2', 'return']	[3.8358590999996522, 4.579137799999444]	6.95	5.77	2.0	20hz	low_pain	41.0			sub-038	250	38	41	42.8	COM11	COM15	COM3	2024-06-04_13h37.21.985	001-EEG_SVR_Officel	2022.2.5	143.60986371505106		5.768000000000029	1_sub-pilot038_SVR_EEG_block3-4.protocol.csv	step47	6658	661.265	STIMULATE	40.9	40.8	40.8	40.8	40.9	47	1545.55
1550.792	0	775396	wait	20	3	0	3	0	7.0	0.0	7.0	0.0						1627.421643099995	1634.6590767000016	1634.6590767000016	6.0	['6', 'return']	[3.246681999997236, 3.9282062999991467]	7.23	6.2	3.0	20hz	high_pain	42.8			sub-038	250	38	41	42.8	COM11	COM15	COM3	2024-06-04_13h37.21.985	001-EEG_SVR_Officel	2022.2.5	143.60986371505106		11.833999999999833	1_sub-pilot038_SVR_EEG_block3-4.protocol.csv	step49	6914	686.644	STIMULATE	42.8	42.7	42.7	42.7	42.7	49	1570.929
1558.018	0	779009	20hz	6	3	0	3	0	7.0	0.0	7.0	0.0						1627.421643099995	1634.6590767000016	1634.6590767000016	6.0	['6', 'return']	[3.246681999997236, 3.9282062999991467]	7.23	6.2	3.0	20hz	high_pain	42.8			sub-038	250	38	41	42.8	COM11	COM15	COM3	2024-06-04_13h37.21.985	001-EEG_SVR_Officel	2022.2.5	143.60986371505106		7.226000000000113	1_sub-pilot038_SVR_EEG_block3-4.protocol.csv	step49	6914	686.644	STIMULATE	42.8	42.7	42.7	42.7	42.7	49	1570.929
1564.968	0	782484	20/Hi	4	3	0	3	0	7.0	0.0	7.0	0.0						1627.421643099995	1634.6590767000016	1634.6590767000016	6.0	['6', 'return']	[3.246681999997236, 3.9282062999991467]	7.23	6.2	3.0	20hz	high_pain	42.8			sub-038	250	38	41	42.8	COM11	COM15	COM3	2024-06-04_13h37.21.985	001-EEG_SVR_Officel	2022.2.5	143.60986371505106		6.2000000000000455	1_sub-pilot038_SVR_EEG_block3-4.protocol.csv	step49	6914	686.644	STIMULATE	42.8	42.7	42.7	42.7	42.7	49	1570.929
1574.976	0	787488	wait	20	3	0	3	0	8.0	0.0	8.0	0.0						1651.605517899996	1657.328496699993	1657.328496699993	3.0	['3', 'return']	[2.385508799998206, 3.105440700004692]	5.71	5.7	0.0	10hz	low_pain	41.0			sub-038	250	38	41	42.8	COM11	COM15	COM3	2024-06-04_13h37.21.985	001-EEG_SVR_Officel	2022.2.5	143.60986371505106		10.758000000000038	1_sub-pilot038_SVR_EEG_block3-4.protocol.csv	step51	7137	708.727	STIMULATE	40.9	40.8	40.8	40.8	41.0	51	1593.012
1580.686	0	790343	10hz	3	3	0	3	0	8.0	0.0	8.0	0.0						1651.605517899996	1657.328496699993	1657.328496699993	3.0	['3', 'return']	[2.385508799998206, 3.105440700004692]	5.71	5.7	0.0	10hz	low_pain	41.0			sub-038	250	38	41	42.8	COM11	COM15	COM3	2024-06-04_13h37.21.985	001-EEG_SVR_Officel	2022.2.5	143.60986371505106		5.709999999999809	1_sub-pilot038_SVR_EEG_block3-4.protocol.csv	step51	7137	708.727	STIMULATE	40.9	40.8	40.8	40.8	41.0	51	1593.012
1587.136	0	793568	10/Lo	2	3	0	3	0	8.0	0.0	8.0	0.0						1651.605517899996	1657.328496699993	1657.328496699993	3.0	['3', 'return']	[2.385508799998206, 3.105440700004692]	5.71	5.7	0.0	10hz	low_pain	41.0			sub-038	250	38	41	42.8	COM11	COM15	COM3	2024-06-04_13h37.21.985	001-EEG_SVR_Officel	2022.2.5	143.60986371505106		5.7000000000000455	1_sub-pilot038_SVR_EEG_block3-4.protocol.csv	step51	7137	708.727	STIMULATE	40.9	40.8	40.8	40.8	41.0	51	1593.012
1596.826	0	798413	wait	20	3	0	3	0	9.0	0.0	9.0	0.0						1673.4554394000006	1679.663866799994	1679.663866799994	5.0	['5', 'return']	[2.6576912000018638, 3.2102736000088044]	6.2	5.7	1.0	40hz	low_pain	41.0			sub-038	250	38	41	42.8	COM11	COM15	COM3	2024-06-04_13h37.21.985	001-EEG_SVR_Officel	2022.2.5	143.60986371505106		10.440000000000055	1_sub-pilot038_SVR_EEG_block3-4.protocol.csv	step53	7362	731.077	STIMULATE	40.9	40.8	40.8	40.8	41.0	53	1615.362
1603.022	0	801511	40hz	9	3	0	3	0	9.0	0.0	9.0	0.0						1673.4554394000006	1679.663866799994	1679.663866799994	5.0	['5', 'return']	[2.6576912000018638, 3.2102736000088044]	6.2	5.7	1.0	40hz	low_pain	41.0			sub-038	250	38	41	42.8	COM11	COM15	COM3	2024-06-04_13h37.21.985	001-EEG_SVR_Officel	2022.2.5	143.60986371505106		6.195999999999913	1_sub-pilot038_SVR_EEG_block3-4.protocol.csv	step53	7362	731.077	STIMULATE	40.9	40.8	40.8	40.8	41.0	53	1615.362
1609.472	0	804736	40/Lo	8	3	0	3	0	9.0	0.0	9.0	0.0						1673.4554394000006	1679.663866799994	1679.663866799994	5.0	['5', 'return']	[2.6576912000018638, 3.2102736000088044]	6.2	5.7	1.0	40hz	low_pain	41.0			sub-038	250	38	41	42.8	COM11	COM15	COM3	2024-06-04_13h37.21.985	001-EEG_SVR_Officel	2022.2.5	143.60986371505106		5.7000000000000455	1_sub-pilot038_SVR_EEG_block3-4.protocol.csv	step53	7362	731.077	STIMULATE	40.9	40.8	40.8	40.8	41.0	53	1615.362
1619.258	0	809629	wait	20	3	0	3	0	10.0	0.0	10.0	0.0						1695.888182900002	1703.285304399993	1703.285304399993	6.2	['6', 'a', '2', 'return']	[3.461057799999253, 3.74761090001266, 4.07631260000926, 4.837204499999643]	7.39	6.2	2.0	controle	high_pain	42.8			sub-038	250	38	41	42.8	COM11	COM15	COM3	2024-06-04_13h37.21.985	001-EEG_SVR_Officel	2022.2.5	143.60986371505106		10.536000000000058	1_sub-pilot038_SVR_EEG_block3-4.protocol.csv	step55	7605	755.166	STIMULATE	42.7	42.7	42.7	42.7	42.8	55	1639.451
1626.644	0	813322	CNhz	12	3	0	3	0	10.0	0.0	10.0	0.0						1695.888182900002	1703.285304399993	1703.285304399993	6.2	['6', 'a', '2', 'return']	[3.461057799999253, 3.74761090001266, 4.07631260000926, 4.837204499999643]	7.39	6.2	2.0	controle	high_pain	42.8			sub-038	250	38	41	42.8	COM11	COM15	COM3	2024-06-04_13h37.21.985	001-EEG_SVR_Officel	2022.2.5	143.60986371505106		7.385999999999967	1_sub-pilot038_SVR_EEG_block3-4.protocol.csv	step55	7605	755.166	STIMULATE	42.7	42.7	42.7	42.7	42.8	55	1639.451
1633.594	0	816797	CN/Hi	10	3	0	3	0	10.0	0.0	10.0	0.0						1695.888182900002	1703.285304399993	1703.285304399993	6.2	['6', 'a', '2', 'return']	[3.461057799999253, 3.74761090001266, 4.07631260000926, 4.837204499999643]	7.39	6.2	2.0	controle	high_pain	42.8			sub-038	250	38	41	42.8	COM11	COM15	COM3	2024-06-04_13h37.21.985	001-EEG_SVR_Officel	2022.2.5	143.60986371505106		6.2000000000000455	1_sub-pilot038_SVR_EEG_block3-4.protocol.csv	step55	7605	755.166	STIMULATE	42.7	42.7	42.7	42.7	42.8	55	1639.451
1644.512	0	822256	wait	20	3	0	3	0	11.0	0.0	11.0	0.0						1721.1419944999943	1726.6428438000005	1726.6428438000005	5.0	['5', 'return']	[3.871365400002105, 4.335254899997381]	5.49	5.79	3.0	controle	high_pain	42.8			sub-038	250	38	41	42.8	COM11	COM15	COM3	2024-06-04_13h37.21.985	001-EEG_SVR_Officel	2022.2.5	143.60986371505106		11.667999999999893	1_sub-pilot038_SVR_EEG_block3-4.protocol.csv	step57	7836	778.163	STIMULATE	42.8	42.7	42.6	42.6	42.7	57	1662.4479999999999
1650.0	0	825000	CNhz	12	3	0	3	0	11.0	0.0	11.0	0.0						1721.1419944999943	1726.6428438000005	1726.6428438000005	5.0	['5', 'return']	[3.871365400002105, 4.335254899997381]	5.49	5.79	3.0	controle	high_pain	42.8			sub-038	250	38	41	42.8	COM11	COM15	COM3	2024-06-04_13h37.21.985	001-EEG_SVR_Officel	2022.2.5	143.60986371505106		5.488000000000056	1_sub-pilot038_SVR_EEG_block3-4.protocol.csv	step57	7836	778.163	STIMULATE	42.8	42.7	42.6	42.6	42.7	57	1662.4479999999999
1656.54	0	828270	CN/Hi	10	3	0	3	0	11.0	0.0	11.0	0.0						1721.1419944999943	1726.6428438000005	1726.6428438000005	5.0	['5', 'return']	[3.871365400002105, 4.335254899997381]	5.49	5.79	3.0	controle	high_pain	42.8			sub-038	250	38	41	42.8	COM11	COM15	COM3	2024-06-04_13h37.21.985	001-EEG_SVR_Officel	2022.2.5	143.60986371505106		5.789999999999964	1_sub-pilot038_SVR_EEG_block3-4.protocol.csv	step57	7836	778.163	STIMULATE	42.8	42.7	42.6	42.6	42.7	57	1662.4479999999999
1667.36	0	833680	wait	20	3	0	3	0	12.0	0.0	12.0	0.0						1743.9914808999893	1750.9230950999918	1750.9230950999918	4.0	['4', 'return']	[2.358900999999605, 2.934255899992422]	6.92	6.15	0.0	controle	low_pain	41.0			sub-038	250	38	41	42.8	COM11	COM15	COM3	2024-06-04_13h37.21.985	001-EEG_SVR_Officel	2022.2.5	143.60986371505106		11.569999999999936	1_sub-pilot038_SVR_EEG_block3-4.protocol.csv	step59	8077	802.758	STIMULATE	40.9	40.8	40.8	40.8	40.9	59	1687.0430000000001
1674.282	0	837141	CNhz	12	3	0	3	0	12.0	0.0	12.0	0.0						1743.9914808999893	1750.9230950999918	1750.9230950999918	4.0	['4', 'return']	[2.358900999999605, 2.934255899992422]	6.92	6.15	0.0	controle	low_pain	41.0			sub-038	250	38	41	42.8	COM11	COM15	COM3	2024-06-04_13h37.21.985	001-EEG_SVR_Officel	2022.2.5	143.60986371505106		6.9220000000000255	1_sub-pilot038_SVR_EEG_block3-4.protocol.csv	step59	8077	802.758	STIMULATE	40.9	40.8	40.8	40.8	40.9	59	1687.0430000000001
1681.182	0	840591	CN/Lo	11	3	0	3	0	12.0	0.0	12.0	0.0						1743.9914808999893	1750.9230950999918	1750.9230950999918	4.0	['4', 'return']	[2.358900999999605, 2.934255899992422]	6.92	6.15	0.0	controle	low_pain	41.0			sub-038	250	38	41	42.8	COM11	COM15	COM3	2024-06-04_13h37.21.985	001-EEG_SVR_Officel	2022.2.5	143.60986371505106		6.150000000000091	1_sub-pilot038_SVR_EEG_block3-4.protocol.csv	step59	8077	802.758	STIMULATE	40.9	40.8	40.8	40.8	40.9	59	1687.0430000000001
1690.238	0	845119	wait	20	3	0	3	0	13.0	0.0	13.0	0.0						1766.8688238999894	1773.786882799992	1773.786882799992	4.3	['4', 'a', '3', 'return']	[3.0710023999999976, 3.2949686999927508, 3.5031397999991896, 4.2232635999971535]	6.91	6.06	1.0	10hz	high_pain	42.8			sub-038	250	38	41	42.8	COM11	COM15	COM3	2024-06-04_13h37.21.985	001-EEG_SVR_Officel	2022.2.5	143.60986371505106		9.80600000000004	1_sub-pilot038_SVR_EEG_block3-4.protocol.csv	step61	8298	825.661	STIMULATE	42.9	42.7	42.7	42.7	42.7	61	1709.946
1697.144	0	848572	10hz	3	3	0	3	0	13.0	0.0	13.0	0.0						1766.8688238999894	1773.786882799992	1773.786882799992	4.3	['4', 'a', '3', 'return']	[3.0710023999999976, 3.2949686999927508, 3.5031397999991896, 4.2232635999971535]	6.91	6.06	1.0	10hz	high_pain	42.8			sub-038	250	38	41	42.8	COM11	COM15	COM3	2024-06-04_13h37.21.985	001-EEG_SVR_Officel	2022.2.5	143.60986371505106		6.905999999999949	1_sub-pilot038_SVR_EEG_block3-4.protocol.csv	step61	8298	825.661	STIMULATE	42.9	42.7	42.7	42.7	42.7	61	1709.946
1703.956	0	851978	10/Hi	1	3	0	3	0	13.0	0.0	13.0	0.0						1766.8688238999894	1773.786882799992	1773.786882799992	4.3	['4', 'a', '3', 'return']	[3.0710023999999976, 3.2949686999927508, 3.5031397999991896, 4.2232635999971535]	6.91	6.06	1.0	10hz	high_pain	42.8			sub-038	250	38	41	42.8	COM11	COM15	COM3	2024-06-04_13h37.21.985	001-EEG_SVR_Officel	2022.2.5	143.60986371505106		6.061999999999898	1_sub-pilot038_SVR_EEG_block3-4.protocol.csv	step61	8298	825.661	STIMULATE	42.9	42.7	42.7	42.7	42.7	61	1709.946
1714.394	0	857197	wait	20	3	0	3	0	14.0	0.0	14.0	0.0						1791.024925699996	1797.6930724999984	1797.6930724999984	4.0	['4', 'return']	[2.9977632999944035, 3.5819861000054516]	6.66	6.39	2.0	10hz	high_pain	42.8			sub-038	250	38	41	42.8	COM11	COM15	COM3	2024-06-04_13h37.21.985	001-EEG_SVR_Officel	2022.2.5	143.60986371505106		11.188000000000102	1_sub-pilot038_SVR_EEG_block3-4.protocol.csv	step63	8529	849.814	STIMULATE	42.8	42.7	42.7	42.7	42.7	63	1734.099
1721.05	0	860525	10hz	3	3	0	3	0	14.0	0.0	14.0	0.0						1791.024925699996	1797.6930724999984	1797.6930724999984	4.0	['4', 'return']	[2.9977632999944035, 3.5819861000054516]	6.66	6.39	2.0	10hz	high_pain	42.8			sub-038	250	38	41	42.8	COM11	COM15	COM3	2024-06-04_13h37.21.985	001-EEG_SVR_Officel	2022.2.5	143.60986371505106		6.655999999999949	1_sub-pilot038_SVR_EEG_block3-4.protocol.csv	step63	8529	849.814	STIMULATE	42.8	42.7	42.7	42.7	42.7	63	1734.099
1728.194	0	864097	10/Hi	1	3	0	3	0	14.0	0.0	14.0	0.0						1791.024925699996	1797.6930724999984	1797.6930724999984	4.0	['4', 'return']	[2.9977632999944035, 3.5819861000054516]	6.66	6.39	2.0	10hz	high_pain	42.8			sub-038	250	38	41	42.8	COM11	COM15	COM3	2024-06-04_13h37.21.985	001-EEG_SVR_Officel	2022.2.5	143.60986371505106		6.3940000000000055	1_sub-pilot038_SVR_EEG_block3-4.protocol.csv	step63	8529	849.814	STIMULATE	42.8	42.7	42.7	42.7	42.7	63	1734.099
1737.654	0	868827	wait	20	3	0	3	0	15.0	0.0	15.0	0.0						1814.284242499998	1821.313292599996	1821.313292599996	3.0	['3', 'return']	[3.128231599999708, 3.831666600002791]	7.02	5.21	3.0	10hz	high_pain	42.8			sub-038	250	38	41	42.8	COM11	COM15	COM3	2024-06-04_13h37.21.985	001-EEG_SVR_Officel	2022.2.5	143.60986371505106		10.210000000000036	1_sub-pilot038_SVR_EEG_block3-4.protocol.csv	step65	8741	872.233	STIMULATE	42.8	42.7	42.7	42.7	42.7	65	1756.518
1744.67	0	872335	10hz	3	3	0	3	0	15.0	0.0	15.0	0.0						1814.284242499998	1821.313292599996	1821.313292599996	3.0	['3', 'return']	[3.128231599999708, 3.831666600002791]	7.02	5.21	3.0	10hz	high_pain	42.8			sub-038	250	38	41	42.8	COM11	COM15	COM3	2024-06-04_13h37.21.985	001-EEG_SVR_Officel	2022.2.5	143.60986371505106		7.016000000000076	1_sub-pilot038_SVR_EEG_block3-4.protocol.csv	step65	8741	872.233	STIMULATE	42.8	42.7	42.7	42.7	42.7	65	1756.518
1750.638	0	875319	10/Hi	1	3	0	3	0	15.0	0.0	15.0	0.0						1814.284242499998	1821.313292599996	1821.313292599996	3.0	['3', 'return']	[3.128231599999708, 3.831666600002791]	7.02	5.21	3.0	10hz	high_pain	42.8			sub-038	250	38	41	42.8	COM11	COM15	COM3	2024-06-04_13h37.21.985	001-EEG_SVR_Officel	2022.2.5	143.60986371505106		5.217999999999847	1_sub-pilot038_SVR_EEG_block3-4.protocol.csv	step65	8741	872.233	STIMULATE	42.8	42.7	42.7	42.7	42.7	65	1756.518
1824.45	0	912225	wait	20	4	0	4	0	0.0	0.0	0.0	0.0				p	0.7161009999981616	1901.0797946999955	1909.0667994999967	1909.0667994999967	6.0	['6', 'return']	[2.9507913999987068, 3.5830382999993162]	7.98	5.57	0.0	20hz	high_pain	42.8			sub-038	250	38	41	42.8	COM11	COM15	COM3	2024-06-04_13h37.21.985	001-EEG_SVR_Officel	2022.2.5	143.60986371505106		74.56200000000013	2_sub-pilot038_SVR_EEG_block5-6.protocol.csv	step3	678	67.616	STIMULATE	42.8	42.7	42.7	42.7	42.8	3	1844.616
1832.424	0	916212	20hz	6	4	0	4	0	0.0	0.0	0.0	0.0				p	0.7161009999981616	1901.0797946999955	1909.0667994999967	1909.0667994999967	6.0	['6', 'return']	[2.9507913999987068, 3.5830382999993162]	7.98	5.57	0.0	20hz	high_pain	42.8			sub-038	250	38	41	42.8	COM11	COM15	COM3	2024-06-04_13h37.21.985	001-EEG_SVR_Officel	2022.2.5	143.60986371505106		7.973999999999933	2_sub-pilot038_SVR_EEG_block5-6.protocol.csv	step3	678	67.616	STIMULATE	42.8	42.7	42.7	42.7	42.8	3	1844.616
1838.742	0	919371	20/Hi	4	4	0	4	0	0.0	0.0	0.0	0.0				p	0.7161009999981616	1901.0797946999955	1909.0667994999967	1909.0667994999967	6.0	['6', 'return']	[2.9507913999987068, 3.5830382999993162]	7.98	5.57	0.0	20hz	high_pain	42.8			sub-038	250	38	41	42.8	COM11	COM15	COM3	2024-06-04_13h37.21.985	001-EEG_SVR_Officel	2022.2.5	143.60986371505106		5.567999999999984	2_sub-pilot038_SVR_EEG_block5-6.protocol.csv	step3	678	67.616	STIMULATE	42.8	42.7	42.7	42.7	42.8	3	1844.616
1849.034	0	924517	wait	20	4	0	4	0	1.0	0.0	1.0	0.0						1925.6654737999925	1933.2642370999963	1933.2642370999963	6.5	['6', 'a', '5', 'return']	[2.705218799994327, 2.9946134999918286, 3.361585799997556, 4.042805199991562]	7.59	6.19	1.0	10hz	high_pain	42.8			sub-038	250	38	41	42.8	COM11	COM15	COM3	2024-06-04_13h37.21.985	001-EEG_SVR_Officel	2022.2.5	143.60986371505106		11.042000000000144	2_sub-pilot038_SVR_EEG_block5-6.protocol.csv	step5	927	92.359	STIMULATE	42.8	42.7	42.7	42.7	42.8	5	1869.359
1856.62	0	928310	10hz	3	4	0	4	0	1.0	0.0	1.0	0.0						1925.6654737999925	1933.2642370999963	1933.2642370999963	6.5	['6', 'a', '5', 'return']	[2.705218799994327, 2.9946134999918286, 3.361585799997556, 4.042805199991562]	7.59	6.19	1.0	10hz	high_pain	42.8			sub-038	250	38	41	42.8	COM11	COM15	COM3	2024-06-04_13h37.21.985	001-EEG_SVR_Officel	2022.2.5	143.60986371505106		7.585999999999785	2_sub-pilot038_SVR_EEG_block5-6.protocol.csv	step5	927	92.359	STIMULATE	42.8	42.7	42.7	42.7	42.8	5	1869.359
1863.564	0	931782	10/Hi	1	4	0	4	0	1.0	0.0	1.0	0.0						1925.6654737999925	1933.2642370999963	1933.2642370999963	6.5	['6', 'a', '5', 'return']	[2.705218799994327, 2.9946134999918286, 3.361585799997556, 4.042805199991562]	7.59	6.19	1.0	10hz	high_pain	42.8			sub-038	250	38	41	42.8	COM11	COM15	COM3	2024-06-04_13h37.21.985	001-EEG_SVR_Officel	2022.2.5	143.60986371505106		6.194000000000187	2_sub-pilot038_SVR_EEG_block5-6.protocol.csv	step5	927	92.359	STIMULATE	42.8	42.7	42.7	42.7	42.8	5	1869.359
1873.698	0	936849	wait	20	4	0	4	0	2.0	0.0	2.0	0.0						1950.3293558000005	1958.239945399997	1958.239945399997	4.0	['4', 'return']	[2.082629700002144, 2.6098488999996334]	7.9	6.41	2.0	40hz	low_pain	41.0			sub-038	250	38	41	42.8	COM11	COM15	COM3	2024-06-04_13h37.21.985	001-EEG_SVR_Officel	2022.2.5	143.60986371505106		10.884000000000015	2_sub-pilot038_SVR_EEG_block5-6.protocol.csv	step7	1181	117.522	STIMULATE	40.9	40.8	40.8	40.8	40.9	7	1894.522
1881.596	0	940798	40hz	9	4	0	4	0	2.0	0.0	2.0	0.0						1950.3293558000005	1958.239945399997	1958.239945399997	4.0	['4', 'return']	[2.082629700002144, 2.6098488999996334]	7.9	6.41	2.0	40hz	low_pain	41.0			sub-038	250	38	41	42.8	COM11	COM15	COM3	2024-06-04_13h37.21.985	001-EEG_SVR_Officel	2022.2.5	143.60986371505106		7.897999999999911	2_sub-pilot038_SVR_EEG_block5-6.protocol.csv	step7	1181	117.522	STIMULATE	40.9	40.8	40.8	40.8	40.9	7	1894.522
1888.756	0	944378	40/Lo	8	4	0	4	0	2.0	0.0	2.0	0.0						1950.3293558000005	1958.239945399997	1958.239945399997	4.0	['4', 'return']	[2.082629700002144, 2.6098488999996334]	7.9	6.41	2.0	40hz	low_pain	41.0			sub-038	250	38	41	42.8	COM11	COM15	COM3	2024-06-04_13h37.21.985	001-EEG_SVR_Officel	2022.2.5	143.60986371505106		6.410000000000082	2_sub-pilot038_SVR_EEG_block5-6.protocol.csv	step7	1181	117.522	STIMULATE	40.9	40.8	40.8	40.8	40.9	7	1894.522
1897.236	0	948618	wait	20	4	0	4	0	3.0	0.0	3.0	0.0						1973.866595200001	1980.0058314999917	1980.0058314999917	5.0	['5', 'return']	[2.8035448999871733, 3.4442756999924313]	6.13	6.46	3.0	20hz	low_pain	41.0			sub-038	250	38	41	42.8	COM11	COM15	COM3	2024-06-04_13h37.21.985	001-EEG_SVR_Officel	2022.2.5	143.60986371505106		9.230000000000018	2_sub-pilot038_SVR_EEG_block5-6.protocol.csv	step9	1402	139.404	STIMULATE	40.8	40.8	40.8	40.8	40.8	9	1916.404
1903.362	0	951681	20hz	6	4	0	4	0	3.0	0.0	3.0	0.0						1973.866595200001	1980.0058314999917	1980.0058314999917	5.0	['5', 'return']	[2.8035448999871733, 3.4442756999924313]	6.13	6.46	3.0	20hz	low_pain	41.0			sub-038	250	38	41	42.8	COM11	COM15	COM3	2024-06-04_13h37.21.985	001-EEG_SVR_Officel	2022.2.5	143.60986371505106		6.125999999999976	2_sub-pilot038_SVR_EEG_block5-6.protocol.csv	step9	1402	139.404	STIMULATE	40.8	40.8	40.8	40.8	40.8	9	1916.404
1910.576	0	955288	20/Lo	5	4	0	4	0	3.0	0.0	3.0	0.0						1973.866595200001	1980.0058314999917	1980.0058314999917	5.0	['5', 'return']	[2.8035448999871733, 3.4442756999924313]	6.13	6.46	3.0	20hz	low_pain	41.0			sub-038	250	38	41	42.8	COM11	COM15	COM3	2024-06-04_13h37.21.985	001-EEG_SVR_Officel	2022.2.5	143.60986371505106		6.463999999999942	2_sub-pilot038_SVR_EEG_block5-6.protocol.csv	step9	1402	139.404	STIMULATE	40.8	40.8	40.8	40.8	40.8	9	1916.404
1919.828	0	959914	wait	20	4	0	4	0	4.0	0.0	4.0	0.0						1996.4592949999933	2001.848740299989	2001.848740299989	6.5	['6', 'a', '5', 'return']	[2.720741099998122, 3.024623999997857, 3.224441999991541, 3.8499051999970106]	5.38	5.55	0.0	controle	high_pain	42.8			sub-038	250	38	41	42.8	COM11	COM15	COM3	2024-06-04_13h37.21.985	001-EEG_SVR_Officel	2022.2.5	143.60986371505106		10.001999999999953	2_sub-pilot038_SVR_EEG_block5-6.protocol.csv	step11	1613	160.323	STIMULATE	42.7	42.6	42.7	42.7	42.9	11	1937.3229999999999
1925.206	0	962603	CNhz	12	4	0	4	0	4.0	0.0	4.0	0.0						1996.4592949999933	2001.848740299989	2001.848740299989	6.5	['6', 'a', '5', 'return']	[2.720741099998122, 3.024623999997857, 3.224441999991541, 3.8499051999970106]	5.38	5.55	0.0	controle	high_pain	42.8			sub-038	250	38	41	42.8	COM11	COM15	COM3	2024-06-04_13h37.21.985	001-EEG_SVR_Officel	2022.2.5	143.60986371505106		5.377999999999929	2_sub-pilot038_SVR_EEG_block5-6.protocol.csv	step11	1613	160.323	STIMULATE	42.7	42.6	42.7	42.7	42.9	11	1937.3229999999999
1931.508	0	965754	CN/Hi	10	4	0	4	0	4.0	0.0	4.0	0.0						1996.4592949999933	2001.848740299989	2001.848740299989	6.5	['6', 'a', '5', 'return']	[2.720741099998122, 3.024623999997857, 3.224441999991541, 3.8499051999970106]	5.38	5.55	0.0	controle	high_pain	42.8			sub-038	250	38	41	42.8	COM11	COM15	COM3	2024-06-04_13h37.21.985	001-EEG_SVR_Officel	2022.2.5	143.60986371505106		5.552000000000135	2_sub-pilot038_SVR_EEG_block5-6.protocol.csv	step11	1613	160.323	STIMULATE	42.7	42.6	42.7	42.7	42.9	11	1937.3229999999999
1942.088	0	971044	wait	20	4	0	4	0	5.0	0.0	5.0	0.0						2018.7187646999955	2024.1916532999892	2024.1916532999892	5.0	['5', 'return']	[2.505003600002965, 3.098026799998479]	5.46	5.67	1.0	controle	high_pain	42.8			sub-038	250	38	41	42.8	COM11	COM15	COM3	2024-06-04_13h37.21.985	001-EEG_SVR_Officel	2022.2.5	143.60986371505106		11.329999999999927	2_sub-pilot038_SVR_EEG_block5-6.protocol.csv	step13	1840	182.844	STIMULATE	42.7	42.7	42.7	42.7	42.8	13	1959.844
1947.548	0	973774	CNhz	12	4	0	4	0	5.0	0.0	5.0	0.0						2018.7187646999955	2024.1916532999892	2024.1916532999892	5.0	['5', 'return']	[2.505003600002965, 3.098026799998479]	5.46	5.67	1.0	controle	high_pain	42.8			sub-038	250	38	41	42.8	COM11	COM15	COM3	2024-06-04_13h37.21.985	001-EEG_SVR_Officel	2022.2.5	143.60986371505106		5.460000000000036	2_sub-pilot038_SVR_EEG_block5-6.protocol.csv	step13	1840	182.844	STIMULATE	42.7	42.7	42.7	42.7	42.8	13	1959.844
1953.97	0	976985	CN/Hi	10	4	0	4	0	5.0	0.0	5.0	0.0						2018.7187646999955	2024.1916532999892	2024.1916532999892	5.0	['5', 'return']	[2.505003600002965, 3.098026799998479]	5.46	5.67	1.0	controle	high_pain	42.8			sub-038	250	38	41	42.8	COM11	COM15	COM3	2024-06-04_13h37.21.985	001-EEG_SVR_Officel	2022.2.5	143.60986371505106		5.6720000000000255	2_sub-pilot038_SVR_EEG_block5-6.protocol.csv	step13	1840	182.844	STIMULATE	42.7	42.7	42.7	42.7	42.8	13	1959.844
1963.68	0	981840	wait	20	4	0	4	0	6.0	0.0	6.0	0.0						2040.3117090000012	2047.6527671999936	2047.6527671999936	4.0	['4', 'return']	[2.5491885999945225, 3.2686312000005273]	7.33	5.98	2.0	20hz	low_pain	41.0			sub-038	250	38	41	42.8	COM11	COM15	COM3	2024-06-04_13h37.21.985	001-EEG_SVR_Officel	2022.2.5	143.60986371505106		10.460000000000036	2_sub-pilot038_SVR_EEG_block5-6.protocol.csv	step15	2079	206.581	STIMULATE	40.9	40.8	40.8	40.8	40.9	15	1983.581
1971.01	0	985505	20hz	6	4	0	4	0	6.0	0.0	6.0	0.0						2040.3117090000012	2047.6527671999936	2047.6527671999936	4.0	['4', 'return']	[2.5491885999945225, 3.2686312000005273]	7.33	5.98	2.0	20hz	low_pain	41.0			sub-038	250	38	41	42.8	COM11	COM15	COM3	2024-06-04_13h37.21.985	001-EEG_SVR_Officel	2022.2.5	143.60986371505106		7.329999999999927	2_sub-pilot038_SVR_EEG_block5-6.protocol.csv	step15	2079	206.581	STIMULATE	40.9	40.8	40.8	40.8	40.9	15	1983.581
1977.744	0	988872	20/Lo	5	4	0	4	0	6.0	0.0	6.0	0.0						2040.3117090000012	2047.6527671999936	2047.6527671999936	4.0	['4', 'return']	[2.5491885999945225, 3.2686312000005273]	7.33	5.98	2.0	20hz	low_pain	41.0			sub-038	250	38	41	42.8	COM11	COM15	COM3	2024-06-04_13h37.21.985	001-EEG_SVR_Officel	2022.2.5	143.60986371505106		5.983999999999924	2_sub-pilot038_SVR_EEG_block5-6.protocol.csv	step15	2079	206.581	STIMULATE	40.9	40.8	40.8	40.8	40.9	15	1983.581
1987.3	0	993650	wait	20	4	0	4	0	7.0	0.0	7.0	0.0						2063.932009799988	2070.600657499992	2070.600657499992	4.5	['4', 'a', '5', 'return']	[3.00140310000279, 3.2338253000052646, 3.4569094000034966, 4.145583900011843]	6.66	5.42	3.0	10hz	high_pain	42.8			sub-038	250	38	41	42.8	COM11	COM15	COM3	2024-06-04_13h37.21.985	001-EEG_SVR_Officel	2022.2.5	143.60986371505106		10.30600000000004	2_sub-pilot038_SVR_EEG_block5-6.protocol.csv	step17	2305	228.95	STIMULATE	42.7	42.7	42.7	42.7	42.7	17	2005.95
1993.956	0	996978	10hz	3	4	0	4	0	7.0	0.0	7.0	0.0						2063.932009799988	2070.600657499992	2070.600657499992	4.5	['4', 'a', '5', 'return']	[3.00140310000279, 3.2338253000052646, 3.4569094000034966, 4.145583900011843]	6.66	5.42	3.0	10hz	high_pain	42.8			sub-038	250	38	41	42.8	COM11	COM15	COM3	2024-06-04_13h37.21.985	001-EEG_SVR_Officel	2022.2.5	143.60986371505106		6.655999999999949	2_sub-pilot038_SVR_EEG_block5-6.protocol.csv	step17	2305	228.95	STIMULATE	42.7	42.7	42.7	42.7	42.7	17	2005.95
2000.13	0	1000065	10/Hi	1	4	0	4	0	7.0	0.0	7.0	0.0						2063.932009799988	2070.600657499992	2070.600657499992	4.5	['4', 'a', '5', 'return']	[3.00140310000279, 3.2338253000052646, 3.4569094000034966, 4.145583900011843]	6.66	5.42	3.0	10hz	high_pain	42.8			sub-038	250	38	41	42.8	COM11	COM15	COM3	2024-06-04_13h37.21.985	001-EEG_SVR_Officel	2022.2.5	143.60986371505106		5.4240000000002055	2_sub-pilot038_SVR_EEG_block5-6.protocol.csv	step17	2305	228.95	STIMULATE	42.7	42.7	42.7	42.7	42.7	17	2005.95
